time,ax,ay,az,gx,gy,gz
0.0,1.056618446546048,0.991491163727641,0.6878419789075851,-1.7862859964370728,0.6287972927093506,1.1961604356765747
0.00996606445312409,0.7326719583023339,1.952598295107484,1.3683949698507785,-1.4524589776992798,0.3519209623336792,1.1001708507537842
0.019932128906249957,0.2093563785981387,2.762043623423576,2.147557972627878,-1.055128574371338,-0.0404277630150318,0.9804425835609436
0.029897949218749886,-0.1411097947154194,3.226995715355873,2.8340269096165893,-0.6553798317909241,-0.4679069221019745,0.8483535051345825
0.03986401367187398,-0.3836102449592202,3.532462763252854,3.560826687949896,-0.2901023924350738,-0.8203705549240112,0.7247127294540405
0.049830078124999844,-0.3714109808605164,3.647332420492172,4.373430772557854,-0.00238723680377,-1.0109854936599731,0.6309483647346497
0.059794921874999574,-0.1652566131740808,3.574429681366682,5.251538133689761,0.208819180727005,-1.0008232593536377,0.587690532207489
0.06976098632812366,0.0114782563477754,3.482076391839981,6.055768942227959,0.3557787835597992,-0.852513313293457,0.57199627161026
0.07972705078124953,0.14198752739802,3.363934581062197,6.513412756973505,0.4622114896774292,-0.6408452391624451,0.5733262300491333
0.0896931152343754,0.343280353462696,3.2091087610095737,6.692862146151065,0.5458357930183411,-0.4276139438152313,0.5581544637680054
0.09965893554687533,0.528620846505463,3.0564690528243776,6.76933748306632,0.6289561986923218,-0.2102394998073578,0.5151464343070984
0.10962499999999942,0.6447824432514607,2.934702621808648,6.743796214574575,0.7093887329101562,-0.0089109195396304,0.4344627559185028
0.11959106445312528,0.6316352307781576,2.839273578098416,6.660055270570516,0.781207799911499,0.1624785959720611,0.3214263319969177
0.12955590820312501,0.5066565597176551,2.8332921656012533,6.511031999316812,0.8462552428245544,0.2759071588516235,0.1715476363897323
0.1395219726562491,0.3002875994324684,2.920093666219711,6.375330566450953,0.8786746859550476,0.3484932780265808,0.0021502352319657
0.14948803710937497,0.032924656741321,3.1003941192686555,6.254732594692706,0.8686910271644592,0.3883261680603027,-0.178181990981102
0.15945410156249906,-0.2612393452443182,3.233835205987096,6.113324474617839,0.8320040106773376,0.4234646558761596,-0.3603003919124603
0.169419921874999,-0.5398033347770571,3.42413215239346,5.970602349334955,0.7796356081962585,0.454521894454956,-0.529822587966919
0.17938598632812486,-0.8784078053832054,3.5884587912410497,5.692509046053886,0.7277153134346008,0.5186721682548523,-0.6975052356719971
0.18935205078124895,-1.2870663476854562,3.813347743079066,5.44557485114634,0.6856935620307922,0.5972460508346558,-0.8634116053581238
0.19931689453124868,-1.5212994664520023,4.01230028962791,5.000243405485153,0.6573123931884766,0.6720042824745178,-1.0010771751403809
0.2092832031249987,-1.4922317773997782,3.793651693484187,4.390120626074076,0.6801958680152893,0.8294743299484253,-1.112316370010376
0.2192490234375004,-1.3742813975408672,3.264514421889185,3.910240429601073,0.7545650005340576,1.0431301593780518,-1.213817119598389
0.22921484375000034,-1.2705717244803905,2.8363930542260407,3.119873895764351,0.903828501701355,1.2074743509292605,-1.2523517608642578
0.23918090820312443,-1.152296496581286,2.2007693383336067,2.1154379102677106,1.1065078973770142,1.2493406534194946,-1.2258895635604858
0.2491469726562503,-0.9266505158308892,1.542451560074091,1.1683581351965666,1.2920488119125366,1.13647723197937,-1.179238200187683
0.2591120605468742,-0.5643449612395838,0.8749848451972008,0.2680985634893179,1.4107211828231812,0.873126745223999,-1.1532312631607056
0.2690778808593741,-0.3429295307310298,0.325298122048378,-0.584936900228262,1.448696494102478,0.4928918182849884,-1.1671228408813477
0.2790439453125,-0.2739308315730653,-0.130085931071639,-1.346606916412711,1.39608895778656,0.0571216866374015,-1.1898242235183716
0.2890100097656241,-0.1624058633854612,-0.925764599841833,-2.043285697248578,1.2100403308868408,-0.3977701961994171,-1.2387983798980713
0.298975830078124,-0.1679498343134298,-1.856114189386368,-2.999877397030592,0.9149824976921082,-0.7619830965995789,-1.3536304235458374
0.30894189453124987,-0.6623960605490953,-2.162508873522281,-3.914790932512283,0.6402081847190857,-0.8721977472305298,-1.4787081480026243
0.3189082031249999,-1.251620355772972,-2.2546628410845995,-4.395879335731268,0.4976131618022918,-0.662222146987915,-1.539628982543945
0.3288728027343737,-1.370783326292038,-2.7579332654953,-4.873168346667289,0.4840430319309234,-0.2179229855537414,-1.47358238697052
0.33883886718749956,-0.6090986605277284,-3.695973994064331,-5.368853430515528,0.5490917563438416,0.3521241545677185,-1.2435855865478516
0.3488051757812496,1.0657903256475925,-4.99459926211834,-5.729647228837013,0.6152950525283813,0.8150705099105835,-0.9037749767303468
0.3587712402343737,3.268383372277021,-6.463502186378836,-6.113741823247075,0.6357322931289673,1.083391785621643,-0.5258801579475403
0.3687370605468754,5.508105833861231,-7.766490910339355,-6.222986041820049,0.5671396851539612,1.0558464527130127,-0.0768594741821289
0.3787031249999995,7.057538338863849,-8.71916339085102,-6.37319238537848,0.3743468523025512,0.6849506497383118,0.3968389630317688
0.38866918945312534,7.747322099488973,-9.13558146123886,-6.488497511425614,0.0397622138261795,0.055378321558237,0.7883952856063843
0.39863403320312507,7.812143238967657,-9.012834202492236,-6.285303089523315,-0.4463903605937958,-0.7374104261398315,1.1007567644119265
0.40860009765624916,7.246279872521757,-8.653872880294918,-5.900526358067989,-1.041534185409546,-1.538373947143555,1.3598136901855469
0.41856616210937503,5.943731293544173,-7.808419250008463,-5.423502135547995,-1.5752843618392944,-2.0047378540039062,1.5817915201187134
0.4285322265624991,4.16006333168745,-6.671792470115423,-4.483952755981684,-1.9313050508499143,-2.0412261486053467,1.7320371866226196
0.43849804687499905,2.5685744767218828,-5.293600913393497,-3.668748133486509,-2.1268293857574463,-1.7152926921844482,1.7949857711791992
0.4484641113281249,1.1497503922950476,-3.6288720501720895,-2.965644872561097,-2.1805665493011475,-1.0891659259796145,1.79955792427063
0.458430175781249,0.1664994528420269,-2.008937437444925,-2.1190712983340023,-2.1201233863830566,-0.3308836221694946,1.7992169857025146
0.46839501953124874,-0.2455588879663497,-0.5691320128530264,-1.4520090726047754,-1.956645965576172,0.367451012134552,1.7986518144607544
0.4783610839843746,-0.1668010661371052,0.7450181565910577,-0.8295932133316993,-1.6945886611938477,0.8958517909049988,1.7876123189926147
0.4883271484374987,0.0279794554241001,2.0361773265481,-0.2622457458078861,-1.3539634943008425,1.1329892873764038,1.747018575668335
0.4982929687500004,0.0928681802462786,3.275482390627265,0.0867091461598873,-0.9771897196769714,1.0800679922103882,1.7428865432739258
0.5082590332031245,-0.056164004966244,4.200967589005828,0.5057166485190391,-0.6142916679382324,0.7928694486618042,1.773802399635315
0.5182250976562504,-0.2781337083566934,4.852866147872805,1.002957145115733,-0.2876015305519104,0.3783305585384369,1.8124792575836184
0.5281911621093744,-0.4003674646232277,5.376566196849942,1.5980051049917936,-0.0072172959335148,-0.0472667999565601,1.8191558122634888
0.5381560058593742,-0.4491288651827722,5.656295576900243,2.295942361456156,0.2157155275344848,-0.3789567947387695,1.7924528121948242
0.5481220703125,-0.2951990441218018,5.616506002825498,3.033422523757815,0.3849439620971679,-0.5385933518409729,1.7463923692703247
0.5580881347656241,-0.244845405934751,5.311187423488497,3.7292011408835646,0.5573562383651733,-0.523745596408844,1.6866413354873655
0.5680539550781241,-0.1873874887004494,4.982966691991686,4.301331751030683,0.726017951965332,-0.3879782259464264,1.637837052345276
0.5780200195312499,-0.0747670716926455,4.606127767798304,4.65796316897571,0.889021098613739,-0.1997848749160766,1.5628496408462524
0.587986083984374,-0.113602998304367,4.342328947329521,4.957285138246417,1.0530803203582764,0.0414991118013858,1.4263267517089844
0.5979509277343737,-0.1339963825136423,4.15064493047893,5.327319643121958,1.1882928609848022,0.2302571386098861,1.2675608396530151
0.6079169921874996,0.0502411177232861,3.8623932212769994,5.3722869120955465,1.290751338005066,0.3189246952533722,1.095117211341858
0.6178830566406237,0.2791239615030587,3.594243219861388,5.31752422529459,1.354405641555786,0.3202865123748779,0.8958607316017151
0.6278491210937496,0.3666496847428381,3.38802623526752,5.320354480284452,1.3954592943191528,0.2536507546901703,0.6543111801147461
0.6378149414062495,0.4240909431032836,3.255634949862957,5.3136470916002985,1.4090397357940674,0.1173892989754676,0.3943311870098114
0.6477810058593754,0.501638877686113,3.090505762460828,5.257931049597263,1.390089750289917,-0.0365302264690399,0.1425660401582718
0.6577470703124995,0.500174942613393,2.9784587614268063,5.305758384177088,1.3425025939941406,-0.1170442402362823,-0.0943785905838012
0.6677128906249994,0.4728635957092046,2.915177837127447,5.483904874062538,1.2764968872070312,-0.1145033165812492,-0.2945979833602905
0.6776779785156251,0.4958110483154654,2.7984371253192424,5.563677498957515,1.1782958507537842,-0.0225850977003574,-0.4591108858585357
0.6876440429687491,0.5493371790587902,2.749458282616734,5.621349351203441,1.0529224872589111,0.1583207696676254,-0.5927256345748901
0.6976098632812491,0.6016105332620442,2.7407395541101693,5.574966370213032,0.9310652017593384,0.3953220844268799,-0.6650938391685486
0.7075759277343749,0.7554802216336131,2.4215748202502727,5.320555555814504,0.8256099224090576,0.6456698775291443,-0.7152177095413208
0.717541992187499,1.0895648767277597,2.127404826915264,4.882708328428865,0.7489285469055176,0.8259206414222717,-0.7376517057418823
0.7275080566406249,1.4408191316790877,1.769084725230932,4.19697238188982,0.6862561106681824,0.9213238954544068,-0.7013913989067078
0.7374738769531248,1.7460006406329571,1.2297592370986938,3.52344417501688,0.6101186871528625,0.8934727311134338,-0.652519941329956
0.7474389648437487,2.091933554431051,0.6096574999868869,2.5228876613020894,0.5227678418159485,0.733411431312561,-0.5809807777404785
0.7574050292968746,2.48039262766093,-0.5135252764433622,1.1502221745252608,0.4024816453456878,0.4854243397712707,-0.5101690292358398
0.7673708496093745,2.5730016455143687,-1.5427525888472795,-0.3322708836704492,0.2615317106246948,0.232828289270401,-0.4813800156116485
0.7773369140625004,2.229094976846873,-2.212659682613611,-1.876378978779912,0.1354307979345321,0.0470580831170082,-0.5058615207672119
0.7873032226562504,1.5967153574422002,-2.9223639492392537,-3.620888650202751,0.0553884133696556,0.0209987889975309,-0.5320504903793335
0.7972656249999996,1.039075702527538,-3.854252000397444,-5.331610033792257,0.0633271560072898,0.2065307796001434,-0.5473095774650574
0.8072316894531237,0.896975216274336,-4.981739196023344,-7.138114096835255,0.1667126715183258,0.5609865784645081,-0.5215868949890137
0.8171967773437494,1.1306148261271416,-6.154450850254297,-8.872293512901663,0.3387821912765503,0.9778342843055724,-0.4473786950111389
0.8271628417968753,1.5871457111947238,-7.118651855996251,-10.35365376767516,0.5266165733337402,1.4149959087371826,-0.3056103885173797
0.8371286621093752,2.514979372395575,-7.832283525198697,-11.367430997490882,0.6494600176811218,1.7396013736724854,-0.1092659905552864
0.8470944824218751,3.879841199684143,-8.415730479130149,-12.259363470357656,0.6807284355163574,1.915648341178894,0.2190889865159988
0.8570607910156252,5.234485876601934,-9.195894767904282,-12.780486946845054,0.6004764437675476,1.931562542915344,0.7764230966567993
0.8670266113281251,5.826768463417888,-10.02806221563816,-12.747234665584564,0.3628026247024536,1.8469702005386357,1.4291598796844482
0.8769926757812492,5.300576013103127,-9.882418065428734,-12.06095920534134,-0.0061321556568145,1.6290197372436523,1.9311854839324951
0.8869577636718748,4.054200864507258,-8.757268957361578,-11.431001260125637,-0.3964650332927704,1.307620406150818,2.1709682941436768
0.8969235839843748,2.485018533895909,-7.05984953841567,-10.612581767237186,-0.6886622905731201,1.0663238763809204,2.2398757934570312
0.9068896484374989,1.123622556087002,-5.2377100993454455,-9.402347899341583,-0.7713150978088379,1.0328539609909058,2.273045778274536
0.9168554687499988,0.0857115864899009,-3.649132163390517,-7.868864074099063,-0.6722168326377869,1.1744816303253174,2.3230843544006348
0.9268217773437488,-0.5631167711514979,-2.225975675782561,-6.311922800901532,-0.477302998304367,1.399502158164978,2.3786795139312744
0.9367875976562487,-0.9102334148414432,-0.936846550348401,-4.659951127922534,-0.2793657779693603,1.6214419603347778,2.4171957969665527
0.9467536621093764,-1.109038150417432,0.4417436503022909,-2.801619262486696,-0.1455046534538269,1.829375982284546,2.444687843322754
0.9567194824218763,-1.133758384849876,1.7592969061881305,-0.920518515881896,-0.1062332466244697,1.9503533840179443,2.462540626525879
0.9666845703125002,-1.1484762807060032,2.8768174190729856,0.6747749920636416,-0.1353375911712646,2.0072617530822754,2.4589827060699463
0.9766506347656243,-1.172685204615444,3.8195249704092737,2.226843690788746,-0.2156175374984741,2.03026819229126,2.445294141769409
0.9866166992187502,-1.2740236184999345,4.690969951042533,3.5778865438222884,-0.3568820059299469,2.010702133178711,2.4657583236694336
0.996582763671876,-1.4014955676808951,5.444696899268031,4.63483772945404,-0.5516892671585083,2.0076191425323486,2.510313034057617
1.006548583984376,-1.4875233074478804,5.949641978892684,5.5731467535704375,-0.769365668296814,2.0589795112609863,2.562941789627075
1.016514404296876,-1.6342225196681917,6.258335587620735,6.270507671451568,-0.952517569065094,2.1727609634399414,2.6008520126342773
1.0264807128906241,-1.7350602905541657,6.419751891979574,6.61633186417818,-1.066961646080017,2.331917762756348,2.6243412494659424
1.0364455566406239,-1.6854907884821295,6.296582023906708,6.688870446166396,-1.0878148078918457,2.501493215560913,2.629213571548462
1.0464113769531238,-1.505976371244341,6.121656834155321,6.524226411932706,-1.011441946029663,2.63303542137146,2.6041040420532227
1.0563776855468738,-1.31663847912848,6.010146424216032,6.206475636523962,-0.8242695331573486,2.7141811847686768,2.538646936416626
1.0663435058593738,-1.1256667022004725,5.882351234430074,5.857133791065216,-0.5319130420684814,2.731600046157837,2.455312013626098
1.0763098144531238,-0.9859097103334964,5.605137636592984,5.71821982589364,-0.2020798474550247,2.6776278018951416,2.3351235389709477
1.0862756347656237,-0.9159762693423776,5.376677840530872,5.738154360419512,0.0862419530749321,2.4988088607788086,2.160895586013794
1.0962419433593737,-0.8776442736648022,5.142386854097246,5.702240166473389,0.3179327249526977,2.2191381454467773,1.9827922582626345
1.1062065429687493,-0.7994253810178488,4.8090205764055245,5.868954577240348,0.4859603643417358,1.9240003824234009,1.787257194519043
1.1161723632812492,-0.7532811772193759,4.578703169777989,6.086529406672716,0.5542507171630859,1.6699886322021484,1.5879865884780884
1.1261389160156252,-0.7179916179776191,4.294827775964141,6.304048122003674,0.5471382141113281,1.4902044534683228,1.431296944618225
1.1361047363281251,-0.5142036140963435,3.989392876771092,6.536915213114023,0.4409410059452057,1.383762001991272,1.314508318901062
1.1460708007812492,-0.3567425867019221,3.7939042069405313,6.465032464686035,0.2863974869251251,1.393446922302246,1.2690593004226685
1.1560366210937492,-0.3678220164578408,3.713463473525643,6.222376385489106,0.1211611926555633,1.5936766862869265,1.2926336526870728
1.1660029296874992,-0.5085892448132857,3.5648131272375583,6.028712008476257,-0.0529445596039295,1.9707449674606323,1.335071682929993
1.1759687499999991,-1.0161004120662809,3.638416123586893,5.485603494673967,-0.217203214764595,2.462013959884644,1.3242125511169434
1.1859335937499988,-1.4809741780653596,3.941477279385924,4.577568612790108,-0.2500429451465606,3.087200164794922,1.2961028814315796
1.1958999023437489,-1.6826083649136123,3.663062489065528,3.85576941922307,-0.1026992425322532,3.720777988433838,1.3395907878875732
1.2058657226562488,-1.389526020684838,3.195153885415196,2.947397852730751,0.1574196964502334,4.18631649017334,1.4773555994033811
1.2158315429687487,-0.635813247115165,2.528364046886564,1.8837515533745288,0.3852898776531219,4.395716667175293,1.6533708572387695
1.2257976074218764,0.2715449045509099,1.5160621503204106,0.9858201323539018,0.4889537096023559,4.208813190460205,1.738805055618286
1.2357636718749987,0.9312565483216196,1.0845447104781865,-0.4352805917680263,0.4956839680671692,3.803165197372437,1.6003668308258057
1.2457297363281228,1.4269170091852543,1.2663473847836255,-1.5756529879301786,0.4997665882110595,3.1934547424316406,1.344366431236267
1.2556955566406227,1.8729568953767417,0.8395049510151147,-3.099867465046048,0.4987766742706299,2.3979411125183105,1.0563760995864868
1.2656606445312502,2.3663050607100127,-0.1243745676875114,-4.965935477691889,0.4517133235931396,1.5848406553268433,0.7691344618797302
1.275626708984376,2.9357834027826786,-1.286215868335962,-6.668743019416928,0.3317195177078247,0.9073020219802856,0.5113207101821899
1.285592529296876,3.4128260377421973,-2.325582297438383,-8.369856032183765,0.1689391285181045,0.4636374711990356,0.380375474691391
1.2955588378906242,3.381728011906147,-3.0598224549055097,-9.754180977094173,0.0384824536740779,0.5926132798194885,0.4067387580871582
1.3055246582031241,2.597081024760008,-3.5196938825726507,-9.897204131150245,0.0249035246670246,1.3351938724517822,0.5424672961235046
1.31549072265625,2.050953601527959,-3.8037697673946615,-9.711000007015466,0.1865188032388687,2.283408164978028,0.7496905326843262
1.32545654296875,2.790799177786708,-5.164902637287974,-10.125885461008547,0.4563359022140503,3.0098700523376465,0.984039068222046
1.3354216308593738,4.211290245577692,-7.016223162657022,-10.562663597857952,0.6820335984230042,3.34367299079895,1.1324176788330078
1.3453876953124997,5.74362197817564,-8.716884924525022,-10.242340926134586,0.8261686563491821,3.2501142024993896,1.196520209312439
1.3553535156249996,6.681646340131759,-10.043599976509809,-9.23379341366589,0.7432814836502075,2.804422616958618,1.1796181201934814
1.3653198242187496,6.830077490711211,-10.365938079708814,-7.570567356222868,0.2726939916610718,2.1746714115142822,1.0192217826843262
1.3752856445312496,6.712610802716016,-10.204176322913169,-5.524855893132091,-0.6622466444969177,1.3890882730484009,0.7970223426818848
1.3852514648437495,6.5635138817042105,-9.975027375543116,-4.168000554427504,-1.8737143278121948,0.7402942180633545,0.6306490898132324
1.3952175292968754,5.936455749583244,-8.949692394402623,-2.927100914633274,-2.9796688556671143,0.6190379858016968,0.66197669506073
1.4051835937499995,4.7960938748151065,-7.418139244961738,-1.6776538112461563,-3.785118818283081,0.9088903665542604,0.9212098717689514
1.4151486816406251,3.278935161429644,-5.325810407602787,-1.346735511228442,-4.3192338943481445,1.4556819200515747,1.1908276081085205
1.425114501953125,1.8890803471818565,-2.429115152627229,-1.395158473613858,-4.528513431549072,1.9763435125350952,1.4224789142608645
1.4350805664062491,0.9229515882477164,-0.0868061767935752,-2.0547394036769866,-4.4017205238342285,2.223114252090454,1.6869962215423584
1.445046630859375,0.2008510736465454,1.496371361422539,-2.9481577311873437,-3.9769983291625977,2.1601362228393555,1.9597413539886477
1.455012451171875,-0.7201064181745052,2.924101732817292,-3.509777468714118,-3.265045166015625,1.7316192388534546,2.114832878112793
1.464978515624999,-2.036034410946071,4.215166502489149,-3.935415202867985,-2.2934842109680176,0.9480922222137452,2.088741540908813
1.474944824218749,-3.293257701292634,5.162841028583049,-3.838892518702149,-1.1946128606796265,-0.024762637913227,1.9286630153656008
1.484910888671875,-4.194723141658306,5.642624778944254,-2.841340447500348,-0.144774779677391,-0.9445170164108276,1.7648221254348757
1.4948754882812487,-4.502204451987147,5.69671643461585,-1.007200189512968,0.680955708026886,-1.6416305303573608,1.6546173095703125
1.5048415527343764,-4.399381498633325,5.573891434457898,1.242062253832817,1.2159746885299685,-1.952949285507202,1.61814284324646
1.5148078613281228,-4.176315962830186,5.403305735215544,3.795656019043922,1.450170636177063,-1.8550578355789185,1.6522361040115356
1.5247736816406228,-3.8482641581594943,5.440777095475792,6.172399763920903,1.3974419832229614,-1.44238018989563,1.7313356399536133
1.5347397460937504,-3.36228009185344,5.431543403184413,7.915594845613837,1.1390976905822754,-0.8984111547470093,1.8285095691680908
1.5447058105468763,-2.7881524626702068,5.297510195791721,8.835682568863033,0.7805758118629456,-0.3628159165382385,1.9146701097488403
1.5546716308593762,-2.0940908785954115,5.044781050869823,9.103255062651634,0.4271775186061859,0.0377280302345752,1.9847702980041504
1.5646376953125003,-1.3938760325878858,4.832819385144115,8.799762529698013,0.1486468315124511,0.2322543710470199,2.0107128620147705
1.5746027832031242,-0.8488832394089549,4.846542205548286,8.042825387254357,0.0017984597943723,0.2750219106674194,1.9885334968566892
1.58456884765625,-0.6227120657406747,4.850485974738001,7.3556784048736095,-0.0455618649721145,0.2821458578109741,1.893441081047058
1.59453466796875,-0.708632764936611,5.068709038946032,6.863367765894532,-0.0486316196620464,0.2224118560552597,1.724065184593201
1.6045007324218759,-0.7002494789294899,5.307961447179317,6.052594403845071,0.0153521560132503,0.1077984645962715,1.5573681592941284
1.614466796875,-0.755181092556566,5.116188583001494,5.2593303950011725,0.1439819186925888,0.0992878526449203,1.3856109380722046
1.6244326171874999,-1.028339277523011,5.106435835272073,4.957268187111616,0.3133530914783478,0.2248191386461258,1.2116926908493042
1.634398681640624,-1.2189309690922498,5.170516970038413,4.648334924408793,0.4924043715000152,0.412930816411972,1.0491013526916504
1.6443647460937498,-1.142820885292813,5.211629317149519,4.254455433565378,0.6620424389839172,0.5986000299453735,0.9128023386001588
1.6543295898437496,-0.8851172398939728,5.139814373260736,3.815248608264327,0.8129778504371643,0.738659143447876,0.7886192202568054
1.6642956542968736,-0.5511886886769906,5.048184721833467,3.439498063829541,0.9357391595840454,0.789988100528717,0.6899096965789795
1.6742617187499995,-0.2755854851786047,5.018887900200486,3.0000398941159245,1.0566322803497314,0.8220688104629517,0.6095265746116638
1.6842277832031254,-0.0014868775568902,4.84360790566206,2.577261641046405,1.2153890132904053,0.8269416093826294,0.5677253007888794
1.6941936035156253,0.4220143194923177,4.369826026064157,1.9542694431900975,1.40394389629364,0.7762218713760376,0.5642954707145691
1.7041596679687494,0.9175551360316574,3.7683734598428007,1.2095137369275093,1.622044801712036,0.6582832336425781,0.5575081706047058
1.7141257324218753,1.3934557613492011,3.046355070567131,0.4438303934484719,1.7958635091781616,0.4914944469928741,0.556128978729248
1.7240915527343752,1.7706705331176518,2.2576766359478238,-0.3440571830540895,1.887948751449585,0.3545131683349609,0.5523129105567932
1.7340576171874993,2.0127112568952144,1.4088357013106343,-0.8068260857284069,1.8677822351455688,0.2560204863548279,0.515036404132843
1.7440227050781232,1.992024004305899,0.6460936719805002,-1.4406915597766636,1.709348440170288,0.1448979675769806,0.3918486833572387
1.753988769531249,1.5793946586765348,0.1593096874684095,-2.494218616178632,1.4620311260223389,0.0744746252894401,0.293910801410675
1.763954589843749,1.2039295070543885,-0.6162935770004987,-3.761931444096565,1.2352523803710938,0.2360049337148666,0.2906612157821655
1.773920410156249,1.051397423962131,-1.761056317076087,-4.695485382640362,1.0336625576019287,0.6961476802825928,0.3139055371284485
1.783886718749999,0.8967337356686591,-2.529165426397324,-5.762777929544448,0.9154845476150512,1.3206424713134766,0.3982840478420257
1.7938525390624989,0.6339022989273071,-3.1913743668764827,-6.945829776003956,0.8975892066955566,1.9633868932724,0.5344517827033997
1.8038149414062499,0.5172671663854271,-3.5329806496471163,-7.974756059634685,0.941265344619751,2.4899494647979736,0.6521272659301758
1.813781005859374,1.065836283681169,-4.03682565907538,-8.868145745572447,1.007176399230957,2.8351738452911377,0.7442333102226257
1.8237460937499996,2.156699018199742,-5.120041751298308,-9.496522559076547,1.0723217725753784,2.9204373359680176,0.8126019835472107
1.8337119140624996,3.627093350061774,-6.5214207068622105,-10.015331328880784,1.1153899431228638,2.828368663787842,0.8877071142196655
1.8436782226562496,5.087048413234949,-8.074691182592511,-9.77837609167397,1.1118969917297363,2.5988240242004395,0.9984474778175354
1.8536440429687495,6.137912387907504,-9.26258871551752,-9.201210409969091,1.0200942754745483,2.22249698638916,1.1255955696105957
1.8636098632812494,6.623183045247197,-9.95059319151044,-8.534512925899028,0.831226646900177,1.7482250928878784,1.23553729057312
1.8735759277343753,6.645378510442376,-10.159549245679376,-7.815467999476194,0.5100277662277222,1.2439385652542114,1.3496103286743164
1.8835419921874994,6.149575353172421,-10.003825600004197,-7.356387429925799,0.1402271091938018,0.8454141616821289,1.5295507907867432
1.8935080566406253,5.373377629941702,-9.814316589105127,-7.129239885506033,-0.1985254287719726,0.6077449917793274,1.8143564462661743
1.9034729003906232,4.178068651716411,-9.420621807178854,-6.91426793204844,-0.4780164361000061,0.6763328909873962,2.108588218688965
1.913438964843749,2.5668343550562858,-8.330411326023937,-6.156965463423728,-0.6882895827293396,1.0122674703598022,2.32132339477539
1.923405029296875,0.677825684871152,-6.605270371937752,-5.263975005936622,-0.8634781837463379,1.5410596132278442,2.373373031616211
1.9333708496093749,-1.1896243567176163,-4.196322978070378,-4.194453677067161,-0.9908740520477296,2.1849920749664307,2.2748639583587646
1.943336914062499,-2.4774977830022573,-1.7060867095261811,-3.040488808882236,-1.0580302476882937,2.7534048557281494,2.0629913806915283
1.953302978515623,-2.906024224334955,0.518743887874484,-2.071787569111585,-1.0753223896026611,3.1394636631011963,1.819543719291687
1.963269042968749,-2.6218311428740617,2.3134102136075496,-1.0137117633640766,-1.05860435962677,3.298041343688965,1.6193608045578003
1.9732348632812489,-2.089905847995728,3.7979350698918095,0.1502092661678791,-1.049408793449402,3.248058557510376,1.469961166381836
1.9832006835937488,-1.548674964633584,5.241050641945004,1.351278999876976,-1.0870269536972046,3.033663511276245,1.3861442804336548
1.9931660156250004,-1.1854170412208884,6.675194972035288,2.4975983217448,-1.1384183168411257,2.7404305934906006,1.397749423980713
2.0031318359375003,-0.792860688740015,7.6647426004797214,3.515990936401486,-1.1569690704345703,2.430532455444336,1.5403594970703125
2.0130979003906244,-0.4607523021548986,8.257577560481428,4.411700005197525,-1.1778764724731443,2.143933057785034,1.7583200931549072
2.0230639648437503,-0.4019666434481739,8.745483242499828,5.031553905028105,-1.189043045043945,1.9107398986816408,1.944180011749268
2.03302978515625,-0.6080408585704863,8.992394641053677,5.442592035943269,-1.1482585668563845,1.7417056560516355,2.038451194763184
2.042995849609376,-1.0422426421258597,9.14686799440682,5.733304582300782,-1.0492528676986694,1.6124166250228882,2.0320279598236084
2.0529619140625,-1.4474267132505774,9.24106661953926,5.754850643676519,-0.8575555086135864,1.4596914052963257,1.9481070041656492
2.0629279785156243,-1.7205027728915214,9.1830452232033,5.620517576554417,-0.5982885360717773,1.2847427129745483,1.8246172666549685
2.072893798828124,-1.8033863694138823,8.996517858463525,5.5167608494818206,-0.306557685136795,1.0772171020507812,1.6867581605911257
2.08285986328125,-1.7840989006198942,8.74583454015553,5.448500383204221,-0.0192617326974868,0.9061103463172911,1.5465770959854126
2.092824951171874,-1.6663178859785197,8.439681263560056,5.631317202988266,0.2048508375883102,0.763414204120636,1.4143091440200806
2.102790771484374,-1.5035536741420623,8.094271496853231,5.734958779248595,0.326791375875473,0.6457672119140625,1.3239014148712158
2.1127568359374997,-1.2711335961468515,7.690952562013268,5.841442885458469,0.3433477580547333,0.6104190945625305,1.273512601852417
2.122722900390624,-1.2543095948569476,7.272360070195794,6.0213797658920285,0.2669067680835724,0.6497284173965454,1.2461377382278442
2.132689208984374,-1.3687421758532523,6.868727247101068,5.895946629062295,0.1384804844856262,0.7857893705368042,1.2297078371047974
2.142655029296874,-1.6048814205020665,6.495080981469154,5.627670370918512,-0.0272653326392173,1.019958734512329,1.2076642513275146
2.1526208496093737,-2.0088935983031986,6.370985815244913,5.18134114639163,-0.1518192589282989,1.2879048585891724,1.1804146766662598
2.1625871582031237,-2.3166280066102742,6.140558518502115,4.480179667183757,-0.2217525392770767,1.5451457500457764,1.1803464889526367
2.1725529785156237,-2.362326220206916,5.802355906695127,3.5883190905094144,-0.22416353225708,1.7696640491485596,1.1466902494430542
2.1825175781249992,-2.1116009624533354,5.329069701659679,2.5467314782261847,-0.0803331211209297,1.9142388105392456,1.123099446296692
2.192484130859375,-1.6330483613222837,4.223856881684065,1.4764496863782406,0.1472429633140564,1.8684443235397337,1.088672757148743
2.202449951171875,-1.0393133837409316,3.2103421021968126,0.3534171320736408,0.3607043921947479,1.5982701778411863,1.0297030210494995
2.2124160156249992,-0.6096930827569216,2.218914066833257,-0.7263368369966745,0.5389838814735413,1.25812029838562,0.9318031668663024
2.222381835937499,-0.3076728143129497,1.2229893045723437,-1.3814461746037006,0.668111264705658,0.9361920952796936,0.772550106048584
2.232348144531249,-0.0884009717043489,0.2234194638073444,-1.9463702143728727,0.7143322229385376,0.668438732624054,0.5876554250717163
2.242313964843749,-0.1955683840032666,-0.6416513056188822,-2.567054135286808,0.6577941179275513,0.5723912715911865,0.4201079905033111
2.252280029296875,-0.5377218523278832,-1.5188988350510595,-3.0033225690484047,0.4553127288818359,0.6828594207763672,0.3146853744983673
2.262245849609375,-0.8623287041764706,-2.5843846247941253,-3.625506373131275,0.1854807138442993,1.1156598329544067,0.2754878997802734
2.272211914062499,-0.384634619570896,-4.026632766363025,-4.171816897845268,-0.1214357838034629,1.7291978597640991,0.3235291242599487
2.282177978515623,0.4507393691193312,-5.19616754412353,-5.238514985987544,-0.3778428137302398,2.3930139541625977,0.4527177214622497
2.292142822265623,1.4470933896429836,-6.092701373305917,-6.4468450660884375,-0.4520683586597442,2.9959259033203125,0.6301047205924988
2.3021088867187487,2.7906729210585355,-6.825982914873957,-7.650729857218265,-0.2845653891563415,3.3959264755249023,0.8397570252418518
2.3120749511718763,4.522297391945124,-7.682298130914568,-8.776900709548592,0.0452756658196449,3.420496940612793,1.034645915031433
2.3220407714843763,6.447427834412455,-8.613882230690121,-9.693159229898452,0.4255247414112091,3.0390431880950928,1.1977137327194214
2.3320068359375004,8.06551477344632,-9.708305361104012,-10.084072272151708,0.751330554485321,2.2938711643218994,1.3187111616134644
2.3419729003906227,9.124661423295736,-10.871722532767055,-10.0746135389328,0.9445881247520448,1.398034691810608,1.4086573123931885
2.3519389648437503,9.36749519714713,-11.646163767719267,-9.436866255015136,0.9641048908233644,0.4956853687763214,1.5016402006149292
2.3619047851562502,8.6999910728693,-11.667485957211255,-8.508853583985566,0.7897037863731384,-0.2044077664613723,1.6130799055099487
2.371870849609376,7.203085458439588,-11.131742419219016,-7.435999311301112,0.4064891934394836,-0.5738154649734497,1.699156641960144
2.3818369140625,5.210902756440639,-10.103213025951383,-6.404203609713911,-0.1066542714834213,-0.4666647315025329,1.775856852531433
2.391802734375,3.038945086571574,-8.761936364650726,-5.23992076113224,-0.652385413646698,0.1198518276214599,1.7932063341140747
2.40176806640625,0.7738400541886686,-6.756806502795219,-4.360505240011215,-1.0462205410003662,1.056504249572754,1.7652699947357178
2.41173388671875,-1.080101759594679,-4.3114270285874605,-3.78018138653636,-1.2220786809921265,2.094568014144897,1.769429326057434
2.421699951171874,-1.919316495491564,-1.935328011354804,-3.325564810657501,-1.2227133512496948,2.9758975505828857,1.7959914207458496
2.431665771484374,-1.757397940699011,0.4056938472777605,-2.9659920785635707,-1.102304458618164,3.516906261444092,1.7824749946594238
2.4416318359374998,-1.092786688318476,2.498412560737133,-2.4227865341275927,-0.907159984111786,3.71793794631958,1.7181682586669922
2.451597900390624,-0.5090035612352192,4.3752205785840745,-1.669986053097248,-0.666867196559906,3.551096200942993,1.659525990486145
2.461563720703124,-0.242185831336677,5.913671670845151,-0.9472124615401027,-0.3975425064563751,3.1162750720977783,1.5925421714782717
2.471530029296874,-0.3130158558413386,7.097151971849799,-0.0433452207297086,-0.1309489905834198,2.550584077835083,1.5158491134643557
2.4814960937499997,-0.5459411068797111,7.845877750787139,0.9939543389707804,0.0578137338161468,1.917065978050232,1.446235179901123
2.4914621582031238,-0.8723521586060523,8.516853350567818,2.0461644675552844,0.1178327798843383,1.390352487564087,1.403205394744873
2.5014279785156237,-1.311767512091249,9.072069650793075,3.322720527142286,0.0581849031150341,1.0260077714920044,1.4080013036727903
2.5113937988281254,-1.735113774307072,9.334758464193344,4.475888691991568,-0.1081171557307243,0.8583177924156189,1.4500017166137695
2.5213591308593752,-2.196294969398528,9.566935819473862,5.422153643548488,-0.337571382522583,0.872358500957489,1.515641689300537
2.531324951171875,-2.6176433357954023,9.709783616963028,6.081203243213892,-0.565584123134613,1.0019032955169678,1.5886632204055786
2.5412910156249993,-2.8193074793905017,9.60464975631833,6.315295492205023,-0.7364419102668762,1.1550686359405518,1.6496487855911257
2.551257080078125,-2.934688008761406,9.35028395010531,6.250284967634081,-0.8384846448898315,1.2631938457489014,1.6665589809417725
2.561222900390625,-2.9195559060811997,9.001653467786312,5.986899404141306,-0.867821991443634,1.281907558441162,1.6358284950256348
2.571188964843749,-2.7872321329548955,8.488065062978864,5.564515118825435,-0.8191148638725281,1.194048523902893,1.561980128288269
2.581154785156249,-2.6215298218399283,8.004773012235761,5.111823958051205,-0.7102280855178833,1.031254529953003,1.4615693092346191
2.591121093749999,-2.4947408864870666,7.488208221966028,4.683221528872847,-0.5856441855430603,0.8489020466804504,1.360888957977295
2.601086914062499,-2.4757760737761854,7.010951359733939,4.405866476738453,-0.4538374245166778,0.6534366607666016,1.2585381269454956
2.611052978515623,-2.390029635168612,6.389949458912015,4.065328115460276,-0.3182838559150696,0.4359994232654571,1.1622451543807983
2.621018798828123,-2.390264320707321,5.745858358925581,3.635394145417213,-0.2035053372383117,0.2835230529308319,1.081714391708374
2.630984863281249,-2.6210952298149466,5.304674680593609,3.4065561636924744,-0.1255073696374893,0.2434540092945099,1.0050551891326904
2.640950927734375,-2.867435842743516,4.799961656159162,3.2019886998713014,-0.0813188776373863,0.2892625033855438,0.908789336681366
2.6509157714843763,-2.98564165866822,4.21816013134718,2.907089223217964,-0.0487508177757263,0.4187555313110351,0.8083141446113586
2.6608820800781228,-3.002598638688028,3.5173055261313912,2.607231831896305,-0.0397450700402259,0.559377133846283,0.6926448345184326
2.6708479003906227,-2.9313500965103505,2.9604303527832028,2.170590473169088,-0.0482543297111988,0.6514646410942078,0.554254412651062
2.6808137207031244,-2.7265926630750297,2.383156534528732,1.5012860214710235,-0.0562536641955375,0.734381377696991,0.4052092432975769
2.6907797851562503,-2.27012227602303,1.75782391102612,0.8113128757536411,-0.0208328980952501,0.875203549861908,0.2880147397518158
2.700745849609376,-1.579531290668249,0.9265490282177924,0.346527372559905,0.0299447961151599,0.9848655462265016,0.2394341677427292
2.7107119140625002,-0.6556885257344692,0.0104699560880661,-0.4225643180578947,0.0782262831926345,1.027517795562744,0.2607845962047577
2.720677734375,0.26122677802369,-0.9118336896449328,-1.097077444314957,0.1089114919304847,1.0026816129684448,0.3216977417469024
2.7306437988281242,0.9954912662144748,-1.858669134566188,-1.7813415647357702,0.0954478830099105,0.9021347165107728,0.3923134207725525
2.74060986328125,1.3249058106057343,-2.499507370236516,-2.737973012006283,0.0830767005681991,0.8638864159584045,0.4382092654705047
2.750575927734376,1.3400281225442885,-2.974077185341716,-3.5356676967740057,0.1348237842321396,0.9185642600059508,0.478953093290329
2.7605419921875,1.318776514070481,-3.477960188692808,-4.4797804387331,0.2405848354101181,1.102025270462036,0.5107008814811707
2.770508056640624,1.411632054030895,-3.9061177967131138,-5.29117164041996,0.3742218017578125,1.384522557258606,0.5338733792304993
2.78047412109375,1.6467282193675636,-4.233270022195577,-5.908647120681405,0.5102217793464661,1.6682215929031372,0.5429384708404541
2.7904389648437498,2.6136001978844403,-4.91208932121396,-6.65135700033009,0.6484500765800476,1.9117119312286377,0.5486620664596558
2.8004052734375,4.335091981813311,-6.195786484727263,-7.537181803971529,0.8631400465965271,2.072964906692505,0.6301729083061218
2.810371337890624,6.01951221845448,-7.553675258132815,-8.322475272327662,1.0854533910751345,2.0561635494232178,0.8119085431098938
2.820337158203124,7.433533213448524,-8.826486870494485,-9.03789382494688,1.2084048986434937,1.684516429901123,1.031561017036438
2.8303032226562497,8.371049625882506,-9.909394919681548,-9.749705292984842,1.1262845993041992,1.050246238708496,1.2078142166137695
2.8402692871093738,8.425504854169487,-10.622018288624286,-9.918317061805723,0.8730072379112244,0.3582784235477447,1.3257023096084597
2.8502353515624996,7.402963303139805,-10.752015956890585,-9.690560445576905,0.5115410685539246,-0.1924451440572738,1.3796454668045044
2.8602011718749996,5.574163821658492,-10.222408729696271,-9.130448774525522,0.1026473343372345,-0.4499776363372803,1.3718525171279907
2.8701672363281236,3.4400849238067863,-9.06795461668968,-8.270954928448797,-0.3374744057655334,-0.3495453000068664,1.3652044534683228
2.8801333007812495,1.421040664497763,-7.782901946914196,-7.177080079567432,-0.7422703504562378,0.1754982620477676,1.3949613571166992
2.8900993652343754,-0.1315946186015382,-6.428759958821535,-5.886604800221324,-1.0066109895706177,0.9649962186813354,1.4953423738479614
2.9000651855468753,-1.1492205962672828,-4.947958506974578,-5.001635736626386,-1.1239935159683228,1.84076988697052,1.659974217414856
2.9100310058593752,-1.6711233865641058,-3.511818034631013,-4.085530945533514,-1.1511216163635254,2.6339354515075684,1.7972975969314575
2.9199973144531253,-1.766242487542331,-1.827027211111784,-3.0646891841590405,-1.1533640623092651,3.142794132232666,1.8328012228012085
2.929963134765625,-1.7187398548722266,0.0542944847673177,-2.055386469408869,-1.1275732517242432,3.3404130935668945,1.7687424421310425
2.9399291992187493,-1.6799626727104189,1.8553408669263125,-0.8480313718199729,-1.0464717149734497,3.204885959625244,1.635453701019287
2.949894287109375,-1.557290817287564,3.5899130817025897,0.1141395893990993,-0.9384384751319884,2.828691005706787,1.5042788982391355
2.959860107421875,-1.4720879840373993,5.0080479417562485,1.056482983598113,-0.8378239870071411,2.3458821773529053,1.420855164527893
2.969826171874999,-1.5158390090890228,6.180008485358953,2.028974263301492,-0.7267727851867676,1.9342793226242063,1.4296311140060425
2.979791992187499,-1.6657929853215814,7.073515660196542,3.106230570337176,-0.5810586810112,1.6754536628723145,1.5371410846710205
2.989758300781249,-1.9277473469674584,7.639514051198959,4.084108803775906,-0.4077790975570678,1.5468125343322754,1.696574091911316
2.999724121093749,-2.1585086979702117,8.076038505548238,4.767220831552147,-0.1773959547281265,1.464414358139038,1.8748016357421875
3.0096901855468747,-2.0408844813257456,8.381385141935944,5.190493590140343,0.095072291791439,1.3887851238250732,2.0936193466186523
3.019656249999999,-1.8031117902562024,8.356210953190923,5.458468819510936,0.3600871562957763,1.4253599643707275,2.256291389465332
3.029622314453123,-1.7807772088512777,8.636984289336205,5.982617781299353,0.60090172290802,1.5546969175338743,2.3244309425354004
3.0395883789062488,-1.7788551547475158,8.96709711818993,6.243252000257373,0.8432584404945374,1.6541316509246826,2.319830894470215
3.0495541992187487,-1.472052620463073,9.17582696238756,6.015673078683018,1.1558172702789309,1.6337610483169556,2.3118984699249268
3.0595202636718764,-0.8900951744370162,8.976825900521874,5.56594193675816,1.5462806224822998,1.4310321807861328,2.321624517440796
3.0694863281249987,-0.3989836821146309,8.518557816398143,4.951588387909531,1.8983714580535889,1.0623047351837158,2.275640726089477
3.0794523925781228,-0.231849657696113,8.235561543506384,4.395933111745119,2.1164138317108154,0.6505821347236633,2.1232383251190186
3.0894182128906227,-0.7374462600320577,8.192147933715582,4.326884709960222,2.1430461406707764,0.2989661395549774,1.8230396509170528
3.0993840332031244,-1.5367098015516996,8.198785179772972,4.5710950328618285,1.9305835962295528,-0.0087647717446088,1.407758355140686
3.109350341796876,-1.999042943157256,7.96905814025402,4.375015995922684,1.527549386024475,-0.1392142176628112,0.9832538962364196
3.119316162109376,-2.13123519885838,7.109138177719712,4.46739792702198,1.0452146530151367,0.0198137834668159,0.6750702261924744
3.1292822265625,-1.9859576900042597,5.811901733675599,4.627578552106023,0.5848946571350098,0.4107114672660827,0.5299106240272522
3.139248046875,-1.751709665929526,4.574264895069599,4.275502897769212,0.1893002092838287,0.8839253783226013,0.4582065641880035
3.14921435546875,-1.5436593284286555,4.030271999648213,3.41174847163856,-0.1017378568649292,1.334230661392212,0.3864657580852508
3.15918017578125,-1.2572300123482942,3.905265563797951,2.266711590796709,-0.2519923448562622,1.709067702293396,0.3202278614044189
3.16914599609375,-0.9180798905581236,3.499840012067556,1.135906064403057,-0.2227882146835327,1.9597796201705933,0.2556803226470947
3.179111328125,-0.3217763776630163,2.787164036154747,0.1853606590479612,-0.0754624009132385,1.9729968309402464,0.204550564289093
3.1890771484375,0.4760195024568587,1.929837012723088,-0.7405149999529123,0.085652969777584,1.8263715505599976,0.1567137092351913
3.199043212890624,1.1500246061265469,1.073614735662937,-1.2330395739436149,0.1989683508872985,1.5820097923278809,0.1356563568115234
3.209009033203124,1.6469347017250957,0.0264180513262748,-1.5433604916125534,0.2141371369361877,1.3274333477020264,0.1351065635681152
3.2189750976562497,1.8048041272573168,-0.8936685028791427,-1.8170114285320045,0.1327581256628036,1.1504276990890503,0.1335161328315735
3.2289411621093738,1.7105493880234657,-1.7771090417325497,-2.18772631688714,-0.0256814435124397,1.070770502090454,0.1442640274763107
3.2389069824218737,1.7179706240653991,-2.934431988173723,-2.8797663320064544,-0.2290606647729873,1.134272575378418,0.1568610370159149
3.2488730468749996,1.5733032099336384,-3.991428181990981,-3.8149282902687776,-0.3266319632530212,1.4630858898162842,0.1595708131790161
3.2588391113281236,1.399362355044484,-4.832115036267042,-4.488870338639616,-0.2682757079601288,1.8979026079177856,0.1449069082736969
3.2688054199218737,1.741471911162138,-5.641763778200745,-5.717379283416271,-0.1355698406696319,2.192220687866211,0.1352900266647339
3.2787712402343754,2.500092476648092,-6.774523361271619,-7.214612230104207,0.0958865582942962,2.353498697280884,0.1162220612168312
3.2887373046874995,3.7239629479691385,-8.20552121002972,-8.11594673756659,0.3956466019153595,2.3200371265411377,0.1319996118545532
3.2987033691406253,5.257179354447126,-9.691659346729516,-8.892055028948187,0.645200252532959,2.040536880493164,0.281751811504364
3.3086691894531253,6.672087069147825,-11.33666293426156,-9.347816683208942,0.7287979125976562,1.55398428440094,0.5726544260978699
3.3186352539062494,7.330737440362572,-12.693313690304755,-9.342775766432284,0.5289719104766846,0.9366693496704102,0.912697732448578
3.3286013183593752,6.876103913348913,-13.18242173385024,-8.907813154572247,-0.0063825007528066,0.3953588008880615,1.1969339847564695
3.3385673828124993,5.475522245642543,-12.887337548279762,-8.013733732804656,-0.7089712619781494,0.1549682915210724,1.4244697093963623
3.3485332031249992,3.154598003143072,-11.910583934956788,-6.791341225081681,-1.3450870513916016,0.3471198379993438,1.6106723546981812
3.358499267578125,0.5235198701046407,-10.394813461059332,-5.227016855895519,-1.8612180948257449,1.022982478141785,1.717776894569397
3.368465332031249,-1.5356389574497935,-8.04313693742156,-3.222078717219829,-2.331937074661255,1.9983916282653809,1.7634685039520264
3.378431152343749,-2.5854797265544534,-5.514843033161759,-1.3985919551938772,-2.739206075668335,2.8769845962524414,1.779179573059082
3.388397216796875,-2.5914289903476835,-3.231706377264857,-0.4581698844462633,-3.0263705253601074,3.487023115158081,1.7566813230514526
3.398363037109375,-1.9268615040436383,-1.154118012920022,0.2464928808808326,-3.179072856903076,3.7681052684783936,1.7476140260696411
3.408329345703123,-1.0539992770235984,0.6306003347724676,0.8961977290958165,-3.219609498977661,3.706111907958984,1.802262544631958
3.418295166015623,-0.2738137993309646,2.2189158203989265,1.3523720558106898,-3.166795492172241,3.3185901641845703,1.9184762239456177
3.428261230468749,0.1444342994956299,3.561450957328081,1.758058888825774,-3.032060146331787,2.7602667808532715,2.0801215171813965
3.4382263183593746,0.0121897656179964,4.67489910620749,2.318577387112379,-2.8532657623291016,2.1954824924468994,2.2376914024353027
3.4481921386718764,-0.6065890157943591,5.635436913266778,3.050899728259444,-2.654940128326416,1.6929107904434204,2.324784278869629
3.4581582031249987,-1.5555258534416556,6.3388382803559296,3.600136954075098,-2.430895566940308,1.3009341955184937,2.309369802474976
3.4681240234375004,-2.380758679606765,6.671558076837658,4.071231202024221,-2.2040345668792725,1.066331386566162,2.218189239501953
3.4780903320312504,-2.936103136256337,6.813406341895461,4.690988655743003,-1.9823187589645384,0.9749118089675904,2.098140239715576
3.4880561523437503,-3.170593444654345,6.782426097220182,5.235061046141386,-1.7650076150894165,1.022640347480774,1.961609363555908
3.4980219726562503,-3.1227190560624,6.7248197114259,5.731428267034888,-1.5510133504867554,1.115372657775879,1.826706886291504
3.5079882812500003,-2.730341201953589,6.52560003837347,5.7538014268845314,-1.3133835792541504,1.1673705577850342,1.7164099216461182
3.5179543457031244,-2.050429139262438,6.139572430074215,5.658859289908409,-1.020235896110535,1.1886451244354248,1.6427242755889893
3.5279204101562502,-1.3843784286633134,5.728139746883511,5.565992790162563,-0.7100868225097656,1.1433619260787964,1.5937916040420532
3.53788623046875,-0.876094998396188,5.422508448335528,5.304179590553045,-0.3980804979801178,1.0380083322525024,1.5352116823196411
3.547852294921876,-0.4476422068215906,5.081704714119434,5.040003168943524,-0.0870735570788383,0.8941776156425476,1.4630532264709473
3.557818359375,-0.3637210108797997,4.737574465829134,4.797679682701826,0.1739290058612823,0.7157868146896362,1.3238301277160645
3.5677841796875,-0.4647152875017374,4.709238013660907,4.354015877991914,0.4299252331256866,0.5734063982963562,1.1528854370117188
3.577750244140624,-0.7205153643015771,4.491555047678947,4.126339341261983,0.6577887535095215,0.4506402611732483,0.9761663675308228
3.587716064453124,-0.981862699965015,4.279565324902534,3.860648423436284,0.8067854642868042,0.3399622440338135,0.7780327796936035
3.597682373046876,-1.2931840999133883,4.118027439990639,3.560682311043143,0.8807997703552246,0.2722058296203613,0.5618775486946106
3.607648193359376,-1.4502216046661138,3.910135800182819,3.420398226562142,0.8740488886833191,0.2779980897903442,0.375232994556427
3.6176142578125,-1.4110174292638895,3.599202303573489,3.3696365920960902,0.7983341217041016,0.3422857224941253,0.2493408322334289
3.627580078125,-1.2286753873847425,3.1159745502382514,3.1255928579330443,0.7069149613380432,0.4655050933361053,0.1721211075782776
3.637546142578124,-1.1120787602223454,2.742664969214797,2.721595293179154,0.6655475497245789,0.6569019556045532,0.1463632881641388
3.64751220703125,-1.011881333066523,2.375680499559641,2.2671616726517674,0.7040753364562988,0.8541310429573059,0.1499973088502884
3.6574780273437497,-0.7356621530942619,1.6397294465214014,1.5852175196111202,0.7927346229553223,0.915626347064972,0.1704996526241302
3.667444091796874,-0.5361141614029183,0.9620663318008184,0.6510439878642559,0.869901180267334,0.8434677720069885,0.166768342256546
3.6774101562499997,-0.4432786778498441,0.3802005095809698,-0.1953355250954628,0.9150012731552124,0.6951829791069031,0.1181092038750648
3.6873762207031238,-0.5493295802742243,-0.1746656620323657,-0.9143202457636594,0.9049391746520996,0.5007064938545227,0.0189310759305953
3.6973420410156237,-0.7977886466614902,-0.7276257077634334,-1.61265205450356,0.7854172587394714,0.2848991155624389,-0.1100431531667709
3.7073081054687496,-1.2438801169097422,-0.9898767142683268,-2.262256364953518,0.549214780330658,0.1161925196647644,-0.2465787976980209
3.7172744140624996,-1.5892881300508974,-1.309241939136386,-2.8789737203240398,0.2915653884410858,0.1086800098419189,-0.343940794467926
3.7272402343749995,-1.4730889777734877,-2.201945396375656,-3.423902435290813,0.0421777330338954,0.3105067908763885,-0.3756633400917053
3.7372062988281254,-1.2881228710010646,-2.9921248832076786,-4.080069172996282,-0.1176097989082336,0.7064067125320435,-0.3330873847007751
3.7471721191406253,-1.213409502257034,-3.344533130499721,-4.5833390128850935,-0.2011263519525528,1.1257504224777222,-0.2349557876586914
3.7571384277343753,-0.6561488367225975,-3.466068675369024,-5.577415516930818,-0.1691194027662277,1.4238423109054563,-0.0795898884534835
3.7671042480468753,0.5044977742485701,-3.992240667417645,-6.658412764060497,-0.0222653895616531,1.5727988481521606,0.1233193725347518
3.7770703124999994,2.3086115811541674,-5.232893638974428,-7.460778947770595,0.1649404615163803,1.4866751432418823,0.4047715663909912
3.7870361328124993,4.315132020585239,-6.949901555487513,-8.136679144471882,0.3184508383274078,1.1562554836273191,0.7683794498443604
3.797008056640623,5.400692922368646,-8.086583280438184,-8.29192640480697,0.330464094877243,0.5856493711471558,1.1384072303771973
3.8069738769531227,5.398014643070101,-8.182567619943619,-8.109933176365494,0.1178262680768966,-0.1069338768720626,1.4112052917480469
3.8169399414062504,5.089524447959661,-8.099660788676141,-7.526064197629689,-0.3733136057853699,-0.8539736866950989,1.605004906654358
3.8269060058593762,4.616722227048873,-8.343354978749156,-7.043942944231629,-1.0532656908035278,-1.4065749645233154,1.7758809328079224
3.836871826171876,3.4452181950420138,-8.41028331964016,-6.192041452980041,-1.6976449489593506,-1.585113525390625,1.964499831199646
3.8468378906250003,1.574579805740714,-7.845963090983033,-5.03493653320372,-2.259588718414306,-1.2659902572631836,2.055460214614868
3.8568039550781243,-0.5997143442519008,-6.447334310910105,-3.635352059841156,-2.717672824859619,-0.5428565144538879,2.051199436187744
3.86677001953125,-2.24789115499258,-4.942889533147215,-2.3863877715349195,-3.05004358291626,0.3553378880023956,2.040000438690185
3.87673583984375,-2.950709169235825,-3.531868304491043,-1.30582131703794,-3.288087844848633,1.2292369604110718,2.0493552684783936
3.88670166015625,-2.80481162878722,-2.174585680285096,-0.2483756258875131,-3.4665122032165527,1.8069429397583008,2.010389566421509
3.8966682128906243,-2.0561181446842847,-0.8028045751273631,0.1521662454545498,-3.5179312229156494,1.905932664871216,1.891157150268555
3.906634033203124,-1.5211830004654825,0.210007024526596,-0.2083557501882314,-3.3267593383789062,1.5781161785125732,1.7080016136169434
3.91660009765625,-1.3466867036506531,0.9045718819484114,-0.808767282924056,-2.8060524463653564,0.8409360647201538,1.4998228549957275
3.92656591796875,-1.4706703723244368,1.4045871039554476,-1.7275211272209885,-2.0118401050567627,-0.1512933522462844,1.307203769683838
3.9365322265625,-1.926483902902901,1.8164064483761784,-1.9281518361151215,-1.1702980995178225,-1.0976969003677368,1.1352556943893433
3.946498046875,-2.3689453460857277,2.295901444923877,-0.9827151520758868,-0.4295525848865509,-1.7551143169403076,0.9838587045669556
3.9564638671875,-2.862652115598321,2.924457122126221,0.7434498843610287,0.1129868552088737,-1.9847445487976076,0.8462124466896057
3.966429931640624,-3.1277132110878823,3.5061595704779025,2.554286423650384,0.4776809215545654,-1.8170359134674072,0.6953614950180054
3.97639599609375,-3.053402650991082,3.778371122244,4.079284744620323,0.7318298816680908,-1.3225088119506836,0.5830056667327881
3.986362060546874,-2.596252757242322,3.649730713805556,5.263703787779808,0.9190118312835692,-0.6731568574905396,0.5161620378494263
3.996327880859374,-1.7931664425641298,3.503231115810573,5.981639876177907,1.0827394723892212,-0.0503675416111946,0.4710938632488251
4.0062939453125,-0.7198693214830011,3.5019188641682266,6.217585059559345,1.2764967679977417,0.3981748819351196,0.4364931583404541
4.016260009765624,0.4781064647987484,3.4774762045681475,6.125322370925545,1.5191742181777954,0.6222860217094421,0.4162914752960205
4.02622607421875,1.5231497704938053,3.462015600585937,6.071426530086994,1.75095796585083,0.6247103810310364,0.4191195368766784
4.03619189453125,2.1375576798781752,3.561586566406488,5.988455985933542,1.929583549499512,0.4504906237125397,0.3861919343471527
4.0461577148437495,2.297599773274362,3.832020294845104,6.045668403974175,2.049947023391724,0.2431202828884124,0.3061840534210205
4.0561240234375,2.1831424962282178,3.9108641144573686,6.395307771074772,2.0902462005615234,0.0701708793640136,0.2219839692115783
4.0660898437499995,1.7290049360379576,3.957917542055249,6.776086372804642,2.0248231887817383,-0.0257403589785099,0.0967278927564621
4.076055908203125,1.1855275158580392,4.165134059080481,7.083395249176025,1.8579463958740237,-0.0168667063117027,-0.0608577355742454
4.086021728515625,0.5856421258881688,4.182950870800018,7.303572370061278,1.5989234447479248,0.1113414242863655,-0.2490041106939315
4.0959882812499995,0.040065760667622,4.250024757641554,7.286142511832714,1.3005088567733765,0.3299717903137207,-0.4418052732944488
4.105954101562499,-0.3447657697148621,4.361209588888287,6.989517526561022,1.0454760789871216,0.6053018569946289,-0.5978593230247498
4.115919921874999,-0.4290311759844422,4.176895224022865,6.373083079785109,0.9037474393844604,0.8620074391365051,-0.6661151051521301
4.125885986328125,-0.1555140945777297,3.521416468581557,5.474617990279198,0.8867592215538025,1.064139485359192,-0.6759241223335266
4.135852050781249,0.3134288936216384,2.8359406342834235,4.428629512688517,0.9604188203811646,1.194149136543274,-0.6151835322380066
4.145818115234375,0.5972906242363154,2.088909384304285,3.372499580311775,1.0308372974395752,1.2927970886230469,-0.5265733003616333
4.155783935546875,0.6724411422885954,1.3139157761663198,2.490952307859063,1.0543665885925293,1.372679352760315,-0.4546911418437958
4.165749999999999,0.6688900987435132,0.5319605123221874,1.6598434292674065,0.9880749583244324,1.3238823413848877,-0.4007056951522827
4.175716064453125,0.4887675595447421,-0.2220534361511468,0.5075052855014801,0.829164981842041,1.143326759338379,-0.3655945658683777
4.185681884765623,-0.0397148831370286,-0.7809124767929315,-0.5642945096939802,0.558725893497467,0.8642579913139343,-0.3784604668617248
4.195647949218749,-0.7261579732984303,-1.3564181163311004,-1.7744436219155788,0.2025667428970337,0.552266538143158,-0.4535155296325683
4.205613769531249,-1.1759885570097717,-2.0644389599144457,-3.218166512212157,-0.164454698562622,0.3387408554553985,-0.5691453218460083
4.215580078124999,-1.385444012068212,-2.849376454439759,-4.682169973993301,-0.4199416041374206,0.366241991519928,-0.6436161398887634
4.225545898437499,-1.5419645072095096,-3.5266865179389715,-5.786383846059441,-0.5125229954719543,0.6200575232505798,-0.6781750917434692
4.235511962890623,-1.674273813419044,-3.517695402231812,-6.706619453346729,-0.4190753400325775,1.0011777877807615,-0.6706228852272034
4.245477783203123,-1.2090214233659209,-3.590697510078549,-7.580595413762331,-0.173189178109169,1.2687585353851318,-0.5391148924827576
4.255443847656249,0.4265547759335488,-4.84603074889481,-8.55372148423791,0.1355896890163421,1.3598536252975464,-0.32296022772789
4.265409912109375,2.565955526395142,-6.344096054753661,-9.086505003380775,0.3956660032272339,1.2056303024291992,-0.0543085113167762
4.275375732421876,4.364176329739392,-7.51479812272787,-9.148193690052628,0.5411019921302795,0.8446611762046814,0.2416424453258514
4.285341796874999,5.473495708250999,-8.059555572780967,-8.42908212813437,0.5417450666427612,0.2861196994781494,0.5310479998588562
4.295307861328123,5.910754322093725,-8.085572642090916,-7.29543640987873,0.3195660412311554,-0.4922312200069427,0.7898595929145813
4.305274169921876,5.869568325224519,-7.80161892234385,-6.217096399259567,-0.2039003521203994,-1.299291968345642,1.019194722175598
4.315239990234376,5.405023645049333,-7.261822894090414,-4.68064203377366,-0.9898836016654968,-1.8678767681121824,1.263966679573059
4.3252060546875,4.144153522633016,-6.284149243313074,-2.9735441013783213,-1.791660189628601,-2.0094540119171143,1.4943220615386963
4.335172119140623,2.3472525697156787,-4.750827915155887,-1.3813959057211875,-2.4656832218170166,-1.7430590391159058,1.6877365112304688
4.345137939453123,0.7371563371747731,-3.2044846083402634,0.0467523988246917,-3.004149436950684,-1.2050716876983645,1.824127197265625
4.35510400390625,-0.4916504945699125,-1.4245412199646237,1.1686708544075488,-3.401001214981079,-0.5202609300613403,1.896770715713501
4.365070068359376,-1.3431217046454549,0.2370914308071136,2.053961989563704,-3.6522624492645264,0.2248272597789764,1.904923915863037
4.3750361328125,-1.8049694008216264,1.6941607094109057,2.758376917609572,-3.7497987747192383,0.9015812277793884,1.900373935699463
4.385001953125,-1.6341601219564674,2.39125508531034,2.9410335783958432,-3.655738353729248,1.3920120000839231,1.9153738021850584
4.394968017578124,-1.2344453490883112,2.622520878703892,2.8401684811115264,-3.3852102756500244,1.593702793121338,1.9049110412597656
4.40493408203125,-1.1334539950758218,2.9172178185224533,2.5808055972635744,-2.951192140579224,1.480860948562622,1.82663094997406
4.41489990234375,-1.254308718074113,3.183852446939051,2.068474499040842,-2.3561408519744877,1.07244074344635,1.6777669191360474
4.424865966796876,-1.5693030343815684,3.138318776254356,1.6567577382117509,-1.652976155281067,0.5453146696090698,1.470055341720581
4.434831787109376,-1.8003920099034905,2.893046669340133,1.7593582809865471,-0.9488362073898317,0.0506152212619781,1.23035991191864
4.444798095703124,-1.7924580020338297,2.6045190658062696,2.218153603854775,-0.2973091900348663,-0.3309092223644256,0.9764441847801208
4.454763916015624,-1.627288190360367,2.374642388683557,2.868513701108098,0.2805355191230774,-0.5679097771644592,0.736509382724762
4.46472998046875,-1.325426473478973,2.005646286945045,3.604060264998674,0.7742699980735779,-0.6645997166633606,0.5251448154449463
4.47469580078125,-0.821987268372625,1.7171029013201593,4.401519971966743,1.1406879425048828,-0.671369731426239,0.3426074981689453
4.484661865234374,-0.2695440861225128,1.5029291125029325,5.001962484362721,1.367164134979248,-0.6349578499794006,0.1958175897598266
4.4946279296875,0.2563480660714209,1.3394994224950671,5.534321640613674,1.4503117799758911,-0.5205923914909363,0.0849853605031967
4.50459375,0.6952407839220017,1.317210433797538,6.104952367591857,1.406885862350464,-0.3663528859615326,0.0124947912991046
4.514559814453124,1.0373513629529625,1.2506795677915217,6.37037498987019,1.271894931793213,-0.2270924746990203,-0.0245537739247083
4.524526123046874,1.3133829844638705,1.2735869806483386,6.366224884453415,1.075334072113037,-0.1431041806936264,-0.0445640049874782
4.5344921875,1.503495221953094,1.5628008128806947,6.081997023940086,0.859139084815979,-0.1173980236053466,-0.060823667794466
4.5444580078125,1.5155455791004002,1.8463164334714413,5.5594601735234255,0.6865738034248352,-0.0159153193235397,-0.0614367946982383
4.554423828125,1.2308338805928825,2.064355081023276,5.267681459239125,0.5846413373947144,0.1733672618865966,-0.0668699145317077
4.56439013671875,0.8306281093373894,2.3507614546194677,4.716367427149415,0.5424743294715881,0.4247790873050689,-0.1044416651129722
4.5743559570312495,0.2811936073839664,2.770828110642731,4.058259492248297,0.5740042924880981,0.7482567429542542,-0.1832736134529113
4.584322998046874,-0.1401071204788982,3.138791946724057,3.3582711484730243,0.7224677801132202,1.0758919715881348,-0.2305817604064941
4.594288818359374,-0.2921377568550408,3.199828891488909,2.6768945661872623,0.9770654439926147,1.325440526008606,-0.2251039147377014
4.6042548828125,-0.2060845903858542,3.0564526862114665,1.7721072879225015,1.2838804721832275,1.4465874433517456,-0.1685622930526733
4.614220947265624,-0.0402507618457078,2.7622949678361413,1.0144915155649186,1.5595152378082275,1.4146203994750977,-0.096642293035984
4.62418701171875,0.2641429942639544,2.446252165389061,0.4612286874949932,1.700146198272705,1.1765902042388916,-0.0489769130945205
4.6341528320312495,0.542154756741412,1.9119693475991488,-0.230628372272849,1.682946801185608,0.7965919971466064,-0.0179673321545124
4.644118896484375,0.5619836389357223,1.2223802327632904,-0.977143489423394,1.5987616777420044,0.4185423254966736,-0.014138052240014
4.6540849609374995,0.1957068608921952,0.4075917898535728,-1.7143045027732848,1.457504153251648,0.1532813757658004,-0.0266130976378917
4.664050781249999,-0.4242351008143276,-0.5508914227634668,-2.371853050225973,1.2407112121582031,0.1444452553987503,-0.0823920369148254
4.674016845703125,-1.4154922365903853,-1.0871949327260255,-2.7717081083476542,0.9649624824523926,0.3686796724796295,-0.2047863900661468
4.683982666015625,-2.240615757162124,-1.626025915339589,-3.484700310602784,0.6845609545707703,0.7506325244903564,-0.3092020750045776
4.693949218749999,-2.4584242492198944,-2.6828251252800226,-4.414387636846303,0.4256673455238342,1.174446702003479,-0.3530744612216949
4.703915039062499,-2.444355391857028,-3.640703357741237,-5.615038852882385,0.2792872786521911,1.5415042638778689,-0.3394500017166137
4.713881103515625,-2.555894443368912,-3.966750252330303,-6.600450404435396,0.2956111133098602,1.8362869024276731,-0.2581631541252136
4.723846923828125,-2.3884759759858247,-4.385384829723835,-7.28355775603652,0.4081997275352478,1.9294084310531616,-0.1995387524366378
4.733812988281249,-1.3922607063457368,-5.13976878055334,-8.112585152179003,0.579884946346283,1.7404865026474,-0.1811206042766571
4.743779052734375,0.1806334843955934,-6.4596086860716335,-8.839003822240233,0.7232066988945007,1.325717210769653,-0.1027270033955574
4.753744873046875,1.6477461642384528,-7.882569943368434,-8.865929238566755,0.7174454927444458,0.7472645044326782,0.0115303276106715
4.763710937499999,2.302114328089356,-8.393221125680208,-8.335694819384813,0.5488377809524536,0.1592385321855545,0.0923306494951248
4.773677001953123,2.20663253127858,-8.321125026762486,-7.235241176635027,0.2185221761465072,-0.3669725358486175,0.1028402745723724
4.783643066406249,2.032153185598552,-8.06648449526131,-6.04334551398456,-0.2514759004116058,-0.7555680274963379,0.1313747316598892
4.793608886718749,1.9792410951003432,-7.837310997971892,-4.7443280317425724,-0.7760629653930664,-0.952080249786377,0.2857760190963745
4.803568603515625,1.8998437332585452,-7.590016153058409,-3.6388960160583257,-1.2306112051010132,-0.9443886876106262,0.5426532626152039
4.813534667968749,1.565749579683691,-6.783072578430176,-2.6836908021986483,-1.5578620433807373,-0.7897607684135437,0.8310714960098267
4.823500732421875,1.2593005350120363,-5.74283930336535,-1.7851959020763637,-1.7666138410568235,-0.5820883512496948,1.107332706451416
4.833466552734375,0.942425957915932,-4.592101580533385,-0.9909890594244004,-1.8799002170562744,-0.427660197019577,1.3231468200683594
4.843432617187499,0.4709841021055355,-3.234377057778835,-0.3631587738871574,-1.878271579742432,-0.31804358959198,1.4426714181900024
4.853398681640625,-0.0909283256243448,-1.928617700061202,0.3117220166385173,-1.780490756034851,-0.2803769111633301,1.447641372680664
4.863364501953125,-0.6844057208485901,-0.4676280331432819,1.0437345611840485,-1.5861313343048096,-0.380668580532074,1.3516818284988403
4.873330566406249,-1.0913045600019395,0.9310609526842832,1.580402228283882,-1.2964931726455688,-0.5983461141586304,1.200880527496338
4.883296386718749,-1.3896721511572598,2.0258318736225367,2.1901929992616176,-0.9184780120849608,-0.9167654514312744,1.0395264625549316
4.893262695312499,-1.639152961807698,2.931292521104216,2.82063551312387,-0.5068955421447754,-1.2784384489059448,0.8819881677627563
4.903228515624999,-1.812413140956312,3.684157884064316,3.504449551689625,-0.0838570594787597,-1.6262736320495603,0.7082750797271729
4.913195800781249,-2.0223636129900813,4.548836439302564,4.254481737050414,0.2971661984920501,-1.9294345378875728,0.4976565539836883
4.923161621093749,-2.020321293507516,5.504355541417002,4.811879472967982,0.6314166188240051,-2.176509380340576,0.2550016045570373
4.933127685546875,-1.6282295628637071,6.161559805476665,5.095500015237927,0.9688782691955566,-2.381162405014038,0.0087801134213805
4.943093749999999,-0.9905077056482434,6.404938353729247,5.0137324171334505,1.3555724620819092,-2.483481407165528,-0.2013850659132003
4.953059570312499,-0.2971291354015469,6.370832670509815,5.156520008867979,1.7304887771606443,-2.447115898132324,-0.343430608510971
4.963025634765623,0.5227909713082015,6.170604697197676,5.43990498881638,2.0358474254608154,-2.3062374591827397,-0.4350278377532959
4.972991455078123,1.1217261478811502,5.9462540900200604,5.859508118981123,2.231645107269287,-2.039836883544922,-0.4765143096446991
4.982957763671875,1.5586743806004524,5.753090648266673,6.612903058773279,2.2854666709899902,-1.718177318572998,-0.4921948611736297
4.992923583984375,2.065265473866462,5.514837187942862,7.109708671084046,2.207706451416016,-1.4404144287109375,-0.506860077381134
