time,ax,ay,az,gx,gy,gz
0.0,-0.0271070565037429,-2.6891750788286326,-6.286120835646987,-1.20391583442688,2.0291664600372314,-1.1112463474273682
0.009965820312501705,2.052816765051335,-3.5278614069372414,-6.773112325429916,-0.935440719127655,2.0615222454071045,-0.3464154303073883
0.019932861328125995,3.1605928596436974,-3.677674075002968,-7.207307460048795,-0.6026678085327148,1.6891573667526243,0.3516760468482971
0.02989892578125719,3.238700181674957,-3.4369103854238987,-7.0785565769732,-0.2177704423666,1.0633856058120728,0.8514072895050049
0.03986499023437773,2.93710383773148,-3.157708828639984,-6.950270973321795,0.1106652170419693,0.2712203562259674,1.078166127204895
0.04983178710937608,2.23524253969118,-2.822894982488453,-6.805803465676307,0.3680514395236969,-0.5558893084526062,1.0545125007629397
0.05979785156250372,1.2504723547816277,-2.5209607848927376,-6.389274920651316,0.613006591796875,-1.2408034801483154,0.8845072984695435
0.06976367187500188,0.266043092264235,-2.457850248724222,-5.424291824620962,0.8521728515625,-1.6155027151107788,0.6743196249008179
0.0797309570312521,-0.5248188238739967,-2.241190780571103,-3.939833019310236,1.0134520530700684,-1.650285243988037,0.4918297231197357
0.0896970214843762,-0.8489180915266274,-1.9895888861134647,-2.2054835073739287,1.027229070663452,-1.3842829465866089,0.391389936208725
0.09966406250000404,-0.6953975088536739,-1.6740017184793947,-0.3605956454008817,0.8956159353256226,-0.9148736000061036,0.389299064874649
0.10962988281250219,-0.2754921808719635,-1.1800187623739242,1.2111585815250874,0.6683701872825623,-0.377582848072052,0.4675601720809936
0.11959594726562628,0.3341764250308275,-0.6190341078802943,2.4587889908790586,0.4278385639190674,0.1340564489364624,0.6002210378646851
0.12956274414062818,1.087857049896568,-0.0973763783857226,3.301990458324551,0.2191519737243652,0.5497776865959167,0.7561218738555908
0.13952880859374872,1.785308714801073,0.3886196706190705,3.942838630867004,0.0689973682165145,0.8381357192993164,0.92682945728302
0.14949487304687636,2.3622851575441657,0.8209519339755177,4.381076318874955,0.0157718043774366,0.9940783381462096,1.1015310287475586
0.1594621582031266,2.787116689881682,1.2993880691200494,4.777720598256588,0.025618840008974,1.0512877702713013,1.254912495613098
0.1694279785156283,2.777318349444866,1.8147493288189167,5.115378435662389,0.0679407343268394,1.0314289331436155,1.3344978094100952
0.17939404296874883,2.430918110395968,2.35796481012702,5.268896680247783,0.1461782902479171,0.928295075893402,1.2930614948272705
0.18936083984375074,2.040184516362846,2.712067586377263,5.256580219510197,0.2476640045642852,0.7371716499328613,1.1336675882339478
0.19932690429687838,1.8302606400750576,2.8828166594877835,5.293339047586918,0.3565137982368469,0.5030003786087036,0.9349974393844604
0.20929296875000247,1.82698717136234,2.9912188742786645,5.469814973911642,0.4491323232650757,0.2747481167316437,0.7581192255020142
0.21925976562500082,1.8541382131382824,3.027212563201785,5.735816857382655,0.5074542164802551,0.0938425064086914,0.6346327066421509
0.22922583007812847,1.8914470763131972,3.0607576899290083,6.022796062430739,0.5146193504333496,0.002758583985269,0.5868726372718811
0.23919189453125256,1.8433897323697803,3.0189225815013048,6.276936243194341,0.4957044720649719,0.0352733843028545,0.623942494392395
0.24915869140625446,1.7809141331039369,2.9380846654623745,6.4687441786855455,0.4766020774841308,0.1635792553424835,0.7226577997207642
0.25912500000000094,1.6125794276587664,2.817783630824089,6.357236691355705,0.4616114199161529,0.3280158638954162,0.8330096006393433
0.26909082031250264,1.3777794687896967,2.783740199185908,6.097874976551532,0.4373092651367187,0.5112171173095703,0.9035042524337769
0.27905786132812693,1.1751378584645689,2.674552386975288,5.576513015133142,0.4143916964530945,0.669187068939209,0.9413357377052308
0.2890239257812546,0.963445511199534,2.3506281836286185,4.9146027653396125,0.410332053899765,0.8104801774024963,0.9320369362831116
0.29898999023437867,0.9374902550794184,1.9290631057411431,4.115699873825908,0.4273424744606018,0.8846036791801453,0.8625662326812744
0.308956787109377,1.0323184102870524,1.2552750788882374,2.881708113723993,0.469910055398941,0.8346617817878723,0.7689590454101562
0.3189228515625011,1.0250674162454902,0.5586565038070083,1.6699626722216605,0.5093978047370911,0.6930053234100342,0.6523565649986267
0.3288886718750028,0.910666253300756,0.0152963533312082,0.2988683802843093,0.4799527525901794,0.4667038023471832,0.4886894822120666
0.3388557128906271,0.6625220980815589,-0.3218520732477307,-1.0792910277336836,0.4101065695285797,0.2442150563001632,0.2537816166877746
0.34882202148437713,0.3140766169406473,-0.5730705213457346,-2.2575684993982312,0.2974602878093719,0.0597915649414062,0.0133975613862276
0.35878930664062736,-0.2130278336524963,-0.7987263659030198,-3.479401035150885,0.0827405303716659,-0.0378950461745262,-0.2024479210376739
0.3687561035156257,-0.4207036387525498,-1.0031704956054688,-4.879999653992057,-0.230776309967041,0.0211804807186126,-0.3838221430778503
0.37872216796875335,-0.4036883526742458,-1.7885235851943493,-6.32983021351397,-0.5360171794891357,0.2920378148555755,-0.4918615520000458
0.38868823242187744,-1.4005753840960562,-1.402954826578498,-6.994124728095531,-0.7251996397972107,0.7098662257194519,-0.4720038473606109
0.3986550292968758,-3.1143203532904384,0.5030971136704087,-7.380286191907524,-0.8382196426391602,1.127358317375183,-0.3698732256889343
0.4086210937499999,-3.693968499460816,1.6635098428204655,-8.145959598514438,-0.8806201219558716,1.5207386016845703,-0.3384170532226562
0.4185869140625016,-3.490039918065071,1.9888748926252124,-8.98559957408607,-0.7258678078651428,1.8392471075057983,-0.3582094013690948
0.42855419921874827,-2.724604411867261,1.9969144066959617,-9.676035661140084,-0.2998974919319153,2.030600547790528,-0.3262735903263092
0.4385202636718759,-1.2946139865860342,1.1610229700028896,-10.007335069429876,0.3337281942367553,2.016453742980957,-0.229744404554367
0.448486328125,0.148711721086502,0.0749137866869568,-10.03475849840641,0.9658381342887878,1.7446026802062988,-0.1688810288906097
0.4584531250000019,1.0360382345277817,-0.5234221088185906,-9.216421423104403,1.446297287940979,1.2916676998138428,-0.1655446290969848
0.468419189453126,1.387199477433413,-0.8374486030071974,-7.866085257035493,1.7335269451141355,0.7095595598220825,-0.1734270602464676
0.4783850097656277,1.474466403606534,-0.8513067402288317,-6.351421867597103,1.766410231590271,0.0294734574854373,-0.1929043531417846
0.488352050781252,1.296641985282302,-1.0068538602933288,-4.717780216556787,1.5563502311706543,-0.6205734610557556,-0.22579325735569
0.4983181152343761,1.033292150690034,-1.1488415338218212,-3.15012582616508,1.155683517456055,-1.1473954916000366,-0.2444505840539932
0.5082844238281261,0.7655922311294824,-1.3523375690191983,-1.826227000644803,0.6524698734283447,-1.4330250024795532,-0.2023981511592865
0.518251220703128,0.4624908163852989,-1.524625396004319,-0.5378934095025062,0.1845311522483825,-1.404746174812317,-0.1126906424760818
0.5282172851562521,0.1080916144717484,-1.508392638605833,0.4401929137289523,-0.2077114433050155,-1.1816649436950684,-0.0114084566012024
0.5381831054687538,-0.1973223880637437,-1.2855740633010864,1.2207225286841392,-0.5264593362808228,-0.8406046032905579,0.0742795541882515
0.5481501464843781,-0.2716094942197203,-0.9789426477998494,1.9425544554769991,-0.8117659687995911,-0.4941698908805847,0.1358397454023361
0.5581162109375022,-0.0826527103759348,-0.6523340276747942,2.5543185723543167,-1.0654698610305786,-0.1932321637868881,0.1738433241844177
0.5680822753906263,0.3040178720019758,-0.3339294645324349,3.124149673387408,-1.2819825410842896,0.0012273902539163,0.2129263430833816
0.5780490722656282,0.6669144878216088,-0.0634717706963419,3.5388621089011427,-1.4547724723815918,0.0900949463248252,0.2712181210517883
0.5880151367187487,0.9155138394623994,0.261686358359456,3.8810821396559474,-1.5679632425308228,0.0744936913251876,0.3418795764446258
0.5979809570312575,1.0955212278489024,0.54741644012928,4.2301761478334665,-1.6431783437728882,0.0037494811695069,0.4046428203582763
0.6079482421875007,1.144113920778036,0.7573474768102169,4.453870921450853,-1.6700671911239624,-0.1330336928367614,0.4692740142345428
0.6179143066406283,0.9873824132345616,1.0637886304363608,4.644602167621255,-1.6480830907821655,-0.3071253299713135,0.5204237699508667
0.6278801269531264,0.7247082128815352,1.3000181837171316,4.710990410286188,-1.5982590913772583,-0.5232573747634888,0.5478242039680481
0.6378461914062541,0.4720736143752932,1.408495509570837,4.651223631587624,-1.5114405155181885,-0.7500234246253967,0.5589567422866821
0.6478132324218784,0.1674943090982735,1.5448565753892065,4.649644253441691,-1.4016486406326294,-0.9527015089988708,0.5646268725395203
0.6577790527343765,-0.2683566299036145,1.6777756840601563,4.666316571301222,-1.2686679363250732,-1.0810270309448242,0.5410634875297546
0.6677451171875006,-0.6093683077819645,1.7414312868908046,4.743096444121003,-1.124408721923828,-1.1111499071121216,0.4875462353229522
0.6777119140625025,-0.904110109655559,1.7733552421569825,4.694339719736576,-0.9823343753814696,-1.0871137380599976,0.4235363602638244
0.6876782226562526,-1.0538345149159432,1.8392735292226077,4.652360526663065,-0.8180186152458191,-0.9981511235237122,0.3632038533687591
0.6976442871093766,-1.001908074454218,1.759860385289788,4.681882973745465,-0.6481635570526123,-0.8584345579147339,0.3434999287128448
0.7076113281250009,-0.8397498656868934,1.6437001037180423,4.674620289266109,-0.4916038513183594,-0.7064092755317688,0.3473612368106842
0.7175771484375026,-0.7067021622002124,1.6692784893497823,4.716043602022529,-0.3492445647716522,-0.5683366060256958,0.339795172214508
0.7275429687500008,-0.5805141153499483,1.653555727300048,4.627455217987299,-0.2098839879035949,-0.505843997001648,0.3037161827087402
0.7375100097656286,-0.5532042297504842,1.533990021198988,4.455139918473363,-0.0577261410653591,-0.5123841762542725,0.2064711153507232
0.7474760742187492,-0.586297228796035,1.417079798042774,4.334256700032949,0.0973454937338829,-0.5478587746620178,0.0366120710968971
0.7574421386718768,-0.6571262303873896,1.2871423355311156,4.1556197962820525,0.2413399517536163,-0.6198576092720032,-0.1603875458240509
0.767409423828127,-0.6581449059106409,1.020132151800394,3.9539626669496295,0.3665867745876312,-0.68683260679245,-0.3870072960853576
0.7773752441406288,-0.5969004558749497,0.6383326825901866,3.7451007208049294,0.4616557657718658,-0.7294980883598328,-0.628316342830658
0.7873410644531269,-0.4561185048744082,-0.0116167880356311,3.360467197212577,0.5078142881393433,-0.810023307800293,-0.8583851456642151
0.7973081054687476,-0.229278126707673,-0.7658543161317706,2.687999313047528,0.4455362558364868,-0.9664565920829772,-1.0673413276672363
0.8072741699218788,-0.1726397091627121,-1.339840783278644,1.7850725679576396,0.2347976565361023,-1.1902364492416382,-1.286216378211975
0.8172402343750029,-0.5207809466600418,-1.5613073594525455,0.3711147013276815,-0.0826293006539344,-1.4306930303573608,-1.5216823816299438
0.8272060546875011,-1.1952931961342692,-1.736640253221989,-0.9666776249885558,-0.3917876482009887,-1.596319556236267,-1.7751972675323486
0.8371730957031289,-1.9014730880260464,-2.0308023555114865,-2.2759259938657284,-0.6598417162895203,-1.6346536874771118,-2.023468494415283
0.8471389160156271,-2.555573248590529,-2.6081290729969737,-3.5578970642387864,-0.930860698223114,-1.5522798299789429,-2.226646661758423
0.8571052246093771,-3.263987767666578,-2.939328235782683,-4.538648222765326,-1.2359020709991455,-1.3075926303863523,-2.371545553207397
0.8670722656250014,-4.076308651418984,-2.4774630039498207,-5.146779536098242,-1.593603253364563,-0.8898537158966064,-2.4796388149261475
0.877038330078129,-4.611126014477014,-1.7414470689818262,-5.836832761314511,-1.889917016029358,-0.321142315864563,-2.5100255012512207
0.8870041503906272,-4.125830222696066,-1.4390996144101025,-6.338805547130107,-1.9738447666168213,0.3448738753795624,-2.43045973777771
0.896971191406255,-2.530885089796781,-1.53124452188313,-6.8281175888150925,-1.856481671333313,0.9266715049743652,-2.222196102142334
0.9069370117187532,-0.3466846089482307,-1.6988737094074486,-7.358826639771461,-1.6455066204071045,1.2513597011566162,-1.877940058708191
0.9169033203125068,1.8014283672139046,-2.120461875909567,-7.481407894301414,-1.475168228149414,1.2827961444854736,-1.4140424728393557
0.9268701171875016,3.385803298521042,-2.3848154076516628,-7.194153963965177,-1.420997142791748,1.0577833652496338,-0.8672210574150085
0.9368361816406257,4.146083906173706,-2.237002388970554,-6.819020090124011,-1.472938060760498,0.6859560608863831,-0.247889369726181
0.9468020019531274,4.292984193924069,-2.017004131783545,-6.29655922755301,-1.5157054662704468,0.34425950050354,0.392236053943634
0.9567692871093776,4.011632181107998,-1.7210099917612969,-5.53362196791172,-1.4782339334487915,0.2182970643043518,0.9600523710250854
0.9667351074218757,3.542053013896942,-1.3263552787616848,-4.860698156672716,-1.3874828815460205,0.2338327169418335,1.3979517221450806
0.9767011718749998,3.2839982900381086,-0.9487579374164342,-4.229494595310092,-1.2329106330871582,0.3018637001514435,1.7249194383621216
0.9866672363281275,3.196436910963058,-0.6099319330140948,-3.428285764941573,-1.0193500518798828,0.3469880223274231,1.993058562278748
0.9966342773437482,3.253815625481307,-0.2686798705086112,-2.362968317502737,-0.7791649103164673,0.3300878405570984,2.2008419036865234
1.006600097656257,3.266260681034624,0.2066061300419271,-1.0982996795862912,-0.53265780210495,0.2665957808494568,2.3547208309173584
1.0165661621093776,3.2368139295369387,0.5944653376825153,0.1594610786378383,-0.2953900694847107,0.1629495471715927,2.450140953063965
1.026532958984376,3.075751260921359,0.8835156499162315,1.2344558704823254,-0.057160060852766,0.0114805316552519,2.488616704940796
1.0364990234375036,2.5452321795791386,1.2274755100756882,2.214728890103101,0.1854626983404159,-0.1475021839141845,2.453571081161499
1.0464650878906276,1.6365170603461563,1.5525037291415036,3.0392689116984606,0.4319365620613098,-0.3010312020778656,2.2718026638031006
1.0564323730468779,0.8499304834395647,1.7238224188335238,3.62020125246048,0.6865605711936951,-0.4621745347976684,1.9604517221450808
1.066398193359376,0.2968944498628377,1.6775003742501138,4.0623119825094935,0.922917902469635,-0.6141836643218994,1.6003541946411133
1.0763642578125037,0.0366264338687062,1.2064872287131845,4.399515646407008,1.1008729934692385,-0.7495878338813782,1.2662107944488523
1.086331054687502,0.1809431348666548,0.5748283247984945,4.747618305459619,1.206147313117981,-0.8236914277076721,0.9943411946296692
1.096297119140626,0.5014247965440154,0.057347880988568,5.135794031703472,1.2241060733795166,-0.8355147838592529,0.8029909133911133
1.1062631835937538,0.7779270312413573,-0.2935832794882357,5.484082568717002,1.17811119556427,-0.7669180035591125,0.6822873950004578
1.1162292480468778,1.017595911321044,-0.5407976065114141,5.840837905302643,1.0614497661590576,-0.6177301406860352,0.6283730268478394
1.1261960449218762,1.1527011318594216,-0.5510524585440755,6.086420685601234,0.8879053592681885,-0.4057980179786682,0.616467297077179
1.1361621093750038,1.1981783961817625,-0.3720800392284989,6.133937054535746,0.6822733879089355,-0.1836704313755035,0.6179245710372925
1.146127929687502,1.091171727402508,-0.1412101132847368,6.033776306128502,0.4645063281059265,0.0276509635150432,0.6160026788711548
1.1560952148437487,0.8621756325066089,0.2187031028099358,5.755010218152403,0.2716564238071441,0.2510536909103393,0.5797932744026184
1.1660612792968763,0.7590946127384901,0.5591219293616712,5.337869094187021,0.1703331172466278,0.4984045326709747,0.551568329334259
1.176027343750004,0.7037377594366669,0.7193271043650805,4.703938153687119,0.1873549669981002,0.7163621783256531,0.5326132774353027
1.1859941406250023,0.8135197381481528,0.7476233706533908,3.989358389979601,0.314543068408966,0.8719274997711182,0.5059546232223511
1.1959602050781264,0.9349334102034568,0.6294372823424637,3.192173408299684,0.4889119565486908,0.9208438992500304,0.4527827799320221
1.205926025390628,1.1019468039169906,0.4868723934479057,2.243933357277512,0.680754542350769,0.8524801135063171,0.4036630690097809
1.2158930664062524,1.022207204508781,0.1677091208927333,1.3087503562271594,0.8670777678489685,0.6694114804267883,0.3172653317451477
1.2258591308593765,0.7099357372939586,0.1750247046031057,0.175241416093707,1.005231857299805,0.4164376556873321,0.1556674093008041
1.2358251953125006,0.329041107968986,0.0161656835116446,-1.0949486155927182,1.088207483291626,0.081415981054306,0.0055548809468746
1.2457910156250023,-0.1527835005700588,-0.2019926448971033,-2.068590234375,1.058891534805298,-0.1676374822854995,-0.1419434249401092
1.2557583007812525,-0.6993170203849672,-0.3180725547090172,-2.8241473206371066,0.9154353141784668,-0.2788492143154144,-0.3101659715175628
1.2657241210937507,-1.0588742626488208,-0.9006330811947584,-3.9875679994314903,0.70479416847229,-0.2668497860431671,-0.4513484835624695
1.2756901855468783,-1.4202999291330576,-1.4119424351543188,-5.0079883205235,0.4475767314434051,-0.1037668511271476,-0.557097852230072
1.2856569824218766,-2.493632632984221,-0.6416615347519516,-5.542538264816999,0.1423239856958389,0.1503654718399047,-0.5959632396697998
1.2956232910156267,-3.745877842657268,0.6602116291821003,-6.070269761267304,-0.222481682896614,0.4423736035823822,-0.5834319591522217
1.3055891113281284,-4.138472846648097,1.234989538967609,-6.702108697924017,-0.5701047778129578,0.8245395421981812,-0.5974711179733276
1.3155561523437491,-3.8270360766917455,1.3640157318532466,-7.405351659581065,-0.7625789046287537,1.289315700531006,-0.5804356932640076
1.3255219726562544,-3.0653041011869906,1.301599023167789,-8.071613674843311,-0.7328426241874695,1.7039371728897097,-0.4457938969135284
1.3354880371093785,-1.838032589250803,1.1188628674045205,-8.694852540937065,-0.5258550643920898,1.9784246683120728,-0.2267744392156601
1.3454543457031285,-0.6210878255397081,0.920108181515336,-9.12172653888762,-0.2831718325614929,2.017936944961548,0.0036749201826751
1.3554211425781268,0.0593342325001955,0.9775050162121652,-9.179311297371983,-0.0948099195957183,1.7993347644805908,0.1928083598613739
1.3653869628906286,0.0123560620956122,1.3736422228544949,-8.80114726205468,0.0351457819342613,1.3649190664291382,0.3246052861213684
1.3753527832031267,-0.3993433092072606,1.7297879031091927,-8.19371854403317,0.1013967096805572,0.8115262389183044,0.3616573214530945
1.385319824218751,-0.7381894796147942,1.7774378352954985,-7.432326175746321,0.106644682586193,0.2704965472221374,0.2900771200656891
1.3952858886718786,-1.0114762593969702,1.7101055897787212,-6.585612900787591,0.0768215358257293,-0.1519638895988464,0.1590570360422134
1.4052519531250027,-1.1098461788646876,1.5785045779690146,-5.702537103593349,0.0612164884805679,-0.4496730864048004,0.0561107993125915
1.415218994140627,-1.0741327681876718,1.3688868450209497,-4.6612587033897634,0.080521211028099,-0.5916832089424133,0.0158267598599195
1.4251848144531287,-0.9641641808629036,1.2675500385716556,-3.384721348503232,0.1345377713441848,-0.5865634679794312,0.0210683979094028
1.4351506347656269,-0.7366109782516956,1.2140695005357265,-1.952499510908127,0.2013437002897262,-0.4901876747608185,0.058516439050436
1.445117919921877,-0.4266887045115232,1.1140063672840594,-0.7106950312286615,0.2902991473674774,-0.3499898314476013,0.1247362494468689
1.4550837402343788,-0.0564164453573524,1.0668868887126446,0.5793032782554626,0.3945826888084411,-0.2127656638622284,0.198802500963211
1.4650500488281288,0.2579129773005843,0.9845146027132868,1.7024831320762632,0.5209746360778809,-0.1316616684198379,0.2639722526073456
1.4750170898437531,0.5228806954182684,0.8565840961098671,2.685093654733896,0.657853901386261,-0.1476592719554901,0.2936297357082367
1.4849829101562548,0.7443097160607576,0.860564105656743,3.673343644583225,0.785879373550415,-0.2476160824298858,0.2932890653610229
1.494948730468753,0.8562795602053404,0.9003288375511765,4.556032488286495,0.8716861605644226,-0.4545082747936249,0.2434043288230896
1.504914794921877,0.7527832376345992,0.8993155688554048,5.464381258425116,0.8907626867294312,-0.7422688007354736,0.1371846348047256
1.514881591796879,0.6359114467926323,0.7574401235297322,6.35649960925281,0.8867716789245605,-1.0499498844146729,0.0026071118190884
1.524847900390629,0.410471875334531,0.5109203546419739,7.167356557932496,0.8708751201629639,-1.2906500101089478,-0.1316274553537368
1.534813964843753,0.3106676852799951,0.2760422159701585,7.978504598513245,0.8120237588882446,-1.4530130624771118,-0.2204425483942031
1.5447810058593774,0.2116691125199198,0.1876461396366357,8.683200681588053,0.6866478323936462,-1.5012664794921875,-0.2220996171236038
1.5547468261718755,-0.0433420058593153,0.1688049533054232,9.297643077763915,0.5003674030303955,-1.4190958738327026,-0.1547674387693405
1.5647128906249996,-0.5117348858952522,0.3370847136929631,9.595562194499372,0.3119454085826874,-1.2707221508026123,-0.0939940884709358
1.5746796875000015,-1.355525259144604,0.6368517963826656,9.432851758676769,0.2007440775632858,-1.1262872219085691,-0.1399285644292831
1.584645996093748,-2.1831766907587644,1.009378410334885,9.137350224477052,0.1806100606918335,-1.0042176246643066,-0.3120768666267395
1.5946118164062568,-2.759918301832676,1.3279632984802126,8.59504601279497,0.200724110007286,-0.9827011227607728,-0.5448116064071655
1.6045778808593774,-3.074410952228308,1.42473411218822,8.032652368286252,0.2338003069162368,-1.0344027280807495,-0.8424113392829895
1.6145446777343757,-2.95870133703351,1.317576344500482,7.583753001010417,0.2836512327194214,-1.1278690099716189,-1.1621187925338743
1.6245109863281257,-2.510842126460373,0.8942752366006373,6.953968074274063,0.3887687027454376,-1.2518324851989746,-1.4551571607589722
1.634477050781257,-1.920055038899183,0.2585711489483714,5.856095680189132,0.6102361083030701,-1.4353318214416504,-1.6764570474624634
1.6444440917968777,-1.300811672182381,-0.6419000196829437,4.205982786819338,0.9397444128990172,-1.762693166732788,-1.7897558212280271
1.6544099121093758,-1.0294275111511348,-1.3149378126904367,3.2444992233425376,1.18716561794281,-2.2175521850585938,-1.8633266687393188
1.664375976562507,-1.480131882022321,-1.298098029309511,1.9769015462368729,1.0464138984680176,-2.7424581050872803,-2.0121874809265137
1.6743427734375018,-2.549951901577413,-0.5087435951247811,0.9024386693120002,0.541412353515625,-3.02582049369812,-2.302166223526001
1.684308837890626,-3.165533530916273,-0.7507163682326674,-0.4616927978754043,-0.176121175289154,-2.9549007415771484,-2.5552737712860107
1.6942749023437536,-3.252453397217393,-1.9438222834557293,-2.214703171139955,-0.8743583559989929,-2.484426259994507,-2.5796289443969727
1.7042409667968776,-3.903448285242915,-1.7205208930701017,-3.900577698242664,-1.427380084991455,-1.8370838165283203,-2.400429964065552
1.714208007812502,-4.994983877521753,0.0192462600007653,-5.376198532581329,-1.8112419843673704,-1.1517808437347412,-2.1455464363098145
1.724174072265626,-5.014596925008297,1.352323248232901,-6.841701293009519,-2.008176326751709,-0.4276479482650757,-1.9373061656951904
1.7341398925781277,-3.7196471305966377,1.6266425859332083,-8.15995889777243,-1.9026604890823364,0.2464484572410583,-1.739931344985962
1.7441069335937485,-1.5703475749984384,1.1016890297636388,-9.390298565107583,-1.4786603450775146,0.7113744616508484,-1.4243829250335691
1.7540727539062573,0.7912970926851034,0.4272203271701931,-10.181080694007871,-0.8776038289070129,0.8568075299263,-1.0196162462234497
1.7640390625000002,2.734510304331779,-0.2927615878418088,-10.669979478716847,-0.2539792954921722,0.6587638854980469,-0.6050353646278381
1.774005859375002,3.862083716936409,-1.1223244060352444,-10.41965797945857,0.278368204832077,0.2641473114490509,-0.2340618073940277
1.7839719238281262,4.117615352058411,-1.9554051692217589,-9.616074821174143,0.644624650478363,-0.1828391253948211,0.0210062954574823
1.793937744140628,3.884848506452143,-2.644778010958433,-8.386126198983192,0.7965382933616638,-0.5509389042854309,0.1731500178575515
1.8039050292968781,3.406502387678623,-3.2683795728847382,-6.914754838782549,0.7617314457893372,-0.7555866837501526,0.288836270570755
1.8138708496093763,2.8158678603306413,-3.795486799956858,-5.6421460555166005,0.6273819208145142,-0.8129010796546936,0.4048981666564941
1.8238371582031263,2.136032662267983,-4.196779197405278,-4.223661651372909,0.4375158846378326,-0.7010923027992249,0.5002960562705994
1.833802978515628,1.4480419225394725,-4.379167854905128,-2.8363386936903,0.1925988048315048,-0.4489447474479675,0.5484686493873596
1.8437700195312523,0.835960994797945,-4.303729167561233,-1.4772960740745067,-0.0860474854707717,-0.0294039379805326,0.5464428663253784
1.853735839843754,0.6643035746708512,-4.00463370052278,-0.3207125478237867,-0.3729471862316131,0.440264493227005,0.4975056946277618
1.863701904296878,1.0380258281484245,-3.607507775104046,0.3972930986791849,-0.6343491673469543,0.8187323808670044,0.4710219800472259
1.8736687011718764,1.6298159552723168,-3.0950843224227427,0.7224369069486856,-0.7977026700973511,1.0293333530426023,0.5176557898521423
1.8836350097656265,2.124156054252386,-2.584388716447353,0.7374550278604031,-0.7823506593704224,1.0660160779953003,0.6332489252090454
1.8936008300781282,2.3712197207584977,-2.178779040321708,0.7644581855982542,-0.5800348520278931,0.981256902217865,0.753938615322113
1.9035681152343784,2.215817269861698,-1.8117644677892328,0.9852911400437354,-0.2229517251253128,0.8181126117706299,0.8478785157203674
1.9135339355468766,1.822926497794688,-1.5023019205152988,1.3819646455198529,0.2331625372171402,0.6255879402160645,0.8709644079208374
1.9235000000000007,1.181627951136231,-1.1804895947560667,1.9821978990793228,0.7150813937187195,0.4587524533271789,0.7840084433555603
1.9334660644531283,0.365526087540388,-0.8370897065669297,2.755529711484909,1.1980798244476318,0.3568508625030517,0.5647112727165222
1.943433105468749,-0.1709966181308031,-0.5941042492851615,3.579726618731021,1.6260370016098022,0.320029616355896,0.2564904987812042
1.9533989257812543,-0.3280456671908497,-0.4879197105437516,4.387987121176719,1.9224615097045896,0.3462649583816528,-0.0598077848553657
1.9633649902343784,0.0063490767657756,-0.4535352103829383,5.339632012206316,2.059868574142456,0.4787503778934479,-0.302945077419281
1.9733317871093767,0.7682292285695672,-0.5399737229079008,6.340658481520414,2.070541858673096,0.718858003616333,-0.4095463752746582
1.9832978515625008,1.6336770146146415,-0.6395879433482885,6.929809784573316,1.9619523286819456,0.9609280228614808,-0.3682717382907867
1.9932639160156285,2.186104853165149,-0.3452127828299999,7.175548632216453,1.7147419452667236,1.1557844877243042,-0.27840256690979
2.0032309570312528,2.50888134778142,0.4279696842327714,7.09772772591114,1.3191298246383667,1.2600232362747192,-0.1873403191566467
2.013197021484377,2.700228972284496,1.1506745944678782,6.569042289736867,0.8887885808944702,1.2931188344955444,-0.0870712399482727
2.023163085937501,2.779455653734505,1.5400193644911049,5.785704047101736,0.5838611721992493,1.3742966651916504,0.0690062195062637
2.0331289062500026,2.357905773416161,1.826821459406614,5.168494524300098,0.4340535998344421,1.5673476457595823,0.2019474953413009
2.043095947265627,1.6806775429815053,2.4439035564363003,3.780637313610315,0.3946221768856048,1.7450741529464722,0.2978546321392059
2.0530617675781286,1.0204178368739782,3.1724644992232323,2.335092468583584,0.4501168727874756,1.9107190370559688,0.33748459815979
2.0630278320312527,0.4468617239683866,3.7033389698743817,1.3570949926793574,0.5679781436920166,2.0891647338867188,0.3045877516269684
2.072994873046877,0.2385641337081789,3.638430736634135,0.217509947502613,0.7376862168312073,2.223771572113037,0.2246114611625671
2.082960937500001,0.3958107511669397,3.088733492091298,-1.0787626199454068,0.9649853706359864,2.248398780822754,0.1076733693480491
2.0929267578125064,0.8150966320760548,2.487780692085624,-2.3786855265945195,1.1694060564041138,2.118988275527954,-0.0057253590784966
2.102894042968753,1.0272542587652802,1.9573457818955184,-3.493160680434108,1.3078731298446655,1.864737868309021,-0.1083523631095886
2.1128598632812547,0.7321737264566123,1.5328525416016578,-4.2352673334926365,1.3411602973937988,1.586342692375183,-0.2111935317516327
2.122825927734379,0.05809022378847,1.3886767103791235,-4.535742564451694,1.2818347215652466,1.4125807285308838,-0.3496674001216888
2.1327929687499996,-0.5564291100811213,0.9434931487560272,-4.733855737566947,1.154616355895996,1.3882620334625244,-0.4773598611354828
2.1427587890625013,-1.1054743935212492,0.2510053898692131,-4.902362876969575,0.9733463525772096,1.4951552152633667,-0.5765946507453918
2.152724853515629,-2.0869427604064343,0.4415893365234136,-4.970253925412893,0.7427416443824768,1.6001276969909668,-0.6660472750663757
2.162690673828127,-3.4273803405344485,1.3422381998091937,-4.97908137499094,0.4449221789836883,1.6710920333862305,-0.7552359104156494
2.172657714843748,-4.198378741556406,1.9878397043585776,-4.867216744786501,0.1463828980922699,1.7929491996765137,-0.8454896211624146
2.182623779296879,-4.222673809379339,2.120314576393365,-5.002063606649637,-0.05454882979393,1.9704972505569456,-0.8911083936691284
2.192590087890629,-3.6609038497269153,1.8083593355208636,-5.353139144033193,-0.0615422911942005,2.1725058555603027,-0.8418076634407043
2.2025568847656274,-2.645561854812503,1.2321774041563271,-5.747094038200378,0.1384249627590179,2.31581711769104,-0.7311118841171265
2.212522949218748,-1.2844346840076148,0.5847235497385264,-6.0832350413024425,0.4309132695198059,2.2735540866851807,-0.6008036732673645
2.2224887695312567,0.0777722083253786,-0.3445908515393733,-6.17997809022069,0.7107433080673218,2.024852752685547,-0.4629046618938446
2.2324550781249997,0.9582350830748676,-0.7245423547953367,-5.614910842588544,0.8976213335990906,1.620063304901123,-0.3411044478416443
2.2424218750000016,1.1922107930142432,-0.5923813710153103,-4.7050797249376775,0.965835452079773,1.1291111707687378,-0.2228527963161468
2.2523879394531257,1.1914655276048929,-0.4229898499935865,-3.561106089413166,0.905231773853302,0.5785823464393616,-0.1386729329824447
2.2623537597656274,1.1228810170046986,-0.4464911370903253,-2.459817749404907,0.7281568646430969,0.0345062091946601,-0.1086970269680023
2.2723208007812516,1.0463304228961468,-0.3916191446959972,-1.3284692021757365,0.4563764929771423,-0.4230618774890899,-0.1241036802530288
2.2822866210937534,0.982757164586708,-0.2957598928749561,-0.2311456741452217,0.1616068482398986,-0.7215696573257446,-0.1496783196926117
2.2922531738281258,0.949783700267598,-0.2991781768858432,0.76289926571846,-0.1200333461165428,-0.840260922908783,-0.1444377452135086
2.3022199707031277,0.942774698288366,-0.1599509079813957,1.7949907353818415,-0.3744387030601501,-0.7874611020088196,-0.1067582666873931
2.3121860351562518,1.0202243601284922,0.1644686776667833,2.620457808694243,-0.6351496577262878,-0.6671914458274841,-0.0552237033843994
2.3221518554687535,1.218090938071534,0.5933271274328231,3.376819197076559,-0.8978257179260254,-0.5038573741912842,0.0066466103307902
2.3321179199218776,1.5034604429006575,1.1059984173953532,4.052570925217867,-1.153167724609375,-0.3435369431972503,0.0959831476211547
2.342084716796876,1.8925848481714724,1.54237849483788,4.450864725372195,-1.390938401222229,-0.2470337748527526,0.222363606095314
2.35205078125,2.199602340380847,1.94965815000236,4.643605557799339,-1.5965332984924316,-0.2829645872116089,0.3874979615211487
2.362017578125002,2.310021594082564,2.30587397288382,4.579080186396837,-1.739046573638916,-0.4631324410438537,0.5720487833023071
2.371984619140626,2.239753587374836,2.558319040167332,4.4668753644526005,-1.7983125448226929,-0.7325439453125,0.7517663836479187
2.381950683593754,1.793589344151318,2.7892613006949425,4.340507577121257,-1.7675672769546509,-1.0480575561523438,0.882720410823822
2.391916503906252,1.2927993383795022,2.9764573584765195,4.2604748399853705,-1.6646385192871094,-1.3356070518493652,0.936824917793274
2.4018835449218763,0.8323876663558185,3.069901950371265,4.212159429627657,-1.519896149635315,-1.5839600563049316,0.9450004696846008
2.411849365234378,0.3766822723269462,3.1066216154813766,4.193761018627882,-1.345386624336243,-1.7729238271713257,0.9187870025634766
2.421815673828128,-0.0481981041209772,2.997898205912113,4.274407503747939,-1.1886543035507202,-1.8909941911697388,0.8758474588394165
2.431781494140626,-0.3742986285934224,2.87994168857336,4.414563577935099,-1.0818966627120972,-1.925586700439453,0.8289933800697327
2.4417485351562576,-0.6134099843882024,2.7976290238067505,4.488293415534496,-1.023295521736145,-1.9114583730697632,0.8057085275650024
2.4517143554687486,-0.7947053667586297,2.680641351500153,4.380497057682276,-0.9668756127357484,-1.8757392168045044,0.8185819983482361
2.4616804199218763,-1.0032858656134456,2.5455714945361017,4.213101678913832,-0.8945761322975159,-1.8130465745925903,0.8376291990280151
2.4716474609375005,-1.2750323571510611,2.4539938655570146,4.015446770960092,-0.7957347631454468,-1.733718991279602,0.8593933582305908
2.481613525390628,-1.660698000270128,2.4604990096673367,3.777560390383005,-0.6881478428840637,-1.621418833732605,0.8749361634254456
2.4915795898437487,-2.176662778820097,2.5655051522791386,3.529382917416096,-0.5710231065750122,-1.4591056108474731,0.8686085343360901
2.5015456542968764,-2.7038573919147253,2.5716210048109294,3.213044931414723,-0.4476408064365387,-1.2450717687606812,0.8164461255073547
2.5115124511718783,-3.213490629355609,2.489733287458121,2.814287020879984,-0.2886303961277008,-0.9829528331756592,0.7047893404960632
2.5214785156250024,-3.374965678164363,2.04852184433639,2.206988066717982,-0.076907105743885,-0.7248108386993408,0.5330426692962646
2.531444335937504,-3.1294474875345824,1.1871838316977024,1.3269003454238175,0.2245025336742401,-0.5591108202934265,0.2943145036697387
2.5414113769531284,-2.599827108597755,0.2790709161415696,0.3553168282151222,0.5746848583221436,-0.5798105597496033,0.0349516607820987
2.5513774414062524,-1.9717557077810168,-0.3392462756410241,-0.4986509479165077,0.8859735131263733,-0.7837753891944885,-0.2338957786560058
2.5613437500000025,-1.5495315814629196,-0.6322960327744483,-1.0763660801976918,1.08140766620636,-1.1265898942947388,-0.528230607509613
2.5713095703125006,-1.3470890008412302,-0.7416656312927603,-1.5708546477377414,1.091392993927002,-1.5706931352615356,-0.8694896697998047
2.5812766113281285,-1.3733444089516995,-0.9956672803685068,-1.9713047491431237,0.8668328523635864,-1.9863977432250977,-1.2153730392456057
2.5912424316406266,-1.388454007539153,-1.5698653444394468,-2.1406261275380847,0.4631139039993286,-2.1338343620300293,-1.4981669187545776
2.6012087402343766,-1.2273387319535016,-2.886410007804632,-2.2935084123075007,0.0503753535449504,-1.952192068099976,-1.5898975133895874
2.6111755371093786,-1.657747626031935,-3.637795945861936,-2.3991876318752765,-0.3315219581127167,-1.5636630058288574,-1.5028544664382937
2.6211416015625026,-2.85246126871258,-2.369423192730546,-2.2237369569450616,-0.741740882396698,-1.0273516178131104,-1.3632316589355469
2.631107421875001,-3.243295108249783,-1.2056564769774674,-2.485274846744537,-1.1626863479614258,-0.4159148633480072,-1.2464414834976196
2.6410734863281284,-2.66415228125304,-1.159375202795863,-3.089673403289914,-1.4029465913772583,0.2491140067577362,-1.090915322303772
2.651040527343749,-1.4232690080717203,-1.9252075993567703,-3.96166549641192,-1.4095823764801023,0.8404598832130432,-0.815040111541748
2.6610068359375028,0.2537622873619198,-3.2652965121775863,-4.892887777137756,-1.256640076637268,1.259198546409607,-0.3981908559799194
2.670972656250001,1.5705819682762026,-4.379124015763402,-5.608886759993434,-1.0549354553222656,1.429273009300232,0.0631847456097602
2.6809396972656288,2.0805970446415243,-4.531501273620129,-6.002392741349339,-0.8960545063018799,1.3394570350646973,0.4658954739570617
2.690905517578127,1.8385821859575808,-4.031546549628675,-6.10614186963737,-0.7891557216644287,1.0705983638763428,0.7642792463302612
2.7008715820312545,1.373415574491769,-3.555244503903389,-6.035885261106491,-0.6839563846588135,0.7560367584228516,0.946889102458954
2.7108376464843786,0.8571537126913666,-3.41992680965811,-5.644265531888604,-0.5102421045303345,0.5338556170463562,1.0545668601989746
2.720804687500003,0.4217186610139906,-3.569375905108452,-5.2054555969506495,-0.2794601917266845,0.376843512058258,1.1266367435455322
2.730770507812501,-0.0278543677397072,-3.548007246126234,-4.8130368263095615,-0.0294117182493209,0.2520334124565124,1.1353367567062378
2.740736328125003,-0.3845651345312595,-3.2386811847135424,-4.1375142307490105,0.1869289278984069,0.184544026851654,1.059117555618286
2.7507036132812566,-0.5737674175687134,-2.731196942000091,-2.906197242814302,0.3303963243961334,0.2220927327871322,0.932118833065033
2.760669677734377,-0.4976711430989206,-2.208153895626962,-1.416706873077154,0.4105962514877319,0.345009446144104,0.8202034831047058
2.770635742187501,-0.1473800340913236,-1.894946901127696,-0.0440232661217451,0.4601515531539917,0.5176984071731567,0.7644944190979004
2.780601562500003,0.4130665680028498,-1.5920277841478585,1.3264771515756846,0.4903266131877899,0.7130190134048462,0.757420003414154
2.790568603515627,0.940928851225972,-1.2381079632490872,2.3726333869487046,0.4962089955806732,0.8480804562568665,0.7921793460845947
2.800534423828129,1.3676364065684377,-0.7238669397518038,3.219201700478792,0.4840118587017059,0.8972188830375671,0.8569889068603516
2.8105004882812565,1.6476877120494842,-0.2355053306594491,3.795029996100068,0.481831282377243,0.825279712677002,0.9353971481323242
2.820466552734377,1.6806608841076491,0.2115413944870233,4.186013180980086,0.5234971642494202,0.6854249238967896,1.0128473043441772
2.830433349609379,1.3776726474143564,0.6134755969703197,4.552437678664923,0.613993227481842,0.5239108800888062,1.0302841663360596
2.8403994140625066,1.0502587022557854,0.8815461034089326,4.8119577989012,0.7358860373497009,0.3466133773326874,0.9877082705497742
2.850365478515627,0.7399804546847939,1.0354305509582162,4.894681090295315,0.874274492263794,0.1713952273130417,0.901800811290741
2.860332519531255,0.5149684609889984,1.1868816338807344,5.252161234024166,1.000597357749939,0.0784750580787658,0.7744910717010498
2.8702985839843755,0.4167239214666187,1.1902446805730462,5.639132845175266,1.0513191223144531,0.0469565466046333,0.6390509605407715
2.8802644042968772,0.3438287811256945,1.108220185098052,5.946655656558275,1.0097908973693848,0.100189097225666,0.5292559266090393
2.8902307128906273,0.2297247014313936,1.1875903666719794,6.414341557368636,0.8849939107894897,0.252303808927536,0.4231627583503723
2.9001975097656256,0.2149059024840593,1.2702157506495713,6.7091936877489085,0.7043461799621582,0.4621552228927612,0.3460347354412079
2.9101635742187533,0.2230231579661369,1.301861765757203,6.723388801839947,0.4982379972934723,0.697971761226654,0.293383240699768
2.920129394531255,0.2895166145712137,1.2171554838523269,6.482030361238122,0.3092672824859619,0.9141194820404052,0.2527770102024078
2.9300964355468757,0.3552868714682757,0.8234799911484122,5.844176694336533,0.1733638048171997,1.0613179206848145,0.2326128780841827
2.9400622558593774,0.4187107113696635,0.4439584037423134,5.237673858988285,0.0903204530477523,1.1921011209487915,0.1958720237016677
2.9500288085937534,0.5468811642087996,-0.0077726798281073,4.360815621134639,0.035120315849781,1.2378315925598145,0.1408620327711105
2.9599946289062515,0.6793151197113096,-0.9498597611784936,2.9521248812526464,-0.0024946606718003,1.1341779232025146,0.0939441546797752
2.969961669921876,0.742681676467508,-2.0059543299809097,1.306657183340192,-0.0312394890934228,0.9474316835403442,-0.0046021244488656
2.9799274902343775,0.5202860027499496,-2.764382880026102,-0.5767974329143762,-0.0553065203130245,0.6868057250976562,-0.1727714538574218
2.9898935546875016,-0.1218745675653219,-2.928155684383213,-2.5574165383696554,-0.0468190275132656,0.4623539745807647,-0.3790636360645294
2.9998596191406257,-0.9931129197105764,-2.78870600489974,-4.120733191817998,-0.0037299282848834,0.333695113658905,-0.5896947979927063
3.009826660156257,-1.931028852856159,-3.1180949033930894,-5.277857400816679,0.0008006417192518,0.4551627039909363,-0.8321913480758667
3.019792480468748,-2.3420307434141634,-3.5095845764905214,-6.072261227345466,-0.0599702037870883,0.8615097999572754,-1.0739812850952148
3.029758544921876,-2.20536952560544,-4.471400732922554,-7.015326506078243,-0.166840985417366,1.4657377004623413,-1.2030199766159058
3.0397253417968777,-1.953047500179708,-4.603717491786182,-7.541799526900053,-0.24368916451931,2.115107774734497,-1.2478423118591309
3.0496916503906277,-2.0140249698422847,-3.129404817436636,-7.690159365808963,-0.3076575100421905,2.6200575828552246,-1.2470828294754028
3.0596577148437483,-1.6269858464129268,-1.761619211655855,-8.216921140444278,-0.346699059009552,2.9151532649993896,-1.2152155637741089
3.069623779296876,-0.3316256080368533,-1.4014298089683055,-8.6237337626189,-0.2478819191455841,2.953559875488281,-1.1790368556976318
3.079590576171878,1.1427516194488851,-1.1745514368787406,-8.941643527981638,-0.0429508276283741,2.717214107513428,-1.098063349723816
3.089556640625002,2.417408640481532,-1.243190381079912,-8.6098198035568,0.153600588440895,2.376066207885742,-0.9020267724990844
3.0995224609375036,3.3772564194500445,-1.7491010908663271,-7.673541993007063,0.2339579313993454,2.076413631439209,-0.6170478463172913
3.1094885253906277,3.4034558595895765,-1.6848831779778002,-6.253344939726591,0.1752866357564926,1.9741653203964236,-0.2723775804042816
3.119455566406252,2.708140183800458,-1.3332847857639192,-4.699207033511996,-0.0102969240397214,2.149984121322632,0.1286399811506271
3.1294213867187537,1.9874659026101231,-0.8995788959667086,-3.2189959487736224,-0.2118577361106872,2.477221965789795,0.5673739314079285
3.139387451171878,1.3014615143932402,-0.4218701983138919,-2.2257494658112527,-0.3923958241939544,2.8085663318634038,0.9814522862434388
3.149354736328128,0.865243495644629,0.0455628967791795,-1.3437737388134,-0.5352142453193665,3.12996768951416,1.297483205795288
3.159320556640626,0.3311852803908288,0.68593059232831,-0.5375923807293176,-0.6164519786834717,3.3485889434814453,1.4600894451141355
3.169286621093754,-0.2613897135004401,1.545202320086956,-0.0527817421168088,-0.6105810403823853,3.349207639694214,1.4281821250915527
3.179252685546878,-0.4463664877973496,2.342486378227174,0.102390699416399,-0.5018056035041809,3.041055917739868,1.20667827129364
3.1892194824218763,-0.2802877445854246,2.930859390383959,0.0712105482548475,-0.2745082974433899,2.3788557052612305,0.8914207220077515
3.199185546875004,0.0662476651504635,3.0830475554093715,-0.0494634113490581,0.0004789060913026,1.4659299850463867,0.5783226490020752
3.209151367187502,0.2587248782053589,3.312375366477668,0.2954495117515325,0.231962189078331,0.4929113984107971,0.2898551523685455
3.219117431640626,0.3234606774881482,3.5689974271848794,1.0540671546280382,0.3629597723484039,-0.3559609353542328,0.0697591826319694
3.229084228515628,0.4192310819819569,3.5066397552102804,1.662003822171688,0.395828515291214,-1.0574729442596436,-0.0258144773542881
3.239050537109378,0.28373730051741,3.407549266383052,2.4299551105827093,0.3836202323436737,-1.5151629447937012,0.0024541169404983
3.2490163574218762,0.0952021030865609,3.4353736773759125,3.239411544814706,0.3225392997264862,-1.7298734188079834,0.118549033999443
3.2589826660156263,-0.1404758076608181,3.197892954990268,3.875450855770707,0.187893345952034,-1.7321445941925049,0.2854445278644562
3.268949462890628,-0.4651191190622746,3.1177599723503,4.447911136263609,0.0069560525007545,-1.6004555225372314,0.4349471926689148
3.2789155273437487,-0.6959479823432863,3.075484718939662,4.616757882884144,-0.1617382019758224,-1.4277079105377195,0.5596399903297424
3.2888815917968763,-0.8767633991770446,2.9366306672617792,4.477940363824367,-0.2589675486087799,-1.2746658325195312,0.6805205941200256
3.298847656250004,-1.0395696965895591,2.945143644063174,4.157761484485865,-0.2512759566307068,-1.1781752109527588,0.7794551253318787
3.3088144531250023,-1.2100628952428698,3.023161241984367,3.883001709541678,-0.1565441042184829,-1.1517776250839231,0.8277928233146667
3.3187805175781264,-1.3676445898748937,3.2427687462881205,3.736143507367372,0.0080502051860094,-1.178908348083496,0.7952559590339661
3.328746337890628,-1.4353247720465063,3.450015366190672,3.495280741328001,0.215403139591217,-1.2993954420089722,0.7129583954811096
3.3387133789062524,-1.5777888309150934,3.4470512556880712,3.307414821460843,0.4592296183109283,-1.420607328414917,0.6393255591392517
3.3486796875000024,-1.9043641332924368,3.469456564241648,3.394040965512395,0.7062726616859436,-1.4401439428329468,0.5464083552360535
3.358644531250004,-2.188633202598989,3.5360429598271845,3.497163486334681,0.956855535507202,-1.339954137802124,0.4128605425357818
3.368610595703128,-2.180296751408279,3.2490316060751674,3.399754666984081,1.208869695663452,-1.189383029937744,0.2945791780948639
3.3785778808593783,-1.8558569997549057,2.720170813333988,3.343777343696356,1.4414548873901367,-1.061755657196045,0.2280218601226806
3.3885439453125024,-1.3857269206628202,2.262735672903061,3.212313110008836,1.596847414970398,-1.016517162322998,0.216598242521286
3.398509765625004,-0.9206133545584976,1.7340554974257945,3.1167285834759477,1.671096920967102,-1.0270596742630005,0.2549002766609192
3.408475830078128,-0.6557214050907642,1.1657698722690344,2.8892198045283557,1.6538643836975098,-1.1176707744598389,0.2984118163585663
3.4184426269531265,-0.7179295855920761,0.7920657389700412,2.352898758909106,1.5640369653701782,-1.2869077920913696,0.2908535003662109
3.428408691406254,-0.8307795005068183,0.1415174256682395,1.405125156354904,1.409401774406433,-1.4997692108154297,0.2432015687227249
3.4383747558593782,-0.9463787871949374,-0.6028887365043163,0.548772530913353,1.179056167602539,-1.6736879348754885,0.1294887959957122
3.4483408203125023,-1.2678817547440528,-0.8485708855241536,-0.4726607666134834,0.8530700206756592,-1.7810771465301514,-0.0701646655797958
3.4583076171875007,-1.7862736143104732,-0.790570531976223,-1.2306927185565233,0.5339962244033813,-1.6413049697875977,-0.3356670141220093
3.4682739257812543,-2.122738442539424,-1.0668886422783137,-1.819037381401658,0.3180719017982483,-1.2164393663406372,-0.5584750771522522
3.478239746093749,-2.005362501567602,-1.7796698321312665,-2.7208687324702736,0.246259719133377,-0.6097204685211182,-0.6944723129272461
3.4882060546875024,-1.551212228026241,-2.5077964751541613,-3.303533596113324,0.3167669177055359,0.066337876021862,-0.7069183588027954
3.498172851562501,-1.3120273320712148,-2.7209546571880576,-3.5914743396699427,0.4292142689228058,0.6119919419288635,-0.6284298300743103
3.5081389160156284,-0.7753362840957939,-2.187431717854738,-3.8519706114619967,0.43135866522789,0.9276066422462464,-0.5809032917022705
3.5181047363281266,0.0902341236819513,-1.911317605692148,-3.710806821537018,0.3998873829841614,1.0601962804794312,-0.5354946255683899
3.5280708007812542,0.802707471428439,-2.071604029238224,-3.2403461953163144,0.38710418343544,1.0825660228729248,-0.4254405200481415
3.5380375976562526,1.5729501587122678,-2.6637089213997123,-2.8663381106346844,0.3823590278625488,0.995135486125946,-0.2052026093006134
3.5480036621093767,2.2400870571129023,-3.627354631346464,-2.384756955462694,0.3089458048343658,0.856166422367096,0.0642978549003601
3.5579697265625008,2.4342959162659943,-4.273644118160009,-1.6968758135884998,0.0713709220290184,0.7145399451255798,0.3151319921016693
3.5679357910156284,2.074597073574364,-4.334450761300325,-1.062547982725501,-0.3521763682365417,0.6007094979286194,0.5020438432693481
3.5779028320312527,1.4303851236872374,-4.062908779358864,-0.8336457035928964,-0.8910578489303589,0.5167120099067688,0.6178319454193115
3.587868896484377,0.6286228972196578,-3.684140932929516,-0.8422679859876632,-1.3869613409042358,0.5666226148605347,0.6942561268806458
3.5978347167968785,-0.2395181830300018,-3.12871478934586,-0.9455705395519732,-1.7059606313705444,0.7736165523529053,0.7503390312194824
3.6078007812500026,-0.9639886781655252,-2.252650916740298,-1.1609107418000697,-1.8676565885543823,1.06211519241333,0.7241564393043518
3.617767822265627,-1.4881072448156774,-1.1993985856264828,-1.1414964317560194,-1.922740459442139,1.379718542098999,0.5776262879371643
3.627733886718751,-1.5922358739405869,-0.2339291673839092,-0.9853823254585266,-1.8672317266464236,1.629053235054016,0.3641918003559112
3.6376997070312527,-1.0725718024812638,0.2808557537317276,-0.8336521333336829,-1.717758059501648,1.7568767070770264,0.1995216012001037
3.647665527343751,-0.2419013153068721,0.5089432093501091,-0.4244844724655151,-1.5217877626419067,1.7426868677139282,0.1253850609064102
3.6576325683593787,0.4617616253279149,0.7349287242531776,-0.1796954728931188,-1.3017901182174685,1.5098731517791748,0.0878984481096267
3.6675986328125028,0.9942500339817256,0.9548334579378366,0.1337023680031299,-1.0743398666381836,1.0941718816757202,0.099434994161129
3.677564941406253,1.1369518471289426,0.9647703300625086,0.3832248258382081,-0.8349046111106873,0.5958563685417175,0.1578568071126938
3.687530761718751,0.8357850537091494,1.0057318705260754,0.8436071256369352,-0.5663745999336243,0.1292082369327545,0.2205388247966766
3.697497802734379,0.3755301796823739,1.1092220556169747,1.4451602296233177,-0.3139612078666687,-0.1870584934949875,0.2685171961784363
3.707463623046877,-0.1644530417062342,1.3600398139595984,2.178030852302909,-0.124702088534832,-0.3158135712146759,0.295986920595169
3.717429931640627,-0.7210082623850553,1.645924794030189,2.750420990169048,0.0095385499298572,-0.2745428085327148,0.3229970932006836
3.7273957519531287,-1.2212663532372563,1.9138678746968507,3.1802970925450325,0.1111751571297645,-0.1035337522625923,0.338581383228302
3.737362792968753,-1.5266196385614572,2.365767008310556,3.287721109953522,0.2160719335079193,0.1487521082162857,0.3406479954719543
3.7473286132812547,-1.5084385235741733,2.760254986441135,3.164421478021145,0.3786179721355438,0.4067868292331695,0.3784864544868469
3.7572946777343788,-1.327523153497279,2.7727637548804283,3.030931291463971,0.6033043265342712,0.6145350337028503,0.4407937824726105
3.7672607421875064,-0.941048751278594,2.942144169986248,2.881857166805863,0.8352744579315186,0.7021737694740295,0.486699491739273
3.777228027343753,-0.3938723304502666,3.1230314830124377,2.7921850791871545,1.021967530250549,0.6692977547645569,0.5072259902954102
3.7871938476562548,0.0898617649719119,3.1047336097776888,2.5961557266086337,1.1854735612869265,0.4839979112148285,0.5245059132575989
3.797159912109379,0.4793886866290122,2.844546550065279,2.44733586897254,1.297770380973816,0.2031341195106506,0.4751750528812408
3.807125732421877,0.7911370798178017,2.5720003595173355,2.297116665932536,1.3476167917251587,-0.1449860334396362,0.3683412969112396
3.8170927734375013,1.0197282471746203,2.0174708725124595,1.9228133976966144,1.3488460779190063,-0.4644087553024292,0.282903254032135
3.827058837890629,1.1036887522134928,1.2074240711718798,1.867549775636196,1.2669131755828855,-0.7002878785133362,0.2581089437007904
3.837024902343753,0.967805459974706,0.6531050120472908,1.6598539506614207,1.0192506313323977,-0.8497316837310791,0.234283372759819
3.8469907226562547,0.5020548015432432,0.386848861554265,1.3981477185577154,0.6058782339096069,-0.854144275188446,0.1804246753454208
3.856957763671879,0.0483306444594636,0.3817074070125818,0.7842512658268213,0.1111260950565338,-0.6818561553955078,0.1000425443053245
3.866923583984377,-0.1632656950851902,0.3092296153008937,-0.4701151737838983,-0.2571499347686767,-0.3111100792884826,0.1148654296994209
3.876889892578127,0.0723312959130853,-0.8788771764606237,-1.7897125027179717,-0.3956805467605591,0.1985581517219543,0.2197315245866775
3.886855712890629,0.4176010330947116,-1.5084025754779575,-2.996090279707313,-0.3136684894561767,0.6805309057235718,0.2848966717720032
3.8968229980468756,0.0467871048118919,-0.4824655367910861,-4.048604944196343,-0.1058218702673912,0.9112368822097778,0.2764093577861786
3.9067888183593773,0.0049789939889684,0.4877466920644044,-4.904537882921099,0.1505079269409179,0.8244002461433411,0.2072662413120269
3.916754638671879,0.5304251925136894,0.1758703616470098,-5.3196296731412405,0.4732418656349182,0.5495025515556335,0.0680059492588043
3.926720947265629,1.027774410181865,-0.43031274022758,-5.155442150503396,0.8059535026550293,0.1794411391019821,-0.0622404739260673
3.9366877441406274,1.4684154330044985,-0.9650123221248388,-4.437291542571783,1.014129638671875,-0.1938472688198089,-0.1084295585751533
3.946653808593748,1.7781316627785562,-1.35280051035583,-3.3733342775702475,1.006277561187744,-0.5177872776985168,-0.0986379161477088
3.9566196289062567,1.978449944722652,-1.9918740744411945,-2.440274844545126,0.795169472694397,-0.7817855477333069,-0.0368309766054153
3.9665856933593773,1.8640207247272131,-2.9359131666421887,-1.7717086439937353,0.4085261523723602,-0.920758843421936,0.0592351034283638
3.9765524902343756,1.3426485341757537,-3.5000703136920928,-1.025270099210739,-0.1257757097482681,-0.8504204154014587,0.1388720273971557
3.9865187988281257,0.5500414914032444,-3.647811728441715,-0.7234720952153205,-0.736208438873291,-0.6274469494819641,0.2013516575098037
3.996484863281257,-0.1654068900986574,-3.578607843834161,-0.9226350696444512,-1.2714462280273438,-0.3100906312465668,0.2425716668367386
4.006450927734377,-0.5543253062022849,-3.4386505070894957,-1.4886772997885942,-1.6465423107147217,-0.015294968150556,0.2671108245849609
4.016417724609376,-0.8064358443018048,-2.766527490839362,-2.269377595135569,-1.847886323928833,0.1761399656534195,0.225470170378685
4.026383789062507,-0.9704470605246722,-1.6658745261251926,-3.001973492527008,-1.8590497970581052,0.2293786853551864,0.1086514145135879
4.0363496093750015,-0.8936315318696201,-0.6617997751563787,-3.595720306676626,-1.6887544393539429,0.1449187844991684,-0.035841666162014
4.046315917968748,-0.5202290118657052,0.1011059203028678,-3.8686464364528654,-1.3617477416992188,-0.0842180028557777,-0.1627394258975982
4.056281738281257,0.0510071701923385,0.5352788430899381,-3.609635434782505,-0.9980630874633788,-0.3731820583343506,-0.2422531545162201
4.066248779296878,0.5945731819711625,0.8352934707999229,-2.78907892986536,-0.6847856044769287,-0.6412273645401001,-0.2477278113365173
4.076214599609376,0.950849429802969,0.9267074336498976,-1.70053082896471,-0.457240492105484,-0.8206127285957336,-0.1885093003511428
4.086180664062507,1.0813188072342426,0.9501754029989242,-0.399655736157298,-0.3268446922302246,-0.8797101378440857,-0.0837487950921058
4.0961467285156274,0.9470938035964964,0.9637222823143003,0.8520821085155009,-0.2772397100925445,-0.8260770440101624,0.0299688503146171
4.106114013671878,0.7105692128919064,0.9908183790326118,1.8745196146488188,-0.2783039212226867,-0.7137912511825562,0.1005799025297164
4.116079833984376,0.4788382862046361,1.1731810253083703,2.6949773353666067,-0.3250643610954284,-0.5923187136650085,0.1145706251263618
4.126045898437507,0.407894060735777,1.3829565791666507,3.292508344230056,-0.3746764063835144,-0.5023238658905029,0.0865528434514999
4.136011718750002,0.3845635270960629,1.635097695067525,3.617302608409524,-0.3986252844333648,-0.4568672776222229,0.0616730563342571
4.145978759765626,0.4082601175691932,1.9265765496224163,3.749036306688189,-0.3818628191947937,-0.4484103918075561,0.0348462350666523
4.1559448242187536,0.4971334560256451,2.1763526899576187,3.758303316727281,-0.3045064508914947,-0.4594684541225433,0.0206429697573184
4.165910888671878,0.7009144456442445,2.397421206724644,3.666965341722965,-0.1716842353343963,-0.5096291303634644,0.0414015129208564
4.175876708984376,0.9171791423261164,2.5262369717299937,3.476527525541186,0.0060367304831743,-0.6217154264450073,0.101739302277565
4.18584375,0.9956986984200776,2.6667186246097088,3.3712902045220137,0.209467351436615,-0.7550223469734192,0.1676440238952636
4.195809570312502,0.8526412037029862,2.8342396755844352,3.463417284077406,0.400099903345108,-0.889594554901123,0.2149514555931091
4.205775878906252,0.5498022758198902,2.9886060614317653,3.4195845720916984,0.5555955171585083,-1.0339927673339844,0.2049491554498672
4.215741943359376,0.1357327047869563,3.1251912913948297,3.3764462721109387,0.6793938875198364,-1.1625853776931765,0.1490366011857986
4.225707763671878,-0.2239262442857026,3.164084208890796,3.3727672913372517,0.7794562578201294,-1.255759596824646,0.0513896681368351
4.235674804687502,-0.4398335788972675,3.1208342652291057,3.3263860639125107,0.850558876991272,-1.3281346559524536,-0.0768737196922302
4.245640625,-0.5334882333461195,3.1401638195991515,3.1632688008546825,0.9085617661476136,-1.3951115608215332,-0.1872244626283645
4.255606933593754,-0.4510658976599573,3.039447190874814,2.9434879858106373,0.977424144744873,-1.4384413957595823,-0.2752608060836792
4.265572753906252,-0.443809277595207,2.9292911181539294,2.644710206419229,1.0577211380004885,-1.5004847049713137,-0.3579839169979095
4.275539794921876,-0.5288115467719734,2.898446482557058,2.1828081497073173,1.1271401643753052,-1.609022617340088,-0.4631452262401581
4.285505615234378,-0.449583842408657,2.8668074817121028,1.4698171164959668,1.1588685512542725,-1.795333981513977,-0.6310420632362366
4.295471679687502,-0.4537906464487314,2.7072359284371137,0.7187152560770511,1.1722631454467771,-2.094982385635376,-0.8217777609825134
4.305437744140626,-0.7556943027757108,2.379102290701866,-0.1167319439798593,1.1427921056747437,-2.45758318901062,-1.0370118618011477
4.315405029296876,-1.259382514207065,1.9583447298049923,-0.3991197295844554,1.023380994796753,-2.659264326095581,-1.2585387229919434
4.325370849609378,-1.826795740443468,1.2770020497888326,-0.4449070827692747,0.7922337651252747,-2.633514404296875,-1.4362101554870603
4.335336914062502,-2.131165640753508,0.2381184357672929,-0.4525438612580299,0.4672081470489502,-2.365825891494751,-1.5491515398025513
4.345302734375,-2.1671385791495443,-0.6372831735372543,-0.4391811063379049,0.0931916832923889,-1.8917114734649656,-1.569902420043945
4.355269042968754,-2.2277743957675997,-0.9266437207639217,-0.543197945651412,-0.260235995054245,-1.294005036354065,-1.4995512962341309
4.365236328125004,-2.203873441828787,-0.7871797204941511,-0.8132482277303934,-0.5888844728469849,-0.626466691493988,-1.34796941280365
4.375202392578128,-1.8065603232748808,-1.073493739631772,-0.9930489145636558,-0.8498238921165466,0.098378024995327,-1.1333297491073608
4.385168457031252,-1.0992375449582934,-1.574238444957137,-1.3086995028227566,-1.0235874652862549,0.7318300604820251,-0.8634535074234009
4.395134277343754,-0.2387285304896533,-1.9419459681898357,-1.6989339151620864,-1.1310845613479614,1.1952835321426392,-0.5733680129051208
4.405101562500004,0.510518349712342,-2.4847668972223995,-2.064187615501881,-1.188940405845642,1.4153932332992554,-0.2887406051158905
4.415067382812502,0.9419264839611948,-3.129332628983259,-2.3674808264911174,-1.2182226181030271,1.3702980279922483,-0.0769553557038307
4.425033691406252,1.0653079489581283,-3.577122573712468,-2.531405898800492,-1.2438243627548218,1.1063255071640017,0.0683067664504051
4.434999511718754,0.9789828336797654,-3.88419179610908,-2.443770869967341,-1.2573975324630735,0.7149270176887512,0.167954996228218
4.444965332031252,0.8965886281095444,-4.036960099110007,-2.1409277408331637,-1.2780466079711914,0.2698254585266113,0.1991677731275558
4.454932373046876,0.8154416461214423,-4.137770835858583,-1.669344248062372,-1.304144263267517,-0.109214000403881,0.1984063982963562
4.464898193359378,0.7614762471780181,-4.382424810874462,-0.8436118018120526,-1.3555904626846311,-0.2798070609569549,0.211291030049324
4.474864501953128,0.624233283958584,-4.6331426159739495,0.2732891178697347,-1.480201005935669,-0.1594588309526443,0.2613843977451324
4.484830322265626,0.4382096309572458,-4.556459773787856,1.478789527502656,-1.721813082695007,0.2239162474870681,0.3254105150699615
4.494797363281254,0.429332643149048,-4.1031864292114975,2.232556223216653,-2.006194829940796,0.7217398285865784,0.4305795729160309
4.504763183593749,0.5561486126393079,-3.645276949267089,2.557454532292485,-2.2246601581573486,1.2414875030517578,0.5910667181015015
4.514729248046876,0.6973382676579057,-3.214756996029615,2.518966688466072,-2.286957263946533,1.708393096923828,0.7410023212432861
4.524695556640626,0.8735767319649458,-2.554045600631833,2.230110583630204,-2.223748683929444,2.0326240062713623,0.8189021944999695
4.534661621093754,0.9191188051518052,-1.751069176068902,1.8042302728921171,-2.043985605239868,2.1680843830108643,0.8191124200820923
4.544628417968749,0.8305771098025143,-1.2585945786997674,1.3381208276182412,-1.7410554885864258,2.088643312454224,0.7427007555961609
4.5545944824218765,0.6663692750290036,-0.8815233070552349,0.8595242412149906,-1.331281304359436,1.801058292388916,0.5909001231193542
4.564560302734378,0.6627260962210595,-0.5328106994107366,0.6899889278084039,-0.8909606337547302,1.4050880670547483,0.4175363183021545
4.574526611328128,0.7766289542548358,-0.4060618038073182,0.9153963505625724,-0.4738828539848327,1.0073411464691162,0.2808850705623626
4.584493408203127,0.8746257295612245,-0.2219742334350943,1.4550287126868962,-0.1304149776697158,0.723239541053772,0.2061986029148101
4.594459472656254,0.983718630030006,-0.0949158334910869,2.247326506847143,0.130093440413475,0.6393759846687317,0.2557480633258819
4.604425292968749,1.2056602033045145,0.001467734465003,2.933009261894226,0.3074250817298889,0.7607489824295044,0.4477422833442688
4.6143913574218764,1.3819662529550492,0.014468670335412,3.481287287288904,0.4004053771495819,1.023084282875061,0.7164701819419861
4.6243574218750005,1.3720514465317128,0.3048436553016305,3.597731061977148,0.3954904973506927,1.3046573400497437,0.9509069323539734
4.634324462890628,1.1505942957732826,0.8022805512532591,3.4186475835025307,0.3728545904159546,1.5285483598709106,1.1039772033691406
4.644290527343749,0.7863252225566655,1.2070213355898856,2.947763178911805,0.4234234690666199,1.6358811855316162,1.1727735996246338
4.654256591796877,0.5656425633020699,1.3803279842287302,2.2883014913141726,0.5834755301475525,1.623066782951355,1.1511253118515017
4.664222412109378,0.5136792248960584,1.398219322489202,1.6186504181355237,0.8138357996940613,1.4783120155334473,1.0630251169204712
4.674189453125003,0.6106917018728331,1.1351438478589058,0.8076245426297187,1.0904076099395752,1.1832889318466189,0.921000063419342
4.684155273437501,0.9034700581863522,0.5654328660741448,0.1038613564908504,1.3381311893463137,0.7557072043418884,0.7452915906906128
4.694121337890628,1.1438049278941005,-0.1698129613041877,-0.7149877599865198,1.487861394882202,0.2030500769615173,0.5504050850868225
4.704087402343749,1.2554425444096329,-0.6631356999352574,-1.4156974037736654,1.4606295824050903,-0.3705722093582153,0.3187395930290222
4.714053222656254,1.132786617208272,-1.114950954657793,-2.020432060405612,1.2533100843429563,-0.7976334691047668,0.1007724031805992
4.724020263671878,0.8631662509791552,-1.7167369906172156,-2.4930413890928027,0.931768536567688,-0.9211082458496094,-0.0216190200299024
4.733986083984377,0.6935607949458062,-2.732992593245208,-3.341706967163086,0.5747421383857727,-0.7216747403144836,-0.0185719951987266
4.743952636718749,0.64208655523099,-3.4740628889933225,-4.660716267076134,0.2388560622930526,-0.2798067927360534,0.0054939268156886
4.753918457031254,-0.2994958280002698,-2.8175664809420704,-5.689948255655169,0.0028215190395712,0.3354131579399109,0.0242099501192569
4.763884521484378,-1.4801919416464864,-1.228839199644327,-6.655556790107489,-0.1080871596932411,0.8914023637771606,0.0744408965110778
4.773851318359377,-1.9823326313748957,-0.0321726693302392,-7.616970210957526,-0.0752535015344619,1.2972663640975952,0.0814759135246276
4.783817382812501,-1.894560824419558,0.3870280175134539,-8.263924299159646,0.1037237048149108,1.4962236881256104,0.0033542164601385
4.793783447265628,-1.248278059607744,0.1480477042198181,-8.504098498412967,0.3213979601860046,1.4876810312271118,-0.1212642639875412
4.803749511718749,-0.4108169624451547,-0.2550584646522998,-8.2755738204211,0.4862228631973266,1.328199863433838,-0.2322536259889602
4.813716308593751,0.3497204695127904,-0.7012266533985734,-7.360110249841213,0.5626158714294434,1.147931456565857,-0.3160742223262787
4.8236823730468785,0.973510320552811,-1.2073957218602298,-6.092462888374924,0.5134986639022827,0.9442668557167052,-0.3229078948497772
4.833648193359377,1.300774847303331,-1.3559914153516293,-4.956228322669864,0.346977561712265,0.6950964331626892,-0.2894593477249145
4.843614501953127,1.2539214723221956,-1.3019348309934138,-3.773405608791113,0.0993240624666214,0.4337354302406311,-0.2781755328178406
4.853580322265628,1.070060623377934,-1.0878975280374288,-2.61527952927351,-0.1964681148529052,0.1888210028409958,-0.2842102944850921
4.863547607421879,0.7462569776710123,-0.7699632127553224,-1.5604010582625865,-0.4979539215564728,-0.0168048683553934,-0.31119105219841
4.873513427734377,0.441405431323871,-0.3384077789902687,-0.4962468093842268,-0.7629827260971069,-0.1596122831106186,-0.35112464427948
4.8834792480468785,0.3006353899568319,0.1252785307899117,0.4142132538199424,-0.9879181385040284,-0.2307469099760055,-0.3978031873703003
4.8934455566406285,0.1916575672350823,0.5909241579443216,1.271568918824196,-1.1441949605941772,-0.239795371890068,-0.4349010288715362
4.903412597656256,0.0202194889470934,1.205531973814964,1.9804951868146656,-1.2462310791015625,-0.2398435771465301,-0.4823620319366455
4.913378417968751,-0.1558485872291028,1.926804513159394,2.444737669172883,-1.2667237520217896,-0.268411636352539,-0.5362867712974548
4.923344238281253,-0.1348191701386124,2.4400386977016923,2.980750087234377,-1.207884430885315,-0.2719896137714386,-0.5512750744819641
4.933310302734377,-0.1487052913457155,2.7020217009201644,3.522569145748019,-1.12772536277771,-0.2927822768688202,-0.511536180973053
4.943276367187501,-0.2750689139585942,3.082959584864974,4.091394869130849,-1.072237253189087,-0.2706324756145477,-0.4459665417671203
4.9532436523437475,-0.2871845914270728,3.343302419660985,4.745556696754694,-1.0585956573486328,-0.21833236515522,-0.3431107401847839
4.963209472656253,-0.2931750640135258,3.3360859124109146,5.236951974454522,-1.0903764963150024,-0.1601668000221252,-0.1846087276935577
4.973175537109377,-0.5353961127940565,3.47766705096513,5.611687788888812,-1.1398414373397827,-0.1281914710998535,-0.006652969866991
4.983141357421879,-0.8202727195397019,3.6683830995664,5.604953512197732,-1.2021445035934448,-0.1716039180755615,0.1125597059726715
4.993108398437506,-1.0685490497712045,3.679744743797183,5.148997212147712,-1.213705062866211,-0.3343749344348907,0.1731395423412323
