time,ax,ay,az,gx,gy,gz
0.0,-1.4606202490836382,3.615217034307122,4.521045346057415,-1.1215777397155762,-0.5740541219711304,0.1817356944084167
0.00996606445312409,-1.897389618104696,3.5205990147188304,3.813821790331602,-0.90997713804245,-0.8530175685882568,0.1465951651334762
0.019931884765625796,-2.240715564274788,3.3531621348962184,3.1088831306725737,-0.5706027746200562,-1.1044199466705322,0.1279197484254837
0.029897949218749886,-2.5739330811455843,3.016555852369964,2.6477573190301653,-0.1356050223112106,-1.3044768571853638,0.1088448390364646
0.03986474609375179,-2.8230750152304767,2.911786441123485,2.2204677260160444,0.3194322884082794,-1.4799282550811768,0.0755878165364265
0.04983105468750182,-2.9464716777965423,2.8231641548186537,1.865409256476164,0.7558193802833557,-1.6571205854415894,0.0261998325586318
0.05979687499999997,-3.050929831136763,2.585119661070406,1.6266683048963546,1.1182575225830078,-1.784536838531494,-0.0611260198056697
0.06976269531250168,-3.131505296847224,2.2777780514732,1.538758550775051,1.40146005153656,-1.8099461793899536,-0.1921716779470443
0.0797290039062517,-3.03612739880234,1.652235000090301,1.2377011360138654,1.5888829231262207,-1.7694791555404663,-0.3115572035312652
0.08969604492187955,-2.7295769395828247,0.6046364569544792,0.8391834639757871,1.7016716003417969,-1.7141152620315552,-0.4153342247009277
0.09966210937500009,-2.123844650215656,-0.7044064524784683,0.2904308068066835,1.7265204191207886,-1.7074882984161377,-0.5189505815505981
0.10962792968750179,-1.485877293806523,-2.1072753543391824,-0.5048685072571039,1.6104146242141724,-1.7455466985702517,-0.5857492685317993
0.11959399414062943,-1.0599789359550922,-3.039549774466455,-1.1585942815512418,1.341767191886902,-1.7973909378051758,-0.7050197124481201
0.12955981445312403,-0.762148228155449,-3.738448861700296,-2.120451354515553,0.9738109707832336,-1.874400496482849,-0.9532526731491088
0.13952685546875188,-0.6564868365053087,-4.416785930159688,-3.54429523986578,0.5464833378791809,-2.030198574066162,-1.2882513999938965
0.14949291992187952,-0.4545975789174437,-4.930936060503125,-4.875893972238898,0.119329072535038,-2.1809654235839844,-1.614070177078247
0.15945898437500006,0.0261531898450106,-5.683115194764733,-6.122304484409094,-0.1961423307657241,-2.1787424087524414,-1.8171331882476809
0.16942480468750176,-0.5992047872945666,-5.277952093362808,-6.564179067614674,-0.328540951013565,-2.1091597080230717,-1.878713130950928
0.179392089843752,-2.357038781323284,-2.7579700903743505,-6.74861852016449,-0.4824788570404053,-2.022815704345703,-1.938035011291504
0.18935791015625014,-3.048811816069484,-0.9257046863481402,-6.38723493925631,-0.6112339496612549,-1.6040490865707395,-2.03885817527771
0.19932397460937423,-1.6430184050641954,-1.1517889854505658,-5.11927368953526,-0.5280197262763977,-0.9343133568763732,-1.954736590385437
0.20929003906250188,1.3715532877512275,-3.066941347000003,-4.330167969414592,-0.3289799690246582,-0.398103266954422,-1.4983867406845093
0.21925610351562952,4.518938144645095,-4.483508519345522,-3.69716934132874,-0.2210828065872192,-0.2092574834823608,-0.8473550081253052
0.22922290039062787,6.568017622864246,-5.06455367283225,-2.837137735113501,-0.3010643422603607,-0.3598886728286743,-0.2103008925914764
0.23918896484375196,6.7801131441026925,-4.822512218402326,-2.043395587363839,-0.5850803256034851,-0.7569004893302917,0.2531346678733825
0.2491547851562501,5.561562114238739,-3.973392174562812,-1.2590350159436463,-0.9843685626983644,-1.1456093788146973,0.4780603349208832
0.2591208496093742,3.3623531570896503,-2.715663565042614,-0.6952291665494441,-1.3564298152923584,-1.2972252368927002,0.4981288313865661
0.26908789062500205,1.1781452235870062,-1.3601982193917035,-0.0722457365214824,-1.5827414989471436,-1.0687779188156128,0.399825781583786
0.27905395507812614,0.117974637517333,-0.6659440353542566,0.3989373587548732,-1.5861750841140747,-0.5742089152336121,0.3167740404605865
0.28901977539062784,0.3372013258099556,-0.2217918626055121,0.8066308554172515,-1.4679155349731443,-0.068854808807373,0.3403806388378143
0.29898583984375193,1.2709088474802672,0.1450420926630496,0.9042086015939712,-1.284825325012207,0.2349530160427093,0.5128291249275208
0.30895214843750196,2.195058267210424,0.488549532879889,1.026021794360876,-1.0265982151031494,0.3521936237812042,0.769700825214386
0.3189189453125003,2.6415561263024805,0.7777586889371275,1.3513538186788558,-0.6662061810493469,0.4038775861263275,1.023215413093567
0.32888500976562796,2.663426597326994,1.1390034458965062,1.802207242631912,-0.241048201918602,0.4022333025932312,1.1993308067321775
0.3388508300781261,2.2776956338867542,1.585103830103576,2.228480352079868,0.2184389531612396,0.3258719742298126,1.2509777545928955
0.3488168945312502,1.7408400429993869,2.1420067682415245,2.851795790541172,0.6795306205749512,0.1669801175594329,1.1463353633880615
0.3587873535156305,1.331803753425926,2.5652625756949186,3.559498654216528,1.0965576171875,-0.0714385733008384,0.9067893624305724
0.36875341796875105,1.057523432561755,2.853018318073451,4.634525594764948,1.414018154144287,-0.2859489619731903,0.6182900071144104
0.3787192382812492,0.7599937535353004,3.0625556792616844,5.8295127936899656,1.574138045310974,-0.421060174703598,0.3138608634471893
0.38868530273437685,0.629855361624062,3.132598645041883,6.863506297582387,1.5756453275680542,-0.4473507106304168,0.0488451980054378
0.398651123046875,0.8709254868037998,3.070069123631716,7.834201926040649,1.4334136247634888,-0.3137143552303314,-0.1161019429564476
0.4086181640624993,1.194213584204018,2.994193213914335,8.436646425908803,1.1687400341033936,-0.0373433046042919,-0.1709175109863281
0.4185842285156305,1.5191281137622892,3.0293861078485844,8.711117447039484,0.8494951725006104,0.3418881595134735,-0.1165413558483123
0.428550292968751,1.7223269195787607,2.911125639127195,8.46397633138299,0.5438448190689087,0.7374058961868286,0.0128645859658718
0.4385161132812492,1.6949726103156804,2.8452076443225143,7.833418666708469,0.2989149689674377,1.0753357410430908,0.133013904094696
0.4484833984374994,1.5971009957589208,2.9057220265179877,7.017236723613738,0.1571044474840164,1.284978270530701,0.1791077554225921
0.4584492187500011,1.42649615342468,2.8539108829990028,5.994851239928603,0.1209227442741394,1.3653324842453003,0.1313799172639846
0.46841552734375114,1.226254443848133,2.671880245156586,5.212641709062456,0.1686460226774215,1.3570481538772583,0.0218610167503356
0.4783813476562493,0.839242354556173,2.252655300654471,4.127031415179371,0.2634484469890594,1.2042073011398315,-0.1074983030557632
0.48834741210937693,0.791227680710703,1.4809125110059975,3.055652475744486,0.4060175120830536,0.94808691740036,-0.245636761188507
0.4983142089843753,0.7746379265680908,0.7612596818178892,1.9508008902966976,0.4994824528694153,0.5746225118637085,-0.3357836902141571
0.5082802734374994,0.5983240589372814,0.1711445021688938,0.8836059585481881,0.5161017179489136,0.2031208276748657,-0.3903018534183502
0.5182463378906306,0.3152838007733226,-0.5479188366934656,-0.193964236742258,0.4948534071445465,-0.10685645788908,-0.4613174498081207
0.5282124023437511,-0.412303474675864,-1.238029929576814,-1.5048480978667735,0.4731913208961487,-0.2864274084568023,-0.4748431146144867
0.5381791992187495,-1.2954684114582835,-1.6809715574920177,-2.9256752657443283,0.4111348986625671,-0.2664883136749267,-0.5186931490898132
0.5481455078124995,-1.9960423000365493,-2.413698095525801,-4.310805097296834,0.3686411082744598,0.0175173878669738,-0.6465529799461365
0.5581113281250012,-2.5346932499080896,-3.2499583655312656,-5.901977725920081,0.3363412022590637,0.2998444139957428,-0.8331721425056458
0.5680773925781217,-3.277884191071987,-3.2225197389855977,-7.328996149653196,0.2640848457813263,0.5274856090545654,-1.0652997493743896
0.5780434570312494,-4.218864187963307,-2.123861455219984,-8.092657631915808,0.1100814267992973,0.6536070704460144,-1.260002613067627
0.5880104980468737,-4.469785406680405,-1.2403346993878483,-8.748363181850314,-0.0809183120727539,0.736869215965271,-1.3485538959503174
0.5979763183593754,-3.4602515135228638,-1.380997554053366,-9.203395937314628,-0.2512490153312683,0.843573272228241,-1.3118736743927002
0.6079421386718771,-1.7015249545685946,-2.199200481581688,-9.71770622665584,-0.3018098473548889,0.990056335926056,-1.0571616888046265
0.6179084472656307,0.1058953830691054,-3.266647342264652,-9.859126037168505,-0.2160334140062332,1.1216943264007568,-0.6217142939567566
0.6278752441406255,1.196989259462431,-3.654517948082089,-9.67872796896398,-0.1047188639640808,1.094254970550537,-0.2074541598558426
0.6378413085937495,1.873358169654012,-3.366134136933088,-9.275841580322384,-0.0582280568778514,0.8625434041023254,0.0534064695239067
0.6478071289062513,2.1399887064173817,-3.390293887938559,-8.781200452569127,-0.0528960712254047,0.4599689543247223,0.3045412302017212
0.6577731933593753,2.0983418140381573,-3.6348493710160255,-8.018523305168747,-0.1409681439399719,-0.050900425761938,0.5083020925521851
0.6677395019531218,1.7729736954934894,-3.6042251001715657,-7.408170224133133,-0.3613914251327514,-0.6148436069488525,0.5942972302436829
0.6777065429687497,1.2034300330996512,-3.620552257855236,-6.643352557572722,-0.6078068614006042,-1.0490411520004272,0.5789629817008972
0.6876723632812514,0.6802813343949615,-3.510788983844221,-5.588854025790095,-0.8023269176483154,-1.237345576286316,0.5489820837974548
0.6976384277343755,0.1800101648654788,-3.004182400748133,-4.248095835405588,-0.9102240800857544,-1.1306627988815308,0.5268413424491882
0.7076042480468736,-0.2344235267721116,-2.177747651447356,-2.596958859685063,-0.9801539182662964,-0.8172974586486816,0.508124589920044
0.7175712890625014,-0.3235868611510842,-1.17188601706177,-1.0436690947324037,-1.058432698249817,-0.4504376947879791,0.4957824051380157
0.7275373535156255,-0.0400250633310526,-0.2294853397175669,0.325133871397376,-1.116344928741455,-0.1386757045984268,0.5082764029502869
0.7375034179687496,0.32431042618528,0.4608110466048121,1.4281371986299751,-1.127169132232666,0.0700498148798942,0.5579971075057983
0.7474692382812513,0.642413376032561,0.9447720826506614,2.328462236788869,-1.0638822317123413,0.1831979751586914,0.6338684558868408
0.7574365234375016,0.845396054880321,1.2611311114400623,3.086073917493224,-0.9424899816513062,0.208185613155365,0.6931472420692444
0.7674023437499997,0.7845896309357137,1.5141455030441284,3.780096630862355,-0.7598252296447754,0.194264605641365,0.7098851799964905
0.7773684082031238,0.5803655737247317,1.654466120143235,4.456808143946528,-0.5246548056602478,0.1532013267278671,0.6723803877830505
0.7873344726562514,0.2904675586204975,1.66578567879796,4.90375228550136,-0.2632495164871216,0.066033087670803,0.5665388107299805
0.7973015136718757,0.0301636675953865,1.6996739198744295,5.175800463399291,0.021877035498619,-0.0953462198376655,0.407866358757019
0.8072673339843739,0.0621285393938422,1.6278119219735263,5.387671528232097,0.3072740137577057,-0.2978379726409912,0.2356989234685897
0.8172331542968756,0.1394998753007501,1.5323627122581005,5.670913300317525,0.5569232106208801,-0.4922982454299927,0.0676289647817611
0.8271992187499997,0.2985157674543559,1.537997795535624,6.016909927001596,0.7510251998901367,-0.61158686876297,-0.0828839540481567
0.8371652832031238,0.5616261672675609,1.4488587918803095,6.352753992983699,0.8754515051841736,-0.6459440588951111,-0.1845714300870895
0.8471323242187516,0.7729474892631173,1.4284905421122909,6.534018322628736,0.9576409459114076,-0.5851215124130249,-0.2510377764701843
0.8570981445312498,0.9274849938936532,1.5229299902632831,6.572258913695812,1.0150469541549685,-0.4453345835208893,-0.283109962940216
0.8670642089843739,0.98492815195024,1.794446837763488,6.318313378721475,1.07438325881958,-0.2282368391752243,-0.2774951457977295
0.8770300292968756,1.0644072007261216,1.9826593791112304,6.061677874010801,1.1493430137634275,0.0135025503113865,-0.2252284735441208
0.8869973144531222,1.0271153617512434,2.3213515280008314,5.669364901831746,1.2117232084274292,0.2179286777973175,-0.2069078981876373
0.8969633789062499,0.9425765453677624,2.608701319926977,5.37063972941041,1.2230395078659058,0.3503521978855133,-0.2425223439931869
0.906929443359374,0.6777224436923861,2.7269477601230143,4.851427639502287,1.1987594366073608,0.405699074268341,-0.3081423938274383
0.9168952636718757,0.350116117766872,2.704418825189769,4.4996623662889,1.18342125415802,0.4273370206356048,-0.3766564726829529
0.9268623046875,0.0341379049886018,2.61006705532223,4.038009315901994,1.1416866779327393,0.37929168343544,-0.4580497741699219
0.9368281250000017,-0.2856304938528686,2.591761583302915,3.5267385403871536,1.069969892501831,0.3521926999092102,-0.545626699924469
0.9467944335937517,-0.5758690660230815,2.4599925214499234,3.1491976054042574,0.9851016402244568,0.3932751715183258,-0.6259240508079529
0.9567602539062499,-0.7941036014731973,2.2431816621273755,2.520978612810373,0.9193204641342164,0.5132694840431213,-0.701533317565918
0.9667272949218741,-0.9305729499716312,1.884547087666392,1.9332330849021675,0.902086853981018,0.7067771553993225,-0.7575172185897827
0.9766933593750018,-0.8389279548447579,1.5269529621690512,1.3402607622563838,0.9053082466125488,0.9021216630935668,-0.8283466696739197
0.9866594238281259,-0.7540200128879397,1.2450725415647028,0.3714496323704719,0.8620930910110474,0.9499768018722534,-0.8861192464828491
0.99662548828125,-1.1078751710526644,1.2707874130576848,-0.7975345257699489,0.774855375289917,0.8548060655593872,-0.9682726860046388
1.0065925292968743,-1.356474084302038,1.205851122766733,-1.7369810294836758,0.710378110408783,0.715461015701294,-1.0445597171783447
1.016558349609376,-1.27072194660604,0.5119014746338129,-2.724167774015665,0.658663272857666,0.5732929706573486,-1.0687276124954224
1.0265244140625,-0.9599335575558244,-0.1753548133403062,-3.511567274740338,0.6241298317909241,0.5337843298912048,-1.058389663696289
1.0364902343750018,-0.825075882037729,-0.7230565001517534,-4.292207948854565,0.5964716076850891,0.5084645748138428,-0.95520281791687
1.0464562988281259,-1.0755817979522049,-1.1401800884604454,-5.076235342797637,0.5744447708129883,0.4959100186824798,-0.8052195906639099
1.0564233398437501,-1.0176185615442692,-1.5647329499870537,-5.697163009339571,0.5376327037811279,0.5357275009155273,-0.6898248195648193
1.0663891601562518,-0.3337169177602976,-2.3603128345578908,-6.287559344017505,0.5334381461143494,0.5929423570632935,-0.5579777956008911
1.076355224609376,0.5039264041014015,-3.175978644824028,-6.699079705491662,0.5712270736694336,0.594842791557312,-0.3476972281932831
1.086321044921874,1.3431934547074138,-4.076963608196378,-6.777340172258019,0.5670790672302246,0.5110060572624207,-0.085170991718769
1.0962883300781208,2.0246739357590675,-4.889447281295061,-6.677620737877488,0.4476085901260376,0.2799824178218841,0.1814710944890976
1.106254394531252,2.399911562235653,-5.574783999383449,-6.359416373482346,0.2239452600479126,-0.0530837960541248,0.4250264465808868
1.116220458984376,2.607626968693733,-6.306093948617577,-5.924579433828592,-0.0521294698119163,-0.3826052248477936,0.6416658163070679
1.1261862792968742,2.5476658364668485,-6.787496824613213,-5.430256870505214,-0.3412897288799286,-0.6761875152587891,0.8219119906425476
1.136153320312502,2.0986222384147344,-6.625736236861348,-4.860754855296015,-0.6144174337387085,-0.9018049240112304,0.9439990520477296
1.1461191406250002,1.3336746618643402,-5.872917635652422,-4.043486286008358,-0.8442068099975586,-1.001884937286377,1.017145037651062
1.1560854492187502,0.7092983161732554,-4.991473823574185,-3.1195185064554214,-1.026412844657898,-0.9920542240142822,1.067581295967102
1.166051269531252,0.272973841375485,-3.912794790259004,-2.212510629531741,-1.1583503484725952,-0.8864153027534485,1.0738489627838137
1.1760183105468798,0.0561878607658669,-2.9511767867475744,-1.379442433565855,-1.2203729152679443,-0.7271034121513367,1.038410782814026
1.1859841308593744,-0.0502723165791481,-2.036961170402169,-0.4986363348692655,-1.2219825983047483,-0.5129563212394714,0.969757080078125
1.1959504394531209,0.1269481445025652,-1.1591770498752594,0.3883212721943855,-1.216345191001892,-0.3254221379756927,0.8764843940734863
1.205916503906252,0.4987488553330302,-0.3374018168181181,1.2722463796943426,-1.2178739309310913,-0.191748708486557,0.7853666543960571
1.2158833007812504,0.8417219694774597,0.4240302989572286,2.0851427252471444,-1.1875938177108765,-0.1145149022340774,0.736892580986023
1.2258493652343745,1.215023805585876,1.134438329938054,2.9431238286733628,-1.130073308944702,-0.0507911890745162,0.7417431473731995
1.2358154296874986,1.4551476628914477,1.7710908043563365,3.685044603770971,-1.0578196048736572,-0.0238730236887931,0.7792151570320129
1.2457812500000003,1.329708680842817,2.3615958601057527,4.2144443256944415,-0.9447929859161376,-0.0469309352338314,0.8039299845695496
1.2557482910156246,1.016802349790558,2.9068475234165785,4.548028045529127,-0.7865409851074219,-0.1247189417481422,0.7935708165168762
1.2657141113281263,0.4001100557960569,3.34873905775696,4.795025953322649,-0.6141998767852783,-0.2312669456005096,0.7360632419586182
1.2756804199218799,-0.0871203573092818,3.575936286537349,4.97699170923531,-0.4438507556915283,-0.3360138833522796,0.6326700448989868
1.2856462402343745,-0.3999341877724975,3.749879187253117,5.173254870569705,-0.2947683036327362,-0.3854767978191376,0.5366941094398499
1.2956135253906247,-0.5975664455030113,3.75912515450418,5.437147214540839,-0.1523592174053192,-0.3386099636554718,0.4530519843101501
1.3055793457031264,-0.5291248505048454,3.715641986608505,5.56437483357191,-0.0152503605931997,-0.2099310755729675,0.4107978343963623
1.3155454101562505,-0.2622676653787493,3.627691608215868,5.546672003620863,0.1281336992979049,-0.0572754964232444,0.4077120423316955
1.3255114746093746,-0.0285728182073682,3.433846906200051,5.331807602190971,0.3195782899856567,0.0869684144854545,0.4286603629589081
1.3354785156249989,0.2398646218474954,3.1819755471512674,5.147775561398268,0.5579234957695007,0.1981314271688461,0.4312787652015686
1.3454443359375006,0.395244568651542,2.983915565527975,4.8098915140211576,0.8072593212127686,0.1931696832180023,0.4026123583316803
1.3554101562499987,0.4187184562847018,2.848296842509508,4.558394541242718,1.04446280002594,0.1178397685289383,0.3318502902984619
1.3653762207031264,0.3949013081718236,2.6162431136086584,4.344771079784631,1.251487374305725,-0.0392691940069198,0.2360061556100845
1.3753430175781212,0.2766995839003473,2.349495087945461,4.0947856806129215,1.4184834957122805,-0.2430513501167297,0.1140046194195747
1.3853090820312488,0.1429024502858519,2.030579360410571,3.893999488896131,1.5287792682647705,-0.4718838334083557,-0.0390689112246036
1.395275146484373,-0.034231209295243,1.6234633713752031,3.621237025249004,1.594659447669983,-0.6207275986671448,-0.2229295521974563
1.4052409667968746,-0.333341727772355,1.1729273428082465,3.405232806134224,1.6348294019699097,-0.6454042792320251,-0.402046263217926
1.4152082519531213,-0.4121371781982481,0.6553215190529823,2.854898432731628,1.6219878196716309,-0.6145928502082825,-0.5483155846595764
1.42517407226563,-0.3746436061061918,-0.0048065234988927,2.393255319216847,1.5713298320770264,-0.4902940988540649,-0.6220999360084534
1.435140380859373,-0.221335058748722,-0.6356324837207794,1.7294938885986804,1.4562839269638062,-0.3092958033084869,-0.6440238356590271
1.4451062011718747,-0.0506876924470067,-1.3710714955836534,1.0382657743841408,1.2741798162460327,-0.0719985514879226,-0.6060543656349182
1.455073242187499,0.1957356303289532,-2.3916250876665117,0.2712748554378748,0.9833391904830932,0.1557648330926895,-0.5260418057441711
1.4650390625000007,0.4017735320288688,-3.156377287775278,-0.7417623696655035,0.6323875784873962,0.3491750359535217,-0.4680579006671905
1.4750051269531212,0.3213939542166888,-3.66098685183525,-1.898954383203387,0.2931357324123382,0.4587689042091369,-0.4254776835441589
1.484971191406249,-0.2604885268770158,-3.889799114596844,-2.87138253454268,-0.0410103499889373,0.5306841731071472,-0.4762318432331085
1.4949384765624991,-1.0846974898871031,-3.6591210579633713,-3.674889120459557,-0.4082812964916229,0.616409182548523,-0.6965817213058472
1.5049042968750008,-1.4892191515803337,-3.624271862900257,-4.730096677294373,-0.7473300695419312,0.7549304366111755,-0.9465755820274352
1.5148703613281214,-1.4052365077748894,-3.89618443171978,-5.63699934027791,-0.9281504154205322,1.0194309949874878,-1.094003677368164
1.5248361816406302,-0.6576823299001902,-4.195243366140127,-6.5119157964140175,-0.9697649478912354,1.326549768447876,-1.122649908065796
1.5348022460937507,0.5780967520099133,-4.569615607959032,-7.352359489583969,-0.9119008779525756,1.644242525100708,-1.0223032236099243
1.544769287109375,2.02538792924732,-4.84010194336772,-7.484613996866344,-0.8107370138168335,1.9009461402893064,-0.7847198247909546
1.554735351562499,3.090273707270622,-5.139111193427444,-7.514933147284388,-0.7456810474395752,1.9236531257629397,-0.4068531990051269
1.5647011718750008,3.554688331325352,-4.964954065439104,-7.069469599676132,-0.7839040756225586,1.7359070777893066,-0.025821903720498
1.574668212890625,2.9223011131361125,-4.367196262082457,-6.577920592719316,-0.9928730130195618,1.2209683656692505,0.2264446914196014
1.5846340332031268,1.7562509626209737,-3.701643271872401,-5.991897066298127,-1.386078953742981,0.5613600611686707,0.3037810325622558
1.5946000976562509,0.7770385579690336,-3.1549563150614497,-5.018042097026109,-1.84917151927948,-0.0280259568244218,0.2899520397186279
1.604566162109375,0.0430568139760755,-2.756538596266508,-3.893939867663384,-2.241172313690185,-0.3490824997425079,0.2938904464244842
1.6145334472656252,-0.5643661136254667,-2.120942937424779,-2.6637165201842783,-2.5100998878479004,-0.2935808897018432,0.3208538889884949
1.624499267578127,-1.1634597686957566,-1.2977099067747593,-1.464712486833334,-2.635167121887207,0.1508862376213073,0.3829487860202789
1.634465087890625,-1.5784838274419306,-0.4350365538790822,-0.6434919650495052,-2.659087657928467,0.8065847158432007,0.5535063743591309
1.644431396484375,-1.2372040001466869,0.36258506565243,0.0378086293905973,-2.572324275970459,1.4780266284942627,0.7400853037834167
1.654398193359377,-0.5079851049076766,1.093850298961997,0.2351923191875219,-2.378246068954468,1.8267205953598025,0.8522741198539734
1.664364257812501,-0.0134202572610229,1.8151351132661104,0.4292144235968589,-2.0563671588897705,1.8032623529434204,0.8732756972312927
1.6743300781249992,0.2437509617615491,2.3021108209580183,0.7674602900236844,-1.6041204929351809,1.4291342496871948,0.8332582712173462
1.6842961425781269,0.2391290010493248,2.4789731162518263,1.1151496921002864,-1.0847632884979248,0.748121440410614,0.7174667119979858
1.6942629394531217,-0.1056239822492003,2.544244629846513,1.8611241265028715,-0.5655924081802368,0.0108114574104547,0.5085779428482056
1.7042292480468753,-0.5770910090334713,2.4596564213633534,3.102887105128169,-0.1148278340697288,-0.5852378606796265,0.3048902153968811
1.7141953124999993,-0.997851054148376,2.3890356556952,4.270990973302721,0.1823657751083374,-0.8897623419761658,0.1560000628232956
1.724161376953127,-1.2290981428414582,2.5030332062751053,5.440643824484944,0.3025344908237457,-0.9100052118301392,0.0597410351037979
1.7341281738281218,-1.2333001245759427,2.622454243208468,5.775498294907808,0.3182894885540008,-0.7835780382156372,0.0493951886892318
1.7440942382812494,-1.0758689443305134,2.8209432638987897,5.697392141920328,0.3619401156902313,-0.5676180720329285,0.095569297671318
1.754060302734377,-0.8411812136642635,3.094261315602064,5.254429763478041,0.4785799086093902,-0.3869974911212921,0.1696667075157165
1.7640263671875012,-0.5110683848105371,3.509002392688393,4.229634296041727,0.7332960367202759,-0.2494691163301468,0.23016057908535
1.7739931640624995,-0.4557482102572918,3.8258912905707954,3.4595834050029515,1.162993550300598,-0.1163142770528793,0.3012129366397857
1.7839592285156272,-0.4415761117156594,3.9780581205472343,3.199598589864373,1.6492403745651243,0.0002409250009804,0.3376813232898712
1.7939250488281218,-0.573298704078421,3.8016996831223366,3.410625605088472,2.0559871196746826,-0.0200765971094369,0.3071266114711761
1.8038911132812494,-0.774244981727749,3.4925846341118216,4.00883173673451,2.285829544067383,-0.1567130833864212,0.1551324129104614
1.8138581542968737,-0.7777680412873625,2.9725311249434947,4.966861944887042,2.3299808502197266,-0.3037795126438141,-0.0525227710604667
1.8238244628906273,-0.6544545269601046,2.1303017174005507,5.693703224274516,2.212637186050415,-0.4812214970588684,-0.2321481853723526
1.8337902832031219,-0.4316030357664451,1.4876263294309378,6.249446178722382,1.9560906887054443,-0.6019676327705383,-0.390642762184143
1.8437561035156271,-0.2092817059267312,0.9437579371720553,6.447935783934593,1.6070281267166138,-0.6408737897872925,-0.4888405203819275
1.8537231445312514,-0.1756536866890266,0.4516454511135816,6.2286781159818165,1.2716416120529177,-0.5322011113166809,-0.515403151512146
1.8636892089843755,-0.2353636936990544,-0.0910726020663976,5.6283460782229895,0.9530860781669616,-0.3956310749053955,-0.5079358220100403
1.8736552734374996,-0.4636208067959174,-0.2163900035619735,4.187289192265272,0.6036569476127625,-0.3135980069637298,-0.5455865263938904
1.8836210937500013,-1.1087367563180626,-0.0787123021870851,2.3638147051990037,0.3258625864982605,-0.2448497414588928,-0.6319012641906738
1.8935881347656256,-1.7837081477366388,0.0496808534920215,0.2737088045865297,0.1230277121067047,-0.2005158364772796,-0.7542913556098938
1.9035539550781237,-1.80851058055982,-0.4188292231827974,-1.6245827307939529,0.0352214165031909,-0.048689816147089,-0.8688191175460815
1.9135200195312514,-1.611744438139349,-1.1656506298035385,-2.959807252448797,0.0141781810671091,0.1925169378519058,-0.9485051035881042
1.9234860839843755,-1.4701044090047477,-1.6713333760529756,-4.3490415967106815,-0.0704981833696365,0.3988923132419586,-1.0297415256500244
1.9334533691406257,-1.594017935051769,-1.5436697036921978,-5.452471040400862,-0.1378809511661529,0.6288442611694336,-1.0288569927215576
1.9434191894531239,-1.393101541084051,-1.2826602216809988,-6.202242528998851,-0.1328856348991394,0.8419277667999268,-0.8854479193687439
1.9533852539062515,-0.6571889934252947,-1.382982298129797,-7.207116321390867,-0.0167534314095973,0.9514228105545044,-0.664279580116272
1.9633510742187497,-0.0913894129306077,-1.5552847381621595,-7.97912828336954,0.1872420758008957,0.9338685870170592,-0.4162205457687378
1.973318115234374,0.5122687735762447,-2.0649743819653987,-8.296639989325403,0.4507751762866974,0.8501289486885071,-0.1860046535730362
1.9832841796875016,1.3347557350993156,-2.929987868246436,-8.03267574916184,0.7500467896461487,0.7224647402763367,-0.0041185086593031
1.9932502441406257,2.015732942803949,-4.028889020857215,-7.828885699453949,0.9912405014038086,0.4438326060771942,0.1460827142000198
2.003216064453124,2.490401688238978,-5.040647312065959,-7.259840195840597,1.15257728099823,0.1046174094080925,0.265612781047821
2.0131831054687517,2.832705305624008,-5.801335331475735,-6.268604468178749,1.2111175060272217,-0.2742497622966766,0.4039930403232574
2.02314892578125,2.5898247700214383,-6.154481245392561,-4.99851497425735,1.101836323738098,-0.6559451222419739,0.557874858379364
2.033115478515626,1.9185889118693769,-6.209461958858371,-3.6161446705460554,0.7172856330871582,-0.9795636534690856,0.6810742616653442
2.043081298828124,0.930261326739192,-6.038711424443125,-2.486954178133607,0.0621251985430717,-1.1763612031936646,0.7365836501121521
2.053048339843752,-0.2569239662632346,-5.565538032132387,-1.936686440226436,-0.6326583623886108,-1.144628643989563,0.7308523058891296
2.06301416015625,-1.1964197159461676,-5.00481962735951,-1.433018540930748,-1.1865384578704834,-0.800145149230957,0.7060186862945557
2.072980224609374,-1.8518942336037756,-3.902455767074227,-1.240631928768754,-1.5775700807571411,-0.3251048326492309,0.6150996685028076
2.0829462890625017,-2.0009376708626747,-2.4946172601073977,-1.4743641122758389,-1.79858136177063,0.1060452982783317,0.4702844023704529
2.092913330078126,-1.534308877889812,-1.184493277439475,-1.5945476580142974,-1.770504117012024,0.5224094986915588,0.3539095818996429
2.1028791503906277,-0.7857365359485149,-0.1974924108684062,-1.313285077047348,-1.5230424404144287,0.7965469360351562,0.3033540546894073
2.1128452148437518,-0.1236635150750167,0.6675643300324678,-1.0443184985518454,-1.1783419847488403,0.8422473073005676,0.2707359194755554
2.12281103515625,0.2792554789282381,1.463649241515994,-0.2209796694397926,-0.7928743362426758,0.7425283789634705,0.2155826389789581
2.1327783203125,0.487453335141018,2.110779855328798,0.9849632232636212,-0.4524275660514831,0.5331985950469971,0.1337037533521652
2.142744384765628,0.6785143977876752,2.544846979653835,2.2138801643192765,-0.1865791529417038,0.2538468837738037,0.0377955101430416
2.152710205078126,0.9012237405642868,2.787193262249231,3.599973872467875,-0.0056368014775216,-0.0134383533149957,-0.0406010262668132
2.16267626953125,1.123957998586446,2.9819854742482304,4.844935939395428,0.1157212257385253,-0.2402933090925216,-0.0689687728881836
2.1726433105468743,1.305491646692157,3.203569831582904,5.779792192709445,0.1827370077371597,-0.4334757924079895,-0.0575789660215377
2.182609130859376,1.134187058590725,3.6121991477906703,6.275761938717961,0.2232482880353927,-0.547593891620636,-0.012727940455079
2.1925751953125,0.5428086906054989,4.150922578376531,6.639992141228914,0.2915498316287994,-0.5288092494010925,0.0057882205583155
2.2025412597656278,0.1112573119610547,4.527512496244907,6.774837834048271,0.4145377278327942,-0.422314703464508,-0.0312732718884944
2.212507080078126,-0.183967359792348,4.883090605744719,6.109013041159511,0.6097090840339661,-0.4114151895046234,-0.1194734424352645
2.22247412109375,-0.2893288917130791,5.00375579752028,5.289146856594085,0.9564390182495116,-0.4331582188606262,-0.1792074143886566
2.232439941406252,-0.0779718408170156,4.693158985519409,5.083107566654681,1.3221207857131958,-0.4915868937969208,-0.200542002916336
2.242406250000002,0.1936871003013104,4.320013070625066,4.998116914850473,1.5577553510665894,-0.6033644676208496,-0.197382390499115
2.252372314453126,0.4184738338738679,3.850014216697216,5.372476297187805,1.672627329826355,-0.703230082988739,-0.1744858622550964
2.2623393554687503,0.6450357604254037,3.277958425351977,5.800474330732226,1.7137610912322998,-0.8214328289031982,-0.1051585525274276
2.272305175781252,0.8031329302988945,2.757008551865816,6.119236329010128,1.6281590461730957,-0.8954333066940308,-0.0193986389786005
2.282271240234376,0.4854928487230092,2.5457997503340244,6.257796658438444,1.4347764253616333,-0.8843372464179993,0.0335341244935989
2.2922370605468743,-0.0685005221111699,2.485609777787328,6.090857791265845,1.2058780193328855,-0.7577412128448486,0.0329668745398521
2.302204101562502,-0.5012418411925434,2.16730546014905,5.753644775018096,0.9770432710647584,-0.5322597026824951,0.0223112273961305
2.3121701660156297,-0.9859503346048296,1.799428425568342,4.881350484079122,0.7525907158851624,-0.3325178325176239,-0.0078655816614627
2.3221362304687503,-1.244021425076574,1.3544137907713651,3.5414088707745077,0.524526834487915,-0.1901824325323104,-0.0824364572763443
2.332102050781252,-1.4123936860531567,0.7564262703120708,2.107330007135868,0.3154534995555877,-0.1253131479024887,-0.1656642258167266
2.3420693359374987,-1.6720955925971268,0.412809816762805,0.229688461074233,0.1331462860107422,-0.0767439976334571,-0.2664100527763366
2.3520351562500004,-1.8965996367707847,0.0833387929439544,-1.3135247310221194,0.0616156421601772,0.0352927893400192,-0.3403380513191223
2.3619975585937496,-1.937785779770464,-0.4393868580430746,-2.7767361656427383,0.0771529749035835,0.1549356132745742,-0.3899334669113159
2.3719633789062513,-1.7040800458788872,-1.0115314967155455,-4.363347769960761,0.1117346584796905,0.1859973967075348,-0.4435615241527557
2.3819304199218756,-1.2518234771296382,-1.5070318716466429,-5.6666480440884825,0.2011475414037704,0.2164003551006317,-0.4671080708503723
2.3918962402343737,-1.1409228696517646,-2.052571411988139,-6.761736360412836,0.3296889960765838,0.268079549074173,-0.4191972613334656
2.4018623046875014,-1.4186872332394125,-1.8472487458854916,-7.246805942222475,0.482941597700119,0.4117840230464935,-0.3784237205982208
2.4118283691406255,-1.4762489031091333,-1.5695283675700424,-7.3280387027978895,0.6468935012817383,0.6169058084487915,-0.3214254379272461
2.4217956542968757,-0.8391419629216194,-2.2001006452918053,-7.099792257225513,0.8088362812995911,0.7498630285263062,-0.236646831035614
2.431761474609374,0.2238713357606902,-3.131179133632779,-6.666759736645221,0.8985057473182678,0.7404879331588745,-0.143586128950119
2.4417275390625015,1.338442022396624,-4.268860975536704,-5.906457501682639,0.8908957839012146,0.5711153745651245,-0.0190188158303499
2.4516933593749997,2.4526953501790763,-5.801300260162353,-5.245620434078574,0.7585204243659973,0.2758366167545318,0.0894895493984222
2.4616604003906275,3.108564566242695,-6.725834441426396,-4.449133371534943,0.4795767366886139,-0.0561280138790607,0.1477910280227661
2.4716264648437516,3.22466873371303,-7.222203415885567,-3.5723055288195606,0.0507183149456977,-0.3389373421669006,0.2476097792387008
2.4815925292968757,2.967678716476261,-7.61136873768866,-2.868915267646313,-0.5233122706413269,-0.534240186214447,0.3995650708675384
2.491558349609374,2.070982097947597,-7.294350952729582,-2.569161336699128,-1.185726761817932,-0.601184606552124,0.566241979598999
2.5015244140625015,0.806233161336556,-6.325400122112035,-2.376972292935848,-1.812953233718872,-0.4660862982273102,0.6297565698623657
2.5114912109375,-0.3443041435524821,-5.100953604468703,-2.215688090524077,-2.293405294418335,-0.1899942606687545,0.5550277233123779
2.521457763671876,-1.02505623726435,-3.693611941108107,-2.295479420119524,-2.592212915420532,0.1517626941204071,0.3640805184841156
2.531423583984374,-0.835421042702347,-2.32525204257071,-2.3675158978044983,-2.679314613342285,0.4936707615852356,0.2165261954069137
2.5413896484375016,-0.0745956195492995,-1.1351876870006323,-2.1669559160590173,-2.573182821273804,0.745606541633606,0.2030221968889236
2.5513564453125,0.8847633849550038,-0.3166664873033761,-1.6164461860895156,-2.33984923362732,0.8328386545181274,0.309640496969223
2.5613225097656276,1.638299705979228,0.2809171285301446,-0.9151368228435516,-2.0117547512054443,0.740562915802002,0.4886796474456787
2.5712885742187517,1.9246375443838533,0.7918634943962096,-0.0343792394638061,-1.6523360013961792,0.4143981039524078,0.6636857986450195
2.58125439453125,1.6368182352498173,1.0678174475610256,1.0352122320324182,-1.2953474521636963,-0.0226006507873535,0.76753830909729
2.591221435546874,0.8594445270422846,1.3420312790602444,2.2963123638123277,-0.9679722785949708,-0.4903438687324524,0.7655600905418396
2.6011875000000018,-0.1182566875954158,1.7396768444389104,3.5341011781096454,-0.687619686126709,-0.8716151118278503,0.6569690704345703
2.6111533203125,-0.9731951901890336,2.104105784392357,4.8209512526959175,-0.4465370178222656,-1.0871447324752808,0.4676042199134826
2.6211193847656276,-1.5564637188136576,2.1951421461015936,5.802602574932575,-0.2520091235637665,-1.1383402347564695,0.2486022412776947
2.6310854492187516,-1.799457067140937,2.2127304097622638,6.715193220424652,-0.1369113028049469,-1.010546088218689,0.0525690838694572
2.641052490234376,-1.6839467739105225,2.231291025586426,7.505299642020463,-0.1472879201173782,-0.7473793029785156,-0.0535949580371379
2.6510185546875,-1.2650460929267109,2.348361992262304,8.051434810167551,-0.2652624845504761,-0.3958039581775665,-0.0665110200643539
2.6609843750000017,-0.6443671404488385,2.45720201394856,8.041379280099273,-0.3925904929637909,-0.0866818949580192,-0.0376410521566867
2.6709506835937518,-0.197960211043246,2.446087914738059,7.526449397554993,-0.4342987835407257,0.1170485913753509,0.0125970840454101
2.68091748046875,0.0111648795496672,2.5096263209298253,6.794695211684704,-0.3342134058475494,0.1960024386644363,0.0547320321202278
2.690883544921874,0.0975887790273875,2.6284189968317744,5.969704523712396,-0.1376574635505676,0.1233527511358261,0.04929119348526
2.700849365234376,0.1752651257628575,2.6898510783940552,5.216400769335031,0.1577800512313842,-0.0476691201329231,-0.033790860325098
2.7108154296875,0.2805748544311151,2.7602555709630248,4.987690213382244,0.5190833806991577,-0.1866176873445511,-0.2063178867101669
2.720782226562502,0.437042779134959,2.8959344997361303,5.156749141448736,0.8100343346595764,-0.2586418986320495,-0.4090925753116607
2.7307487792968743,0.2314451320158317,2.644337281453609,4.8061909059375525,0.9460119009017944,-0.3850035667419433,-0.5055609941482544
2.740714599609376,0.0679380293902009,2.477282971207797,4.655485965207219,1.017540454864502,-0.3847367465496063,-0.5537741184234619
2.7506806640625,-0.0223449932010844,2.3517793994903564,4.750600536140799,1.0698771476745603,-0.2679824233055115,-0.5459476113319397
2.760646484375002,-0.076548256020993,2.112531667432189,4.348831168830395,1.1072198152542114,-0.1402125358581543,-0.4987364113330841
2.7706135253906297,0.1321387719482183,1.8001865504592656,3.812152980336547,1.1263208389282229,-0.0804426744580268,-0.4359095096588135
2.78057958984375,0.3904141528204083,1.3231301792353392,2.8228672176986933,1.0988292694091797,-0.174309566617012,-0.3756843209266662
2.7905456542968743,0.2717348010998219,0.9739029000669716,1.4508335990846155,1.0754621028900146,-0.3310280740261078,-0.3521017730236053
2.800511474609376,-0.1756984391462057,0.5471574969321489,0.4818973815143108,1.0790544748306274,-0.4307727515697479,-0.3758851885795593
2.8104785156250003,-0.7720320549186319,0.0409925201237201,-0.7409837865084409,1.0064308643341064,-0.5329509973526001,-0.5053249597549438
2.820444335937502,-1.1395590339526531,-0.1946604023128748,-2.2548230000823737,0.8638962507247925,-0.5229033827781677,-0.760185956954956
2.8304104003906296,-1.335070500136912,-0.7484317644268274,-3.4227976889193057,0.7120646834373474,-0.3243452608585357,-0.9497244954109192
2.84037646484375,-1.294936642669141,-1.431151578015089,-4.854968088588119,0.5712050199508667,-0.0596327111124992,-1.0527362823486328
2.850342285156252,-0.898553863767907,-1.888583795836568,-6.754483612805605,0.4748100340366363,0.176292210817337,-1.13738751411438
2.860309570312502,-0.3766524251779541,-2.271213578391075,-8.612161982768773,0.4533091187477112,0.440363734960556,-1.099668264389038
2.8702753906250003,-0.6624967444445937,-1.777412408593297,-9.553132335048913,0.4715823829174042,0.7545264363288879,-0.8870473504066467
2.880241455078121,-0.8956934328354894,-0.6555658492028713,-9.860393280625344,0.4721543192863464,1.000296950340271,-0.6215083599090576
2.890207519531252,0.1732355744303204,-1.48100135833323,-10.14056280565858,0.5174845457077026,1.033334255218506,-0.4076977670192718
2.900173583984376,1.42139590767622,-2.864174795120954,-10.050973135626316,0.6114760041236877,0.8066844940185547,-0.2500348389148712
2.9101403808593744,2.463219082280993,-4.06034097469747,-9.619544543111324,0.6639949083328247,0.3719154894351959,-0.1217402517795562
2.920106445312502,3.069615826906264,-5.07214485861361,-8.75765941798389,0.6225876808166504,-0.1772133111953735,-0.0305189695209264
2.9300722656250002,2.9113518490985038,-5.262152466684579,-7.348639592278003,0.486872524023056,-0.6763736009597778,0.0224060304462909
2.9400385742187503,2.4216679053612054,-5.319565375733375,-5.476279201489687,0.2230738252401352,-1.012521266937256,0.08283132314682
2.950004394531252,1.6680859185643493,-5.33222027464509,-3.580696925067901,-0.2316396236419677,-1.1775338649749756,0.1578041017055511
2.9599716796874986,0.7939855280514806,-4.829801498627663,-1.7963614392131566,-0.8366657495498657,-1.1221864223480225,0.2313297688961029
2.9699375000000003,0.1102842839441262,-4.1851007423102855,-0.2313070021867752,-1.5078204870224,-0.8351442217826843,0.2582788467407226
2.979903564453121,-0.3594656549902633,-3.304522022628784,0.9507435582756996,-2.1380860805511475,-0.3732701241970062,0.2617174386978149
2.989869628906252,-0.3566991859516129,-2.4278899947464465,1.680592202785611,-2.6403591632843018,0.1750009804964065,0.2745762467384338
2.99983666992188,-0.0124355936052277,-1.711359096971154,1.6355197198718785,-2.951534986495972,0.5862401723861694,0.2493828386068344
3.0098024902343745,0.3279051262089982,-0.9080109164863824,0.9796347217172384,-3.041804075241089,0.7433261871337891,0.2306256592273712
3.0197685546874986,0.7555339976474642,-0.2621989840567111,0.2995189531475305,-2.868694305419922,0.6551608443260193,0.242176815867424
3.0297343750000003,1.0416610428456217,0.2357508298531174,-0.3411310664743185,-2.449979305267334,0.2381955981254577,0.2708068490028381
3.039700439453121,1.0016769691120833,0.5226385572254657,-0.5944044012755155,-1.900747895240784,-0.3530576229095459,0.2846274077892303
3.0496674804687487,0.4360121574455872,1.057471702374518,0.121212304264307,-1.3135887384414673,-0.9372805953025818,0.2565699517726898
3.0596333007812504,-0.0905627528481185,1.277712243884802,1.4796704019904137,-0.7728981375694275,-1.3120030164718628,0.1854504942893982
3.0695993652343745,-0.4456881136117502,1.3038561544448135,3.2552064953178164,-0.3879264295101166,-1.4292092323303225,0.1380078792572021
3.0795651855468797,-0.6945678530965,1.3095394607782362,4.957043730705976,-0.167201891541481,-1.246203899383545,0.1285270899534225
3.0895317382812486,-0.828728778522089,1.2467612253040077,6.373692151594161,-0.0562764443457126,-0.8493705987930298,0.1525043249130249
3.0994985351562505,-0.7544429875403642,1.2280913038864731,7.314975223085284,-0.0594026409089565,-0.3632002770900726,0.204867884516716
3.1094645996093746,-0.3162802644647657,1.2596204146161674,7.739913284537196,-0.1562032252550125,0.0629257187247276,0.2467716634273529
3.11943041992188,0.0951077758666127,1.2977505310460924,7.696157729440927,-0.2464492470026016,0.3799692690372467,0.2594161331653595
3.1293964843750004,0.4771317014824598,1.3729510257199409,7.280726916524768,-0.2410760521888733,0.5547951459884644,0.2477943748235702
3.139362548828121,0.84906729073897,1.4998679713666438,6.472668074131011,-0.1156914979219436,0.548496425151825,0.2413224279880523
3.1493295898437488,1.0384216955982148,1.6393889625206588,5.724940074059367,0.1039878726005554,0.3540292680263519,0.2314887046813964
3.1592954101562505,1.057396225985512,1.9400944951042527,5.237134345284104,0.3237676620483398,0.0696675702929496,0.1618404239416122
3.1692614746093746,1.0298764970276504,2.0352593349203465,5.105452084931731,0.5305954217910767,-0.1741988807916641,0.0523978248238563
3.17922729492188,0.6576187631446868,2.138725554613769,5.088962137901783,0.6981295943260193,-0.2892902493476867,-0.0619611218571662
3.1891933593750004,0.1783493920464068,2.404097615748644,5.294904397207498,0.8107222318649292,-0.2017449587583542,-0.1603534817695617
3.1991606445312506,-0.0710056002672761,2.541993928310275,5.573967422303557,0.8917441964149475,0.0220857392996549,-0.2472978681325912
3.2091267089843747,-0.1759116435054689,2.6301065115273,5.638659966966509,0.9060727953910828,0.2566582858562469,-0.3103335499763489
3.21909252929688,-0.2018550630573183,2.765401409418881,5.576949068462849,0.8364530205726624,0.4438710510730743,-0.3621958196163177
3.2290583496093745,-0.0722295891042798,2.820796841165423,5.147553443080186,0.7390822768211365,0.5961647033691406,-0.4361070692539215
3.239024658203121,0.2782669793475419,2.435303778134286,4.435691706159711,0.685270369052887,0.6760385036468506,-0.4490045309066772
3.2489914550781265,0.6221488788999616,2.001211227107048,3.3877158541440964,0.6237260699272156,0.6567848920822144,-0.4281983375549316
3.2589575195312506,0.4759099776677787,1.7531161717265844,2.132105551952124,0.5730870366096497,0.6057713627815247,-0.4142618477344513
3.2689233398437487,-0.0155757182618603,1.5349515597075225,1.1123147609353066,0.5479049682617188,0.5691140294075012,-0.4396359324455261
3.27888940429688,-0.5451975950360298,1.0105857402980327,-0.0281885681301355,0.540198802947998,0.511833667755127,-0.4963226914405823
3.2888554687500005,-0.9297744930703192,0.4335451462775468,-1.1219827529907227,0.4819389581680298,0.4167055487632751,-0.5886784791946411
3.298821533203121,-1.4996265638262032,0.0593581978976726,-2.3883821602225304,0.3676201701164245,0.3287764489650726,-0.7344802021980286
3.308788574218749,-2.097798062550277,-0.3101800478935241,-3.4403619871824977,0.2419189512729644,0.4237019121646881,-0.9124895930290222
3.31875463867188,-2.133553704933822,-1.0493161607086658,-4.32222665502131,0.1702764183282852,0.6859670877456665,-1.0360032320022583
3.3287204589843746,-1.792948562029749,-1.547111953100562,-5.569301768580079,0.1114807501435279,0.95499187707901,-1.0490399599075315
3.338686767578121,-1.2942225030504166,-1.6316612908780574,-7.067681547215581,0.0157183222472667,1.1032280921936035,-0.9310333728790284
3.34865258789063,-0.5419884602637961,-1.973012137582898,-8.75305163192749,-0.064363993704319,1.1005423069000244,-0.7740024924278259
3.3586196289062507,0.457819061714597,-2.8105022416442638,-10.21922425444126,-0.0026044943369925,1.0029973983764648,-0.5827762484550476
3.3685849609375005,1.6528852806925771,-3.8999464146018026,-11.086795023989676,0.1492247283458709,0.7701715230941772,-0.3916134834289551
3.3785507812499986,2.64066239233315,-4.523293417245149,-11.367075608181953,0.2956588268280029,0.3726123571395874,-0.2097861915826797
3.3885170898437487,3.135274293991923,-4.702901211854815,-10.793229426288605,0.3392236232757568,-0.1498130112886428,0.0111999725922942
3.3984829101562504,2.8920269709035757,-4.653509696698189,-9.785915839529038,0.2306469231843948,-0.7113540172576904,0.2393279522657394
3.4084489746093745,2.0943024755194783,-4.44074665146172,-8.506843413206935,-0.0329024232923984,-1.191454529762268,0.3855559825897217
3.418415771484373,1.268757953056693,-4.42853014396727,-7.1553393724024295,-0.3926447629928589,-1.4884053468704224,0.4707528054714203
3.4283818359375005,0.4107239503994583,-4.385726190507412,-5.851366898101568,-0.8105658888816833,-1.5041872262954712,0.5273479223251343
3.4383481445312505,-0.441314976561442,-3.922298531663418,-4.4752124001652,-1.1780105829238892,-1.1627885103225708,0.5460680723190308
3.4483139648437486,-0.72288552749902,-3.3367733101531862,-3.1022230882614847,-1.4995145797729492,-0.6606285572052002,0.5750799775123596
3.45828002929688,-0.4652436222247779,-2.515764093032479,-2.167720470690727,-1.7606608867645264,-0.2622306048870086,0.6080951690673828
3.4682470703125006,0.1860351242434233,-1.812877689728141,-1.399047297745943,-1.9157817363739011,-0.0013031286653131,0.668372631072998
3.4782128906249987,0.9498507010892032,-1.267342241039872,-0.4274082509577274,-1.958231806755066,0.1366563886404037,0.7601547837257385
3.4881789550781264,1.4713142231859266,-0.6429150419443845,0.332469036591053,-1.924259185791016,0.0688698962330818,0.8260639905929565
3.4981450195312505,1.646030738622695,-0.0242401227653026,0.861433289706707,-1.8151565790176392,-0.1730134189128875,0.8620892763137817
3.5081108398437486,1.3885387632131576,0.4118775043487548,1.5528385140538217,-1.637187957763672,-0.4523979127407074,0.8798682689666748
3.51807690429688,0.7588158688623458,0.7702113422974943,2.4018150577694177,-1.436396241188049,-0.6684567332267761,0.8546997904777527
3.5280437011718746,0.0415055111471563,0.9671364746719598,3.221878226211667,-1.2629070281982422,-0.7590044736862183,0.7773621678352356
3.5380100097656246,-0.4410062759384512,1.0057862310618162,4.047181048873067,-1.1044365167617798,-0.7310949563980103,0.6621947288513184
3.5479758300781263,-0.6769415224477648,0.9262544291853904,4.62038542573154,-0.962300181388855,-0.6488884687423706,0.5552879571914673
3.5579418945312504,-0.6754689656771719,0.7981231393128633,5.0045764662534,-0.8324564099311829,-0.5288891196250916,0.4591189324855804
3.5679077148437486,-0.5808693585284054,0.7839420537471771,5.381200870913267,-0.7044361233711243,-0.3919283151626587,0.3656869828701019
3.5778740234374986,-0.4262453446581959,0.7676470447674393,5.5154760703682895,-0.5786597728729248,-0.2548619210720062,0.2999062240123749
3.5878410644531264,-0.1585053853482008,0.6927803120926022,5.512482733771205,-0.4404763281345367,-0.1457612663507461,0.2685634791851043
3.5978071289062505,0.2265200601711869,0.6289084361627698,5.439221682727337,-0.2644494771957397,-0.0470487996935844,0.2519866526126861
3.6077729492187487,0.531677238401398,0.4081441630393266,5.342350623515248,-0.0381191223859787,0.0536975190043449,0.2381621748208999
3.6177387695312504,0.7008345122758298,0.3290077902212738,5.390449760773778,0.1972306817770004,0.122111938893795,0.2199913710355758
3.6277050781250004,0.827066252137348,0.4052835129112005,5.369931288880109,0.4229573011398315,0.1379689276218414,0.1827393323183059
3.6376708984374986,0.7849078300394118,0.4618365902602672,5.44742135579586,0.6547442078590393,0.1235502213239669,0.1286962032318115
3.6476379394531264,0.6944705302018672,0.6451444084316492,5.600633895432948,0.8637596964836121,0.0744868069887161,0.059942178428173
3.6576037597656246,0.4904903647493571,0.8565084005251526,5.7601481655627484,1.036568284034729,-4.46764752268e-05,-0.0426796004176139
3.6675698242187487,0.1899967213507741,1.155405422382057,5.861175175410509,1.1479694843292236,-0.0986087992787361,-0.1785141378641128
3.67753588867188,-0.182602227185294,1.422081844113767,6.00254004086554,1.2291693687438965,-0.160878375172615,-0.3409671783447265
3.6875019531250004,-0.6329634837072342,1.5930013053551315,6.019227556294203,1.2402135133743286,-0.2038854956626892,-0.5054280161857605
3.697467773437502,-0.8576272484872489,1.802123363740742,5.585688255235553,1.1985046863555908,-0.1986651122570037,-0.6600370407104492
3.7074350585937488,-0.8587200852252542,1.6386600637242197,4.942486797565222,1.2070504426956177,-0.0690144449472427,-0.7293511033058167
3.7174008789062505,-0.7178402268081903,0.9840233120650052,4.112890661624074,1.2253217697143557,0.0820751637220382,-0.7025872468948364
3.7273671875000005,-0.5566976978894322,0.3143202164381742,2.8732109190136192,1.1385633945465088,0.1224071383476257,-0.6364880800247192
3.7373330078124987,-0.7021902377337217,-0.1811947715401649,1.5794605635195968,0.933976113796234,0.0990134626626968,-0.5479070544242859
3.7472988281250004,-1.1238815723493694,-0.4951955467656254,0.328979440909624,0.686594545841217,0.0925414487719535,-0.5318926572799683
3.757264892578121,-1.3135310146324335,-1.051682597579062,-1.0833663143485783,0.5376546382904053,0.0162799693644046,-0.5561522245407104
3.7672316894531264,-1.4904077768430113,-1.49474639056921,-2.962522941148281,0.4306621253490448,-0.2718652486801147,-0.6511098742485046
3.77719799804688,-2.352322274195403,-1.0181205197170375,-4.896472649887204,0.3735080063343048,-0.5123260617256165,-0.8549215793609619
3.7871638183593745,-3.96789299262464,-0.2754498030349612,-5.7313978718966245,0.4093991816043854,-0.3342399597167969,-1.1916179656982422
3.7971298828124986,-4.765460251620412,0.3235992091760039,-6.349960562872886,0.5668866038322449,0.1591406613588333,-1.5790330171585083
3.8070957031250003,-3.892578808443248,0.1692652642935514,-7.217991935670375,0.7653908729553223,0.7498271465301514,-1.832646131515503
3.8170622558593728,-1.5752179575137792,-0.7998430949732661,-8.029227654534578,0.9177693128585817,1.1180627346038818,-1.884021878242493
3.8270290527343747,0.7259275255434214,-1.209658113834262,-9.061455317798256,1.045541763305664,1.1626088619232178,-1.7345892190933228
3.8369951171874987,2.215485553689301,-1.113613860835135,-9.450984796738624,1.1111453771591189,0.9446552991867064,-1.4343366622924805
3.8469609375000005,3.6162189048260447,-1.8174200093328952,-9.186810128694772,1.0552613735198977,0.5573323369026184,-1.0886939764022827
3.856927001953121,4.610315574876964,-2.8852836341232058,-8.467624332496523,0.8015326857566833,0.0250388011336326,-0.7266824245452881
3.8668930664062486,4.8905222170501945,-3.3302076680272816,-7.699144051775336,0.3671626150608063,-0.5680296421051025,-0.3927707970142364
3.8768588867187503,4.382257637614011,-3.2052298737496137,-6.876224324858188,-0.1407860219478607,-1.0558608770370483,-0.0588325411081314
3.8868249511718744,3.5557781723886728,-3.1502438995867967,-5.947528347739577,-0.6556088328361511,-1.2818809747695925,0.2658701837062835
3.8967919921875023,2.65990952911675,-3.2588954129636285,-5.102364055788517,-1.135666847229004,-1.2283754348754885,0.5617470741271973
3.906757812499997,1.6524870751552283,-3.067232438901067,-4.503666925755143,-1.5557152032852173,-0.9858575463294984,0.7825361490249634
3.916723876953128,0.6243266613304614,-2.496690851511061,-4.007701855921745,-1.8483240604400637,-0.6828006505966187,0.8960942029953003
3.926689941406252,-0.275281314600259,-1.6013377565458415,-3.455404658013582,-2.00114369392395,-0.3836981058120727,0.910984456539154
3.936655761718754,-0.7453438814140856,-0.7802408611416817,-2.6922265753537413,-2.0097522735595703,-0.1220019981265068,0.8714999556541443
3.946621826171878,-0.8926654633164405,-0.1616878147765994,-1.772052342864871,-1.8782097101211548,0.0642182081937789,0.827442467212677
3.9565881347656244,-0.7180741816945374,0.2813900067389011,-0.7452180630773305,-1.6604254245758057,0.1302301883697509,0.8170114159584045
3.9665551757812523,-0.36667876470685,0.4964034612506627,0.3472662082284689,-1.4097388982772827,0.0950117409229278,0.8438553214073181
3.976520996093747,0.0411838049121201,0.3309180077567696,1.3255021690636872,-1.1113593578338623,-0.068303182721138,0.9360126256942748
3.986487060546878,0.2057624457594007,-0.0086918404996395,2.150391150227189,-0.7771379947662354,-0.2385846227407455,1.0818212032318115
3.9964528808593727,-0.0660429728912189,-0.1032043538868427,3.332726372849941,-0.466680496931076,-0.2723510861396789,1.1883054971694946
4.006418945312504,-0.5202422366734594,-0.1011322237879037,4.307750385901332,-0.1962335556745529,-0.2247274070978164,1.2177152633666992
4.016385009765628,-1.0509323637336492,-0.0881155058264732,5.228030416852236,0.0319538451731205,-0.1290640532970428,1.1415629386901855
4.0263508300781226,-1.4695093657210467,-0.1032023080602288,6.0144116804450745,0.2420165240764618,-0.0601539611816406,0.9521099328994752
4.03631787109375,-1.7136895857453345,-0.1163140108287334,6.598382950511574,0.4588645100593567,-0.0710926577448844,0.6689553260803223
4.046283691406252,-1.6602280446708202,-0.0674047262310981,7.051778460162877,0.6565983891487122,-0.1703366935253143,0.3353552222251892
4.056249999999999,-1.1392786826413124,-0.0851104787915945,7.327544781801104,0.8166467547416687,-0.3624477386474609,0.0184631589800119
4.0662158203125,-0.5624349263671785,-0.0764718297839164,7.269474285626411,0.9205241203308104,-0.5786218643188477,-0.2148177623748779
4.076182128906254,0.0492619704928249,0.1503162336736917,7.639259784176946,0.9582234621047974,-0.6346663236618042,-0.3688194453716278
4.0861479492187485,0.5942175734665245,0.3211784117698669,7.91984022809863,0.9044630527496338,-0.5468512177467346,-0.4221199452877044
4.096114257812502,1.0607798040091991,0.4743392212197184,7.925928023579716,0.7967187762260437,-0.3179890513420105,-0.4095666110515594
4.1060810546875,1.4644719560757278,0.6436077003836631,7.925881846350431,0.6576998829841614,0.0078835878521204,-0.3551968336105346
4.1160471191406245,1.663131949418783,1.0132789249047636,7.545124871930479,0.4871415495872497,0.3895780444145202,-0.3002515137195587
4.126012939453126,1.7060511998213828,1.5217320126503706,6.7760764359325165,0.3385930955410003,0.7179194092750549,-0.2286034077405929
4.13597900390625,1.624138786418736,1.9106287466451524,5.796187447193264,0.260055661201477,0.9421256184577942,-0.1505859941244125
4.145945068359374,1.5346116602286697,2.348421613495052,4.826148236817121,0.265697032213211,1.0624070167541504,-0.0955203473567962
4.155910888671876,1.1616114374153317,2.688354410095513,3.8300107085883615,0.366159439086914,1.0506500005722046,-0.0511314272880554
4.165876953125,0.8800807070314883,2.884481962351501,2.8903754043042658,0.5335811972618103,0.9419025182724,-0.0123645896092057
4.1758437499999985,0.7581441070806234,2.766409417417645,2.0858944203972816,0.7261279225349426,0.7711703777313232,-0.0030323709361255
4.185809814453123,0.7128926143381744,2.345109127946198,1.2744096952080726,0.9557899236679076,0.5459902286529541,-0.0540755800902843
4.195775878906254,0.4261620868215337,2.042662304653227,0.2131634427309036,1.1951183080673218,0.2575255334377289,-0.144876167178154
4.2057421875,-0.0220492616575211,2.071202170439064,-0.4313187023997306,1.4023836851119995,-0.0085724405944347,-0.2812811434268951
4.215708007812502,-0.4266481898380443,1.8631869042515756,-1.0700386307418346,1.4805878400802612,-0.2944675087928772,-0.423755943775177
4.225674072265633,-0.6672266955759376,1.49732968506068,-1.8729343912839889,1.4478788375854492,-0.5233800411224365,-0.6051595211029053
4.23564013671875,-0.6416258789166808,0.8747504519194365,-2.702639832818508,1.375172138214111,-0.6604076027870178,-0.7496078610420227
4.245605957031252,-0.3612092107219621,0.0042447979629039,-3.716448626816272,1.2421985864639282,-0.7446540594100952,-0.8254291415214539
4.255572998046873,-0.0603690919732674,-0.6289110665112734,-4.888615506646037,1.0562368631362915,-0.7540278434753418,-0.8422659039497375
4.265539062500004,0.0426294006105512,-0.955560018646717,-5.802475149160623,0.8371371626853943,-0.6240070462226868,-0.8165192604064941
4.275504882812498,-0.7345350487604737,-0.1733510723024606,-5.904003678789734,0.6140533089637756,-0.2022809386253357,-0.6776472330093384
4.2854709472656225,-1.3867419429242611,0.1209223814070224,-5.805040031212568,0.354126900434494,0.3543612957000732,-0.4013179540634155
4.295437011718754,-0.6885442088928073,-1.0140174683123826,-6.316559813052415,0.1574592888355255,0.8521218299865723,-0.1499604284763336
4.305402832031248,0.3011241233218461,-1.9846920539826156,-7.116456976300477,0.1288287043571472,1.1293643712997437,0.0346642769873142
4.315368896484372,1.4409407122321427,-2.787763755613565,-7.843855889570713,0.1889171749353408,1.143049716949463,0.2077235430479049
4.325334960937504,2.383190144537389,-3.467914595496654,-8.1267428568691,0.2363959997892379,0.8739312291145325,0.3158441483974457
4.335301757812502,2.601707223255932,-3.851492472556233,-7.925456314414739,0.2097707390785217,0.3162820041179657,0.3526700139045715
4.345268066406248,2.3368711686939,-4.249472968977689,-7.225596565455198,0.0619381293654441,-0.382235050201416,0.3225893378257751
4.3552341308593725,1.9138171674229203,-4.4850230155617,-6.409478335246443,-0.3387120962142944,-1.1030066013336182,0.2880023419857025
4.3652006835937485,1.2399253879345953,-4.733433128240704,-5.6133425703585145,-0.9275322556495668,-1.5882647037506104,0.3288137018680572
4.3751667480468726,0.2962240032553672,-4.715304181832074,-4.689536118847132,-1.5502640008926392,-1.695166826248169,0.426629900932312
4.385132812500004,-0.8196930199556052,-4.147811752879619,-3.695018885296583,-2.1123950481414795,-1.2980399131774902,0.5357990264892578
4.395098876953128,-1.7463532534629105,-3.1214860071361064,-2.7706016084104776,-2.536810398101806,-0.492247074842453,0.6545225977897644
4.405064697265622,-2.136502617867291,-2.094512026616931,-2.182752035605908,-2.758603096008301,0.4291326105594635,0.7722824811935425
4.41503173828125,-1.935163760703802,-1.3242439856961368,-1.72080380166471,-2.794687509536743,1.1756421327590942,0.8369618654251099
4.424997558593752,-1.4368193945184349,-0.5512272305890917,-0.955187093681097,-2.739755630493164,1.742532730102539,0.8216036558151245
4.434963623046876,-1.1282562803022562,0.1142737371727824,-0.351954658305645,-2.57947325706482,1.921368956565857,0.7306835055351257
4.4449296875,-1.0288701695293188,0.3536021332517266,0.0638099166095256,-2.2706079483032227,1.673216462135315,0.5436316132545471
4.454895507812502,-0.8692842954680323,0.1262146425962448,0.6414560753077269,-1.8431875705718996,1.114441990852356,0.3070620000362396
4.464861572265633,-0.8065794174909591,-0.1098790093451738,1.4577461549520492,-1.3905410766601562,0.454632043838501,0.1007589027285575
4.474827880859372,-0.8503843646869063,-0.2519067226231098,2.546380180570483,-0.9560428857803344,-0.1223928853869438,-0.0473118349909782
4.484793945312504,-0.9133381028585136,-0.3145341514497995,3.881192614293098,-0.5633155703544617,-0.5090305805206299,-0.1467848867177963
4.494759765624998,-1.0335768859155476,-0.1661184907004237,5.109499899017811,-0.266419380903244,-0.7331773042678833,-0.196534588932991
4.504726806640633,-1.2219896260105072,0.0688143007680773,6.126332424750924,-0.0714328661561012,-0.782878041267395,-0.1969865262508392
4.514692626953128,-1.3207342240095137,0.2171978128135204,6.979537984338402,0.0249072257429361,-0.6573541760444641,-0.1580532193183899
4.524658691406252,-1.2293075478084383,0.2146940132990479,7.419199567669629,0.0561263933777809,-0.4741795361042022,-0.1543983072042465
4.534624755859376,-0.9663867522832006,0.0123199678689241,7.467475815060734,0.0699300393462181,-0.353900671005249,-0.2174600809812545
4.544590576171878,-0.463966222700104,-0.1885503949999809,7.356058928623795,0.0481200814247131,-0.2619920670986175,-0.335719883441925
4.554556640625002,-0.1238602249572053,-0.2865913747742772,7.254390698263049,0.0168153252452611,-0.2203564792871475,-0.4312145113945007
4.564522705078126,0.0354208209386095,-0.230137958407402,7.195791209778189,0.0253861770033836,-0.1567593961954116,-0.5012399554252625
4.57448876953125,0.1999811589442193,-0.0308335296809673,7.218875732767581,0.0662903934717178,-0.1088315397500991,-0.576852560043335
4.584455566406248,0.2506549324637279,0.241861421687901,7.043424473315477,0.1118134036660194,-0.1265319883823394,-0.6679497361183167
4.594421630859372,0.2311759596856311,0.5992676233977079,6.684613957765698,0.1871092617511749,-0.1633370816707611,-0.8129088878631592
4.604387695312504,0.3797931708890944,0.9197174286320804,6.35875644826889,0.3124371170997619,-0.1770781874656677,-0.9681280255317688
4.614353759765628,0.3974088705459609,1.173251167935133,6.166663266095519,0.500516951084137,-0.1582786738872528,-1.0775059461593628
4.624319824218752,0.3609579759072512,1.4719672802671788,5.966596036303043,0.686854898929596,-0.148793026804924,-1.1833947896957395
4.6342856445312535,0.5537856829002499,1.939848995910585,5.15649896607995,0.83733069896698,-0.2767683565616607,-1.3467395305633545
4.644251708984378,0.986721611238271,2.002840874135494,4.1456244719684125,1.017561674118042,-0.3728147149085998,-1.495775580406189
4.654217773437502,1.0068566367723046,1.814104308913648,3.60466466063261,1.228011131286621,-0.3497020602226257,-1.6564637422561646
4.664183837890626,1.2643458357028663,1.772542464469373,3.142169314202666,1.376567006111145,-0.2346359193325042,-2.1069698333740234
4.6741496582031274,1.133301946319267,1.6764684008538722,1.7448621381223202,1.4408389329910278,-0.4169482886791229,-2.5416390895843506
4.684116699218748,0.8875322651464491,2.3184087525472044,0.74135846503973,1.3414649963378906,-0.6425782442092896,-2.677074909210205
4.69408251953125,0.9641604545358567,1.6096449816420673,0.6788578774631023,1.1895310878753662,-0.7320103049278259,-2.6651527881622314
4.704048583984374,1.496092544481158,1.05674952557981,-0.1367132402569055,1.115116834640503,-0.8364051580429077,-2.6466541290283203
4.714014648437498,1.4722195014625787,0.9473512854889036,-2.7160329828768965,1.0041966438293457,-1.1275951862335205,-2.536274671554565
4.723980712890622,0.344043848648481,1.4920602202251552,-4.381303697890043,0.9132664799690248,-1.146450400352478,-2.4098589420318604
4.733946533203124,-0.3096092988008633,1.521136092583835,-5.93223082536459,0.8279287815093994,-0.8249855041503906,-2.2810134887695312
4.743912597656248,-0.950783963351324,1.374514914035797,-7.480646262279152,0.737107515335083,-0.1310336291790008,-2.1199448108673096
4.753878662109372,-1.729851615995169,1.2931228712454437,-7.979366768300533,0.6183127164840698,0.8852216005325317,-1.8406486511230469
4.763844482421874,-2.6879145573735235,-0.7179080313473939,-9.329705272457003,0.3065297603607178,1.876475691795349,-1.1260766983032229
4.773811767578124,-2.3921523264110087,-3.023051936390996,-10.570136125695704,-0.0519537851214408,2.6968977451324463,-0.0925965458154678
4.783777587890626,-0.1404805569011717,-3.3352900858581065,-11.418229456835984,-0.0662586912512779,3.077949285507202,0.8745951056480408
4.793743896484372,2.4332768023513256,-2.59167799667269,-11.05373914208412,0.4477675855159759,2.931714534759521,1.5677229166030884
4.803709716796874,4.151152295479178,-2.1631822427392007,-10.38093808044195,1.130050539970398,2.164245128631592,2.0036637783050537
4.813675781249998,4.352181940563023,-2.188293887642026,-10.168260959923266,1.5286606550216677,0.9654031991958618,2.3052687644958496
4.8236416015625,2.809680403867364,-2.677339387345314,-9.60558557586372,1.453984260559082,-0.2155225723981857,2.339594841003418
4.833607910156253,1.2849145764790475,-3.776855456984043,-8.325449319702386,0.9499861001968384,-0.9411969780921936,1.8692920207977293
4.843573730468748,0.3594059241596609,-3.4436095908015965,-6.396285091674328,0.3352337181568146,-1.1880872249603271,1.2746959924697876
4.8535395507812495,-0.2099117474585771,-3.462989998576045,-5.034895032149553,-0.2444049566984176,-0.9363776445388794,1.1076256036758425
4.863505615234374,-0.0320706337278708,-3.8863895984143015,-3.88385744958818,-0.647487461566925,-0.3826891481876373,1.3776086568832395
4.873471679687498,0.3043675256898626,-3.670176704984903,-2.451094929245114,-0.9068790674209596,0.299946665763855,1.7845114469528198
4.883438720703126,-0.2367385622488334,-3.098504359999299,-1.198354045009613,-1.156444787979126,1.0210598707199097,2.050981044769287
4.89340478515625,-0.8964772766895591,-2.479689740088582,0.1785381195515394,-1.404445767402649,1.8044718503952024,2.087038278579712
4.903370849609374,-0.7932081870034337,-1.600928883484006,1.742103779324889,-1.5959222316741943,2.50475811958313,1.9268896579742432
4.9133366699218755,-0.7127179153583943,-0.5032473357960582,1.7700445101737976,-1.6754684448242188,2.7365994453430176,1.682707905769348
4.923302978515622,-0.8009859083328396,0.5483236181020736,1.4507447517573833,-1.5744647979736328,2.5111606121063232,1.4565895795822144
4.933268798828124,-0.7955302002102136,1.07508247012794,1.2781810304403305,-1.3069875240325928,1.910311579704285,1.2910842895507812
4.943234863281248,-0.9569096066247672,0.8335226617351174,1.4176514604508876,-0.9458868503570556,1.1322407722473145,1.157492756843567
4.953200683593749,-1.361480075895786,0.5505316495403647,1.9714222380429505,-0.5674042701721191,0.433479756116867,0.9869441986083984
4.9631667480468735,-1.6834911390975116,0.4635162139102816,3.1335838566869496,-0.1713107228279113,0.0196850076317787,0.8087891340255737
4.973132812499998,-1.9634063971087332,0.4879366616785526,4.277072339043021,0.1867323517799377,-0.158026710152626,0.6474535465240479
4.983098632812499,-2.146410702288896,0.6023977381169796,4.872075290733576,0.4405970871448517,-0.1852740347385406,0.5128571391105652
4.993065673828127,-2.250470650091767,0.7922501556262374,5.603897281143069,0.5769610404968262,-0.0325886271893978,0.3825891017913818
