time,ax,ay,az,gx,gy,gz
0.0,3.2334660804137587,-2.944793223190308,2.038253548300266,-0.6856951117515564,-0.2179406732320785,-0.4000217020511627
0.009965820312499929,2.7213305047631264,-1.418883632594347,2.8545921432614323,-1.0146602392196655,-0.0581033378839492,-0.2584989368915558
0.019931884765624908,1.9289063077442348,0.0341010070443153,3.821874163883925,-1.2480964660644531,0.2884616255760193,-0.1097027510404586
0.029898681640625036,1.1277660125672817,1.4997598348170518,4.401009099835157,-1.4084696769714355,0.625987708568573,-0.0068125938996672
0.039865234375000114,0.3704963502336293,2.9346313101381063,4.568343688327074,-1.4789294004440308,0.8175173401832581,0.0464206710457801
0.04983105468750004,-0.5250425496272743,4.134193561893701,4.398330820536613,-1.390108942985535,0.7569067478179932,0.0824005082249641
0.05979711914062502,-1.4956510843239723,4.793910685557127,3.829966284924745,-1.1292263269424438,0.4095630645751953,0.0789796859025955
0.06976391601562515,-2.090604936175793,5.082725873860716,3.3857495225071905,-0.832947850227356,-0.1353447139263153,0.0360466018319129
0.07972998046875013,-2.424360067054629,5.0641550289034845,3.404998412856459,-0.6307265162467957,-0.6951912641525269,0.0084880795329809
0.0896960449218751,-2.6696915029406547,5.104084303709865,4.040755984261632,-0.5655589699745178,-1.0512391328811646,0.0114740151911973
0.09966284179687479,-3.011651129193604,5.1752054201155895,4.793164835625887,-0.5707006454467773,-1.153536319732666,0.0604306235909462
0.10962890624999977,-3.199021082237363,5.124418066686392,5.324251487722993,-0.6134510636329651,-0.9730042815208436,0.1299580335617065
0.11959472656250014,-3.061411769923568,5.135378436639905,5.6168380112588405,-0.6225133538246155,-0.6172128319740295,0.1898787915706634
0.12956079101562512,-2.7979952267706394,5.139184258663654,5.406753829842805,-0.5738651156425476,-0.2501549422740936,0.2151327431201934
0.1395280761718749,-2.5376483003214,5.000096105968952,5.237598455664515,-0.4667422175407409,0.0832574665546417,0.1888877153396606
0.14949389648437483,-2.2119040419407185,4.803175942030549,4.939522102540731,-0.34764164686203,0.2956538796424866,0.1315218955278396
0.1594599609374998,-1.7698786520875989,4.456249341019988,4.54597052847743,-0.1982899606227874,0.3809514343738556,0.0586066283285617
0.1694260253906248,-1.307301910984516,4.0296372088760135,4.236490737807751,-0.0342432260513305,0.3540042340755462,-0.0058589125983417
0.17939282226562492,-0.9074431265357882,3.746366210696101,3.979306367042661,0.1179248169064521,0.2434406578540802,-0.0576332621276378
0.1893588867187499,-0.5695519918307662,3.4787668289005755,3.844291747397184,0.2385875880718231,0.1103592962026596,-0.1075350418686866
0.19932470703124983,-0.4322958768688142,3.304469415658712,3.688742289245128,0.3543628752231598,-0.0055025443434715,-0.1388761103153228
0.20929101562499985,-0.4648381466964259,3.251688258063793,3.690383626711368,0.4719765782356262,-0.0343578942120075,-0.1486315429210662
0.21925781249999998,-0.515807724824734,3.313069486221671,3.69901584597826,0.6046123504638672,0.0197490602731704,-0.158177301287651
0.22922387695312496,-0.4995743463717401,3.45333837313354,3.5856507480829958,0.7450171709060669,0.1277775317430496,-0.1746209859848022
0.2391896972656249,-0.5404324629934504,3.689471772563458,3.491990467610955,0.8967217803001404,0.213213562965393,-0.2311401665210724
0.24915698242187512,-0.6656248864024877,3.954824836736917,3.4490608419448137,1.0309349298477173,0.2696425020694732,-0.3372096121311188
0.25912280273437505,-0.692449984159693,4.092087527570128,3.4748546238929032,1.126622200012207,0.2857241034507751,-0.461528331041336
0.2690891113281251,-0.4655754114624112,4.080755401694774,3.5712370228052137,1.165921926498413,0.3059838414192199,-0.5678238868713379
0.279054931640625,0.0316903291733935,3.514489884188771,3.4704759704172607,1.1511805057525637,0.3063327968120575,-0.5982192754745483
0.28902197265624974,0.6893857012182474,2.764716642025113,3.047595426017046,1.092967867851257,0.2832378447055816,-0.5659308433532715
0.2989877929687501,1.208497399491817,1.9139450315862891,2.374277647024393,1.008357048034668,0.2276281267404556,-0.4618769586086273
0.3089538574218751,1.3078843870475887,1.080468839341402,1.6659955221563576,0.8967719078063965,0.1580913811922073,-0.3702304065227508
0.31891992187500007,1.1830346030637622,0.2552420045256615,0.6132055478572845,0.7293419241905212,-0.0008898044470697,-0.3382482230663299
0.3288869628906248,0.95343308962062,-0.5124632001698017,-0.8993909721791744,0.5315154194831848,-0.2392038404941558,-0.3946529328823089
0.3388530273437498,0.5558671653494238,-1.3953776693224906,-2.828461676704884,0.3165212571620941,-0.5596773624420166,-0.5158175826072693
0.34881884765625015,-0.1530858445174992,-1.8827374078959225,-5.062382758533954,0.1530247330665588,-0.8395715951919556,-0.7279008626937866
0.35878491210937513,-1.1719225496798753,-2.072595378363133,-7.203465397667884,0.1883602142333984,-0.9063246846199036,-0.9737669229507446
0.36875195312499986,-2.425474896428734,-2.3941034604787825,-8.966597351974249,0.5297002196311951,-0.7578875422477722,-1.2119083404541016
0.37871801757812484,-3.260735195611417,-2.760409884741902,-10.487543182682993,1.0148407220840454,-0.4323333501815796,-1.4490633010864258
0.3886840820312498,-3.580902676773071,-3.367023779249191,-11.610223854809998,1.5368446111679075,0.0005025076679885,-1.6783915758132937
0.39864990234374975,-3.145147745491564,-4.429153244301676,-12.008901685845853,2.045907020568848,0.4946853518486023,-1.849444031715393
0.40861694335937493,-1.8537268558584152,-6.08210165335834,-11.64901623454094,2.429951429367065,0.971770405769348,-1.920439958572388
0.41858276367187486,0.5947296877071261,-8.217847023117542,-10.677033488881587,2.6362645626068115,1.445449948310852,-1.8241654634475708
0.4285490722656249,3.766622816783189,-10.537540847039224,-9.075088121831415,2.654694080352783,1.7838647365570068,-1.544420599937439
0.43851611328125006,6.769127055186033,-12.21696342152357,-7.620043627053499,2.510786771774292,1.790754318237305,-1.1556930541992188
0.44848217773437504,9.373480116775632,-13.65333711810112,-6.103616735073924,2.225811243057251,1.33867609500885,-0.6523013114929199
0.45844799804687497,11.29298395153284,-14.559439570617675,-4.643390453743934,1.7440799474716189,0.4350018501281738,-0.1301500797271728
0.46841406249999995,11.635552357333898,-13.89804136199951,-3.4819816992938515,1.112409591674805,-0.7902218699455261,0.2836002111434936
0.4783808593750001,10.209504824459552,-11.93340951474905,-2.5437439868479967,0.5330018997192383,-1.900577187538147,0.5899838805198669
0.48834692382812506,7.438660054942965,-9.158302411612867,-1.3487480200946331,0.1406330466270446,-2.507021903991699,0.7897467613220215
0.49831298828125004,4.181862198780477,-6.151177527672052,-0.3629214579999447,-0.0469153001904487,-2.605842351913452,0.868607759475708
0.508279052734375,1.280714640571177,-3.4930846925884484,0.7007879697203636,-0.1545634567737579,-2.220648288726806,0.8653078675270081
0.5182458496093751,-0.7803551351711153,-1.1651128696650266,1.920499275535345,-0.2608377933502197,-1.4896148443222046,0.850533664226532
0.5282119140625001,-1.7693229179009795,0.9252011207401752,2.781476638168096,-0.3845821321010589,-0.6335277557373047,0.8620542287826538
0.538177734375,-1.8712822401627895,2.6283628827303644,3.49418184017539,-0.4567212760448456,0.1880869418382644,0.9175901412963868
0.5481440429687501,-1.426718856264651,4.210285452449321,4.218176497960091,-0.4349001348018646,0.8199785947799683,0.994077205657959
0.5581110839843748,-0.8652704567167907,5.679077902072668,4.402600168418884,-0.3166773915290832,1.0838543176651,1.0589910745620728
0.5680771484374998,-0.5565214645396918,6.7971426048368215,4.363493315911293,-0.1238222122192382,0.9644123315811156,1.080952763557434
0.5780429687499997,-0.4421388601649552,7.6432228425890205,4.371044169682264,0.0872626900672912,0.5439667105674744,1.0230540037155151
0.5880100097656249,-0.4216655060546472,8.151802479323745,4.507735198107362,0.2972270846366882,-0.0079150600358843,0.9203203916549684
0.5979758300781248,-0.4721231891380623,8.41701350467801,5.024880418613553,0.4545342326164245,-0.5086336135864258,0.8404964804649353
0.6079421386718749,-0.5673346080422401,8.531696699434518,5.729567733860016,0.4908033013343811,-0.7675389647483826,0.7931787967681885
0.6179079589843748,-0.7654919125601649,8.611219148960709,6.631888914272189,0.4496203958988189,-0.7212023138999939,0.7596328854560852
0.627875,-0.8487227150849997,8.509844348588585,7.116990060263872,0.3673025965690613,-0.4865173399448395,0.7350564002990723
0.6378408203124999,-0.7848667673766613,8.311494444108009,7.230574353867769,0.278938889503479,-0.1514865756034851,0.7014228701591492
0.6478068847656249,-0.6086827366705984,8.054441590768098,7.114832589969039,0.2011793702840805,0.1422449201345443,0.6415963172912598
0.6577731933593749,-0.258206425555516,7.649871194562316,6.556104482230544,0.1324037909507751,0.3082828819751739,0.5841041207313538
0.6677402343750001,0.1061288995640352,7.123752978527546,6.122475164800882,0.0732190236449241,0.378032922744751,0.5204580426216125
0.6777060546875,0.2174007515070959,6.67892188360393,5.573108175125718,0.0110388956964015,0.2862711548805237,0.4075888395309448
0.6876718749999999,0.2232047798770479,6.21384528850913,4.909298229190707,-0.0599492564797401,0.078577347099781,0.2613139152526855
0.6976379394531249,0.2447116965524852,5.65359917742312,4.412674987709522,-0.1146143302321434,-0.1444749534130096,0.1165960878133773
0.7076049804687501,0.2820686549191363,5.13182395902872,4.092898259431124,-0.1483691036701202,-0.3234183490276336,0.0173344817012548
0.7175710449218751,0.3490179107340052,4.574088369458914,3.8395460141748186,-0.1780074536800384,-0.4294637739658355,-0.0011755754239857
0.727536865234375,0.1835619755955413,4.219534342309832,3.618393326255679,-0.2421534061431884,-0.4733841121196747,0.0120270457118749
0.7375029296875,-0.4176883460519835,4.132104480659962,3.244696207219362,-0.3253870904445648,-0.4719723165035248,-0.019364358857274
0.7474699707031252,-1.1928330165658143,4.153158374604582,2.8890625681400297,-0.3784913122653961,-0.399440050125122,-0.1284921765327453
0.7574360351562501,-1.7980314182519912,4.037555142393708,2.570885091751814,-0.3930003046989441,-0.247734859585762,-0.2695085406303406
0.7674020996093751,-2.119801073913276,3.646109600698948,2.154928209134936,-0.3605425059795379,-0.0527238324284553,-0.4246842861175537
0.7773681640625001,-2.099996303246915,2.992446954768896,1.6211965954869985,-0.2938683032989502,0.1269856542348861,-0.5551148653030396
0.7873349609374998,-1.793703033658862,2.0901152529627085,0.8799240551650523,-0.2054276466369629,0.2283429056406021,-0.643632709980011
0.7973010253906248,-1.3555693905472754,0.9963099621862171,-0.0298445186436176,-0.1149804145097732,0.1972266286611557,-0.6562990546226501
0.8072668457031251,-0.9551955692484976,-0.1744692626774311,-1.0254524700403214,-0.0877759531140327,0.0154879875481128,-0.6158474683761597
0.8172331542968752,-0.811043922619149,-1.0007996748208998,-2.284592115402221,-0.109151616692543,-0.2433751970529556,-0.6156368851661682
0.8271999511718748,-0.8663443695586174,-1.8098375913798808,-3.38722368671298,-0.0433563590049743,-0.4151155352592468,-0.6570572853088379
0.8371660156249998,-0.9792522982709108,-2.7960388320058582,-4.323330816870928,0.0956683605909347,-0.4813041388988495,-0.7439321279525757
0.8471318359374997,-1.0016451126690953,-4.000174967548251,-5.446673752298951,0.1987814307212829,-0.5071234703063965,-0.825051486492157
0.85709912109375,-0.9808973620641976,-4.914169634619355,-6.527369970655441,0.2373684197664261,-0.4445475935935974,-0.8993947505950928
0.8670649414062499,-0.7863292411446571,-5.7990282235771415,-7.079234037843346,0.2597821056842804,-0.1882106512784958,-0.8999196290969849
0.8770310058593749,-0.2622908635912463,-7.012406234717369,-7.241907064265012,0.3229308724403381,0.2592974305152893,-0.8167556524276733
0.8869970703124999,0.5528581927917897,-8.161103391632437,-7.45248808928728,0.4035450220108032,0.7222959995269775,-0.6564943790435791
0.896964111328125,1.7182257678702473,-9.14240926143229,-7.489212430572509,0.4893572926521301,1.1336932182312012,-0.4540512561798095
0.906929931640625,2.9860414716407653,-9.875583835494515,-7.218282443049549,0.542486310005188,1.392247200012207,-0.242769107222557
0.9168959960937499,4.11926574961394,-10.543929671293496,-6.782191119420528,0.5345882773399353,1.4791277647018433,-0.0286517012864351
0.9268620605468749,5.345306550711393,-11.223575484263897,-5.858081885570288,0.4027362763881683,1.401143193244934,0.2274767607450485
0.936828857421875,6.26806086282134,-11.441209350407124,-4.7913580784648655,0.0385746285319328,1.0833923816680908,0.5173090696334839
0.946794921875,6.696645171821117,-11.080437763917445,-4.001270361569524,-0.5337536334991455,0.5036349296569824,0.8071954846382141
0.9567612304687501,6.440017850416899,-10.248111326229573,-3.350675871038437,-1.2090249061584473,-0.1730627566576004,1.0894296169281006
0.96672705078125,5.372708352378011,-8.683515738886594,-2.4665257226109505,-1.8439576625823972,-0.6911794543266296,1.3301652669906616
0.9766940917968752,3.542295298220217,-6.6172331969320775,-1.43663263977468,-2.349050998687744,-0.9060447812080384,1.5047498941421509
0.9866599121093751,1.545479237332195,-4.4723447357743975,-0.5984639057993888,-2.68164610862732,-0.8313380479812622,1.5844601392745972
0.9966259765625005,0.0077678940551355,-2.693679696771502,0.1212456220120191,-2.839571714401245,-0.5123414397239685,1.617271900177002
1.0065920410156255,-1.052854417837411,-1.2009645197689534,0.8335872514039278,-2.8526623249053955,-0.0403246507048606,1.639473795890808
1.0165590820312507,-1.7021803497374055,0.187224114832282,1.3829536565572025,-2.7337188720703125,0.430264800786972,1.639662265777588
1.0265249023437506,-2.098602218540013,1.5186509977698326,1.7025088510394095,-2.5232975482940674,0.7328896522521973,1.5814133882522583
1.0364907226562505,-2.348196718697994,2.611952430677414,1.7497575089484452,-2.2011947631835938,0.8073695302009583,1.423345923423767
1.0464570312500006,-2.6097467373266814,3.420829019194841,1.9927859285891052,-1.7729241847991943,0.6736034750938416,1.158930778503418
1.0564240722656257,-2.852150010806322,4.057243593204022,2.2436276523292062,-1.3070799112319946,0.3264700174331665,0.8069730401039124
1.0663901367187507,-2.8229946434706448,4.45831621042192,2.6968793695956466,-0.8949376344680786,-0.1426601856946945,0.4399154484272003
1.0763559570312506,-2.382287788870185,4.562167630040645,3.47683790666461,-0.6083371043205261,-0.5459255576133728,0.1303417980670929
1.0863220214843756,-1.775036619372666,4.5837604531675575,4.623242568728328,-0.4642031192779541,-0.7286900281906128,-0.0668229311704635
1.0962888183593757,-1.1649039030894637,4.710929035487771,5.695917977714538,-0.4301173388957977,-0.690872073173523,-0.1527449786663055
1.1062551269531258,-0.601162387635745,4.8585962159574025,6.25830694604814,-0.4694865942001343,-0.502799928188324,-0.1599355190992355
1.1162209472656257,-0.2026748915402218,5.001940857052802,6.409812097245454,-0.5148625373840332,-0.2304053902626037,-0.1182977929711341
1.1261870117187507,0.1178160128895193,5.033835878485441,6.409632064503431,-0.5112649202346802,0.0905774310231208,-0.0682950839400291
1.1361538085937508,0.463485161184892,4.956829211172461,6.118999013122916,-0.4160418510437011,0.3709511458873749,-0.0362564250826835
1.1461198730468758,0.6456396446026861,4.882959672841429,5.646724615478515,-0.2547988891601562,0.5464449524879456,-0.0390559397637844
1.1560859375000008,0.6065885774029418,4.988564658129215,5.242455248045921,-0.0638488978147506,0.626444935798645,-0.1136439889669418
1.16605322265625,0.4435842001350596,5.1333185815006495,5.026057645699382,0.1487720310688018,0.6134161949157715,-0.2524551451206207
1.17601904296875,0.3208585321657359,5.198958051624894,4.683581009835004,0.3739307522773742,0.4804473519325256,-0.4296621978282928
1.185985107421875,0.306266856505163,5.108464710751176,4.30329691362381,0.6238753795623779,0.2261785566806793,-0.6131635904312134
1.195950927734375,0.5973129091333598,4.76115407885909,4.068483364620804,0.8699318170547485,-0.1349845081567764,-0.7278784513473511
1.2059179687500001,0.9439406002625822,4.429252613022923,4.202253537163138,1.0312304496765137,-0.4921370446681976,-0.7884232997894287
1.215884033203125,1.1200997157230972,4.276753190091252,4.399897923722863,1.0597143173217771,-0.7703418135643005,-0.813359797000885
1.22585009765625,1.131175674880296,3.9853883173048494,4.527825799977779,0.9931083917617798,-0.9205675721168518,-0.8036142587661743
1.23581591796875,1.0058292664859445,3.605961130183935,4.540153366631269,0.8699280619621277,-0.9244159460067748,-0.7761098742485046
1.2457829589843752,0.6524966708905995,3.1948347364634277,4.318773884218931,0.6914440393447876,-0.8386009335517883,-0.7675070762634277
1.2557487792968751,0.1610230307249352,2.829676313191652,3.6655151429146526,0.4766745567321777,-0.7199313044548035,-0.7774572968482971
1.2657153320312502,-0.5389264058120549,2.5550392878443,3.0367806020140646,0.2802152931690216,-0.5350629687309265,-0.7916026711463928
1.2756811523437501,-1.2175504014540464,2.3152327528595924,2.208247711390257,0.0996064394712448,-0.3346580266952514,-0.8411630988121033
1.2856481933593753,-1.650108071064204,1.9158698621690275,1.2280389891773462,-0.0082491878420114,-0.1182010918855667,-0.9316861033439636
1.2956140136718752,-1.74966003992334,1.334853934776783,0.1909656394481658,-0.0241007767617702,0.0547005720436573,-1.0128614902496338
1.3055798339843752,-1.586431863836944,0.6529197186082601,-0.8800660939842462,0.013685218989849,0.1694700270891189,-1.06126070022583
1.3155461425781252,-1.450060568885505,0.1744160711854696,-1.9794693508982657,0.0377157852053642,0.1775111109018325,-1.1083519458770752
1.3255129394531253,-1.5747978324055671,-0.1572925024271011,-3.3022482324779032,0.0328371413052082,0.185586616396904,-1.1600912809371948
1.3354790039062503,-1.8436317244321108,-0.8268816162854432,-4.283557024887204,0.0871450081467628,0.2853399515151977,-1.1625157594680786
1.3454492187500002,-1.839648061623424,-1.630744760555029,-5.278512065333128,0.1655207872390747,0.3786326050758362,-1.1270685195922852
1.3554150390625002,-1.5581393969409167,-2.3969378071218728,-6.579169715997576,0.2210938483476638,0.426040768623352,-1.0599526166915894
1.3653820800781253,-1.328190092973411,-3.398563995894789,-7.300356915146112,0.3335138857364654,0.557096004486084,-0.9706536531448364
1.3753479003906253,-1.003601726629585,-4.276467358887196,-7.491928703793883,0.5093514919281006,0.729985237121582,-0.877927303314209
1.3853142089843753,-0.5567659408200532,-4.892921094885468,-7.819405338925122,0.6673904061317444,0.8120044469833374,-0.7896914482116699
1.3952802734375003,0.3144082600478082,-5.428367695757746,-8.075153539407253,0.755057156085968,0.7653327584266663,-0.7090513706207275
1.4052473144531255,1.751592907682061,-6.473553624793887,-8.016212690138817,0.8002989292144775,0.6862723231315613,-0.5383962392807007
1.4152131347656254,3.456320019292831,-8.026982505956292,-7.610191510602831,0.8117423057556152,0.6123985648155212,-0.2812886238098144
1.4251791992187504,5.170576591271161,-9.630417234781383,-7.087173014149069,0.7803295254707336,0.5759487152099609,0.0251557286828756
1.4351452636718753,6.552501489302515,-10.770767419111728,-6.161207338777184,0.7012327909469604,0.5224205255508423,0.3876925110816955
1.4451120605468755,7.238824295818805,-11.0409825363636,-5.262202735567093,0.5246217846870422,0.2813695669174194,0.7911680936813354
1.4550781250000004,7.314987498044967,-10.76078612332344,-4.54919825835228,0.2462834417819976,-0.1819882690906524,1.2024755477905271
1.4650439453125004,6.763674634999036,-10.22325511739254,-3.7907951350092888,-0.1282608658075332,-0.8198161721229553,1.5309423208236694
1.4750100097656254,5.5261944482594725,-8.941482784461975,-2.9140929645001887,-0.5952612161636353,-1.4930824041366575,1.7345221042633057
1.4849772949218756,3.6772865369901058,-6.998189493316412,-1.7456220165789127,-1.0630507469177246,-1.9037063121795652,1.7853440046310425
1.4949431152343755,1.59586692391932,-4.800018354782462,-0.2562929748833179,-1.4340176582336426,-1.920783519744873,1.7003905773162842
1.5049091796875005,-0.1855651686441153,-2.642763748526573,1.0850497373908758,-1.6872867345809937,-1.6159998178482056,1.550736904144287
1.5148752441406255,-1.3692638616397976,-0.6162678580373525,2.2406208717286584,-1.8397938013076784,-1.1092690229415894,1.397709846496582
1.5248420410156256,-1.847961570329964,1.0974731656342744,3.1339515209555624,-1.9022787809371948,-0.5254600644111633,1.2997020483016968
1.5348081054687506,-1.7515220344029363,2.5083085163295267,3.8875072042673824,-1.9167808294296265,0.0289477780461311,1.2722960710525513
1.5447739257812505,-1.678194493994117,3.832459855306148,4.463493905320763,-1.914361596107483,0.450202077627182,1.275007247924805
1.5547402343750005,-1.7118895505860448,5.083766907346249,4.828832361334562,-1.9092501401901243,0.7074158787727356,1.2865965366363523
1.5647070312500007,-1.5720391813471912,5.880310083991289,5.091071092879772,-1.8721719980239868,0.8199427127838135,1.2893112897872925
1.5746730957031256,-1.4549923261992632,6.243474703097343,5.088269479462504,-1.7805019617080688,0.7740530371665955,1.2552224397659302
1.5846389160156256,-1.218640607843548,6.149956461444496,4.990273215612769,-1.5976935625076294,0.6278880834579468,1.2010058164596558
1.5946049804687505,-0.9046266808755696,5.912155421063304,5.095823255842924,-1.3448957204818726,0.4377474188804626,1.1255509853363037
1.6045720214843757,-0.5982329100551084,5.5781759799093,5.076538709658384,-1.0441657304763794,0.2051075249910354,1.0370546579360962
1.6145383300781257,-0.4408234667174517,5.200442152702808,5.121738618344068,-0.6878634691238403,-0.0387509278953075,0.929835855960846
1.6245041503906257,-0.3210236595995724,4.872949735480547,5.230380194848776,-0.3093004524707794,-0.3056190907955169,0.7965015172958374
1.6344702148437507,-0.3229850228004157,4.636569083291292,5.33533577631712,0.0384123213589191,-0.6050064563751221,0.6311191320419312
1.6444370117187508,-0.2989810468785465,4.448053759604692,5.442115066081286,0.3164564669132232,-0.9163944125175476,0.4273364543914795
1.6544030761718758,-0.2434942105215042,4.100081448933482,5.69917844081521,0.5130817890167236,-1.1624668836593628,0.2074553817510604
1.6643691406250007,-0.1082692360609769,3.676532211491465,6.042942778402566,0.6178907752037048,-1.3249317407608032,-0.0044403667561709
1.6743352050781257,-0.0150675130113959,3.149973265951872,6.19448767708838,0.6050871014595032,-1.3744149208068848,-0.1854483634233474
1.684302001953125,0.0573934736959636,2.7257150034576654,6.525044742578268,0.4921368360519409,-1.2525768280029297,-0.3173656463623047
1.69426806640625,-0.021705781982094,2.3856980357050896,6.668835958397388,0.2993257641792297,-1.010319471359253,-0.4009289741516113
1.7042341308593758,-0.1142519637323915,2.195322763365507,6.615654987829923,0.0719250962138176,-0.6848022937774658,-0.4626035392284393
1.714200439453125,-0.3154898447394371,2.1214882963478563,6.325128319433331,-0.156421959400177,-0.3521274924278259,-0.5399503707885742
1.724167236328125,-0.6576018850751221,2.299118653404713,5.659998523071408,-0.3546295762062073,-0.0271672345697879,-0.6734423637390137
1.73413330078125,-0.9324053530305624,2.4677152246564624,4.931529350221156,-0.4511703252792358,0.3341798782348633,-0.8026111721992493
1.74409912109375,-1.0391188840821384,2.4370780943304298,4.02475645109713,-0.4217434525489807,0.6453174948692322,-0.904398798942566
1.7540649414062508,-0.9972167748328298,2.489389296326041,2.9175732078313827,-0.2704193294048309,0.8700524568557739,-0.9820427298545836
1.764031982421875,-0.8421963820561766,2.357640400478244,1.810941168707609,-0.0276945624500513,0.97726708650589,-1.054619550704956
1.773998046875,-0.5122286607615649,1.895653003570437,0.8530307875424623,0.256468266248703,0.9612765908241272,-1.1223204135894775
1.783964111328125,-0.2244252798490226,1.137843754467368,-0.2117652663707733,0.5135090947151184,0.7929304838180542,-1.1844229698181152
1.793929931640625,0.0100949852958321,0.4735632684111595,-1.199002864307165,0.7293006777763367,0.5352595448493958,-1.2741883993148804
1.8038972167968752,0.1023644324639812,-0.2216062769055366,-2.074248990789056,0.8634081482887268,0.2579698860645294,-1.3696773052215576
1.8138630371093751,0.099837507802248,-0.9411766885071992,-2.8933360076755283,0.9071767926216124,0.0212992113083601,-1.4474200010299685
1.8238293457031252,-0.133216849508509,-1.3930191234976053,-3.8256039980620153,0.8788114786148071,-0.1646658629179,-1.5294498205184937
1.833795166015625,-0.5526840783338993,-1.5775865863412617,-4.720714516443014,0.8155712485313416,-0.2192809134721756,-1.5993207693099976
1.8437622070312503,-0.8297696658771485,-1.958313750144839,-5.508619628602266,0.7547537088394165,-0.0841622427105903,-1.6463255882263184
1.8537280273437502,-0.9346307009298354,-2.515525023579597,-6.308564722645283,0.70870041847229,0.2234919965267181,-1.6654958724975586
1.8636940917968752,-0.6696113256901502,-3.0260365051597358,-7.083734271872043,0.715639054775238,0.6753785014152527,-1.6121312379837036
1.8736601562500002,-0.133436227880232,-3.661930270165205,-7.613705071681737,0.8399125337600708,1.1781532764434814,-1.4464561939239502
1.8836269531250003,0.9473593226648866,-4.3338457811445,-8.057654123073815,1.0319288969039917,1.5523550510406494,-1.2098958492279053
1.8935930175781253,2.4860101752817627,-5.314439118760824,-8.619097919511795,1.1914381980895996,1.678828477859497,-0.9697625041007996
1.9035590820312502,4.236728638216853,-6.463022878429293,-8.815876044631004,1.3086260557174685,1.5708849430084229,-0.7157930731773376
1.9135249023437502,5.976103284838795,-7.711932221677899,-8.678383636695147,1.3635709285736084,1.1875897645950315,-0.4052620828151703
1.9234921875000004,7.124328148066997,-8.624277367976307,-8.406466391700505,1.2281837463378906,0.4509028792381286,-0.0586114600300788
1.9334580078125003,7.501549349576234,-8.889104946970939,-7.606199226096272,0.832996129989624,-0.467129647731781,0.2705249190330505
1.9434243164062504,7.321774381706118,-8.950326600652932,-6.357102251321077,0.1634881049394607,-1.3539351224899292,0.5798375606536865
1.9533901367187503,6.310397783291339,-8.705638138845563,-5.034513923877477,-0.6681594848632812,-1.9513943195343015,0.9090136289596558
1.9633571777343755,4.507072058023512,-7.889365594857931,-3.582867839366197,-1.4358186721801758,-2.1336348056793213,1.2612193822860718
1.9733229980468754,2.1751986976169047,-6.472723019188642,-2.1663491823375223,-2.082581043243408,-1.839094161987305,1.5593887567520142
1.9832890625000004,-0.0450150536380708,-4.645773549488187,-0.6962415584623813,-2.6232802867889404,-1.1540963649749756,1.768834352493286
1.9932551269531253,-1.554441273075342,-2.9522867938160893,0.3205266698628664,-3.045742511749268,-0.2638650238513946,1.9131982326507568
2.0032224121093756,-2.178844652903825,-1.5486118362694978,0.8804156380742788,-3.2697975635528564,0.6519351005554199,2.009694814682007
2.0131882324218755,-2.1631246673330664,-0.2283592582970857,1.1405319706380366,-3.285691022872925,1.3694467544555664,2.046481847763061
2.0231542968750005,-1.8802511440381409,1.0903040046572685,0.960970353257656,-3.1355907917022705,1.6951485872268677,1.9880123138427732
2.0331201171875004,-1.7307336595267055,2.163550491529703,0.8283043425649405,-2.8176212310791016,1.635486364364624,1.8409326076507568
2.0430871582031256,-1.804916355460137,3.0735978822797536,0.9616256022959948,-2.3662846088409424,1.261996865272522,1.6131527423858645
2.0530532226562506,-2.025337952625752,3.691137659949064,1.227048809096217,-1.823045253753662,0.6887688636779785,1.3497769832611084
2.0630190429687505,-2.3136374464921654,3.95569635887444,1.8849077376723289,-1.235349178314209,0.1131289601325988,1.0700784921646118
2.0729851074218755,-2.404486176674813,4.18672425185889,3.018310879343748,-0.6977230906486511,-0.3366299271583557,0.8085060715675354
2.0829509277343754,-2.3355516105279324,4.405304751202464,4.054188297286629,-0.2413651645183563,-0.6527402400970459,0.5863854289054871
2.0929179687500006,-2.1561282325744626,4.48326038980335,4.971712307527661,0.140115886926651,-0.8119245767593384,0.4146671593189239
2.1028840332031256,-1.865515785590559,4.473603795924783,5.853483451864123,0.4649562835693359,-0.8206435441970825,0.2705054581165313
2.1128500976562505,-1.484775177783519,4.406298438414931,6.53695788321197,0.7333402037620544,-0.7160537838935852,0.1518593579530716
2.1228159179687505,-0.9847216695927082,4.33570982145071,6.944184346884489,0.9468165040016174,-0.5755752325057983,0.0496720038354396
2.1327832031250007,-0.5539942841496318,4.2749931946814055,7.23262251856923,1.1258364915847778,-0.4239197671413421,-0.0496233031153678
2.1427490234375006,-0.1047960069924592,4.195000205034018,7.386890704739093,1.245076060295105,-0.3170771896839142,-0.1683182567358017
2.1527153320312507,0.3662403002243489,3.96699808961153,7.2438348174571985,1.3178560733795166,-0.3151621222496032,-0.2814606130123138
2.1626811523437506,0.8191806134540587,3.645699850854277,7.115216036328673,1.3607745170593262,-0.3671944141387939,-0.3749905824661255
2.1726481933593758,1.2297237273938952,3.224524941328168,7.127899576812983,1.3601346015930176,-0.4376650750637054,-0.4394474923610687
2.1826140136718757,1.4212833872124553,2.936151067051292,6.905286753213405,1.287022829055786,-0.5578101277351379,-0.4838194847106933
2.1925800781250007,1.3394012228175998,2.79538182940185,6.641183981361984,1.155793309211731,-0.6464900970458984,-0.5123142600059509
2.2025461425781256,1.089791671220958,2.583244222587347,6.483549533629417,1.0269575119018557,-0.6604170799255371,-0.5423744320869446
2.212513183593751,0.6510869502231478,2.374108135676384,6.175260998570919,0.9011008739471436,-0.636666476726532,-0.5898575186729431
2.222479248046876,0.1025600646339356,2.38442903868258,5.710241686621308,0.7557373046875,-0.5598739981651306,-0.6838948130607605
2.232445312500001,-0.3804404558166861,2.448719432285428,5.138620779561996,0.6315832734107971,-0.4038522839546203,-0.7967376112937927
2.2424111328125007,-0.7054738625142722,2.285783371013403,4.503142609620094,0.5717436075210571,-0.1943366080522537,-0.8983339667320251
2.252378173828125,-0.808416204464063,1.9495552741497757,3.5417817957401274,0.5905454158782959,0.0242394693195819,-0.9868434071540833
2.26234423828125,-0.7951520145475864,1.5577917525470255,2.5512919180095195,0.6891729235649109,0.2124692946672439,-1.045561909675598
2.272310302734375,-0.5977537482360378,0.9918225876390934,1.6713281153559685,0.8323774933815002,0.331464409828186,-1.09727680683136
2.2822761230468758,-0.1956065240565687,0.2247802307665348,0.5989116495668888,0.9627006649971008,0.2769383192062378,-1.1436851024627686
2.2922431640625,0.0372984879113733,-0.5328273582845926,-0.533065258693695,1.0282549858093262,0.0794302001595497,-1.1827752590179443
2.302208984375,0.1287890961941331,-1.1909212646603584,-1.39550918674767,1.0368354320526123,-0.180576354265213,-1.222620964050293
2.312175048828125,0.0159574110558256,-1.6303326726227998,-2.151964683154225,0.978163242340088,-0.4398458898067474,-1.2775115966796875
2.32214111328125,-0.2801909331474453,-2.029502671089768,-2.876967641198635,0.8793340921401978,-0.6117721199989319,-1.319761872291565
2.332108154296875,-0.5203769689690322,-2.5734967355549334,-3.5229818182021377,0.7565496563911438,-0.6322795152664185,-1.337180495262146
2.3420708007812503,-0.6752723471265286,-3.036692339208722,-4.141852552214265,0.6176013350486755,-0.4685574471950531,-1.3126301765441897
2.3520366210937502,-0.7536487684227525,-3.45725466979444,-4.999225752875208,0.4747471213340759,-0.1902801841497421,-1.2272342443466189
2.362002685546875,-0.6657550155881792,-4.027009198459982,-6.066885964047908,0.3843043148517608,0.1133356094360351,-1.0627400875091553
2.37196875,-0.3105126408487558,-4.731045940843225,-7.207373511022329,0.3682362139225006,0.3564477860927582,-0.8508641123771667
2.3819357910156254,0.3223916234845295,-5.475055797174573,-8.299190258330107,0.4035020470619201,0.4988286197185516,-0.6011581420898438
2.3919016113281253,1.2054707451470197,-6.350810457700491,-9.006070115184784,0.4652129709720611,0.524503767490387,-0.3458306491374969
2.4018679199218753,2.323957326585054,-7.3000348435848945,-9.50321416566968,0.520344078540802,0.4252189695835113,-0.1395658701658249
2.4118337402343752,3.450606317821145,-8.058931303402781,-9.70465326833725,0.5757977962493896,0.1322489380836486,0.0917549654841423
2.4218007812500004,4.097076129637658,-8.378170856064557,-9.594778350645305,0.5933075547218323,-0.3717353940010071,0.3417719900608063
2.4317668457031254,4.325304455031454,-8.359589489713311,-8.985925737300514,0.538975715637207,-1.0009249448776243,0.6043267846107483
2.4417329101562504,4.124887388888001,-8.266338374564052,-8.04932702423334,0.3464105427265167,-1.6562585830688477,0.8723196387290955
2.4516987304687503,3.105437081871927,-7.908300012430548,-6.933247942328452,0.0411937832832336,-2.1832363605499268,1.139360427856445
2.4616657714843755,1.7990622226044537,-7.2267352140963075,-5.464156217497587,-0.242592915892601,-2.439901351928711,1.3775031566619873
2.4716315917968754,0.3889291018944233,-6.094722065478563,-3.823973766511679,-0.453460544347763,-2.365548849105835,1.50478196144104
2.4815976562500004,-0.9948846055582166,-4.56570340295136,-2.087227130305767,-0.6096871495246887,-2.003870725631714,1.506404161453247
2.4915637207031254,-1.8197668647199867,-3.114004711470008,-0.4630833754509687,-0.7519809007644653,-1.463323712348938,1.396135926246643
2.5015307617187506,-2.0247325340785083,-1.8467349511444568,0.8638356746733188,-0.933272659778595,-0.8877357840538025,1.2269372940063477
2.5114968261718755,-1.6559364849567413,-0.5603069013625384,1.8937053766340013,-1.1536413431167605,-0.3743371963500976,1.0475566387176514
2.5214626464843755,-0.9682821375757455,0.5144312853723764,2.5929057849019763,-1.3390511274337769,0.023563040420413,0.922618329524994
2.5314289550781255,-0.3366872388079762,1.4002631032764912,3.1090128945320843,-1.4117825031280518,0.2829866409301758,0.8559496402740479
2.5413957519531256,0.1746558712907135,2.1733388950943944,3.4102129326343533,-1.364464521408081,0.4057240188121795,0.8176565766334534
2.5513618164062506,0.386335943596065,2.835522701132297,3.505616257381439,-1.2073866128921509,0.3740230798721313,0.7850624918937683
2.5613276367187505,0.3335033480748534,3.40551922186017,3.60813321352601,-0.9775813221931458,0.2013285309076309,0.7146450877189636
2.5712937011718755,0.1532575478225946,3.866481951895356,3.792542270937562,-0.7205727696418762,-0.0425499081611633,0.5952093601226807
2.5812604980468756,-0.0120465577550232,4.215312925222515,4.147852669411898,-0.4875362813472748,-0.2766406834125519,0.4383758306503296
2.5912268066406257,-0.0170313604302704,4.402584386327862,4.491156988272071,-0.2982282936573028,-0.4220904111862182,0.277016669511795
2.6011926269531256,0.1952408325493335,4.441179782181978,4.99579051772952,-0.1296952217817306,-0.4224959909915924,0.1545008718967437
2.6111586914062506,0.5368807253286242,4.345781718131899,5.326521186220646,0.0238731615245342,-0.3253274857997894,0.0680077448487281
2.6211245117187505,0.8373606324627995,4.312485597729682,5.431040714359283,0.1754810661077499,-0.189104676246643,0.0047155921347439
2.6310917968750007,1.0759764963582157,4.319718471592664,5.567544111257791,0.329038918018341,-0.0224451106041669,-0.054221823811531
2.6410578613281257,1.256340954554081,4.353513189166784,5.6602872768849135,0.4570219218730926,0.1165979951620101,-0.1276214718818664
2.6510239257812507,1.3957384654588996,4.399434397864342,5.5659010202258825,0.5591164231300354,0.2011463046073913,-0.2062083184719085
2.6609897460937506,1.4431198098368945,4.324640730425715,5.449570642784238,0.6590576767921448,0.2386699765920639,-0.2849694192409515
2.670956787109376,1.5076039724461734,4.243226768064499,5.446565031227469,0.7440760731697083,0.2337802797555923,-0.3642980456352234
2.6809226074218757,1.5099210172168909,4.163662232962251,5.361728693202138,0.7713782787322998,0.1864833384752273,-0.4479434192180633
2.6908889160156257,1.405284876961261,4.028960917049647,5.133713133776188,0.7507639527320862,0.1203121095895767,-0.5178476572036743
2.7008547363281257,1.202889350351691,3.9936557949125766,5.141770183503628,0.7079305052757263,0.1098402962088584,-0.5837715864181519
2.710822021484375,0.8902325370810925,4.002059466120601,5.039076701748371,0.6343377232551575,0.1240307763218879,-0.655590295791626
2.720787841796875,0.6140329385921359,4.014304615187645,4.706673131608963,0.5639492869377136,0.1956314742565155,-0.7264711260795593
2.7307536621093758,0.3131573101386428,3.989757033908367,4.443461171117424,0.5202882885932922,0.3243519365787506,-0.7750927805900574
2.740719970703126,0.0139418699823319,3.917870193827152,4.081598282259702,0.5034903883934021,0.4919995069503784,-0.8070788979530334
2.750686767578125,-0.1181827273100614,3.68172685752511,3.6265567589670415,0.5235354900360107,0.643236517906189,-0.8430454134941101
2.76065283203125,-0.0609669482685625,3.2873031768023964,2.913473371297121,0.5685325264930725,0.75583416223526,-0.8776723742485046
2.770618652343751,-0.0007620704136788,2.86272810344398,2.0030746828913686,0.6679511666297913,0.8104915022850037,-0.8853425979614258
2.780584716796876,-0.0325518048409372,2.211898635113239,1.3262398356884717,0.818447470664978,0.813217282295227,-0.8819010257720947
2.790551513671875,0.0767941205408424,1.608476230123639,0.7960428259074688,0.9445930123329164,0.7410910129547119,-0.9256731867790222
2.800517578125,0.1800343494586646,0.9756967977464198,0.020867431461811,1.0211690664291382,0.5188933610916138,-0.9809609651565552
2.810483642578125,0.3924545726068317,0.1286626202702522,-0.7935966017991304,1.0401424169540403,0.1964868158102035,-1.0462095737457275
2.82044970703125,0.4721657861707732,-0.8622598036587238,-1.479526025083661,0.9472567439079284,-0.1197249367833137,-1.0752193927764893
2.830416748046875,0.4710516509164124,-2.107245835983753,-2.2367273714214564,0.7145794034004211,-0.3323898911476135,-1.0780415534973145
2.8403828125,0.5712892274195328,-3.431246952834725,-3.241274416077137,0.3999375700950622,-0.3950327634811401,-1.0653119087219238
2.8503486328125,0.4596181470258161,-4.622467492702604,-4.244358402442932,0.0842899084091186,-0.2276083827018737,-1.0025949478149414
2.86031494140625,-0.0304843509171158,-5.496125473210215,-4.965283735784888,-0.1601725667715072,0.1490653902292251,-0.8438567519187927
2.87028173828125,-0.32432913088575,-6.39284927200675,-5.755946037697791,-0.3230761885643005,0.6084744334220886,-0.5909587740898132
2.880247802734375,-0.0821764529000036,-7.645287958425283,-6.541558070483803,-0.4716196060180664,1.0522677898406982,-0.3486489057540893
2.890213623046875,0.5994477292049676,-8.764105525383354,-7.081991812118887,-0.679600179195404,1.4129821062088013,-0.1810531616210937
2.9001796875,1.651952237626165,-9.64924526937008,-7.399417593356967,-0.9846410751342772,1.5984885692596436,-0.0205095466226339
2.910145751953125,2.554421448206901,-10.028008439624308,-7.817512072524428,-1.2898061275482178,1.5505470037460327,0.1492732465267181
2.9201130371093753,3.197155872887373,-10.089661470460891,-8.05514593964517,-1.4899959564208984,1.3461238145828247,0.3000611662864685
2.9300788574218752,4.091904864479601,-10.16918918068409,-7.957209881550074,-1.62505042552948,0.9947187900543212,0.4530596137046814
2.940044921875,4.593955391706526,-9.85747184022069,-7.939929076403379,-1.811618685722351,0.4071333110332489,0.638994038105011
2.9500107421875,4.214121669611335,-8.60161136265993,-7.707128036266565,-1.9962458610534668,-0.172302559018135,0.8218045234680176
2.9599777832031253,3.3325098074898123,-7.1341890323460095,-6.7153048641055815,-2.07776141166687,-0.5796234011650085,0.9652714133262634
2.9699438476562503,2.166782605318725,-5.697359993216395,-5.8353322936236856,-2.0638344287872314,-0.8399890661239624,1.0477145910263062
2.9799096679687502,1.2489081742048262,-4.096588930642604,-4.661393143424392,-1.991621136665344,-0.8878242373466492,1.053109049797058
2.989875732421875,0.7255237670481205,-2.6326094342589377,-3.336239349406957,-1.874352216720581,-0.8438312411308289,1.0478410720825195
2.9998427734375004,0.5272868214227259,-1.2367647319465875,-2.2495061889737844,-1.729019284248352,-0.7973335385322571,1.052222728729248
3.0098085937500003,0.3851976968137547,0.1647586005240678,-1.237519349706173,-1.5388089418411257,-0.791464626789093,1.0576525926589966
3.0197746582031253,0.1457401213971897,1.390104697355628,-0.3707534667998552,-1.293931245803833,-0.8572617769241333,1.0640116930007937
3.0297407226562503,-0.1948020027406513,2.497843820938468,0.437051108571887,-0.9811154007911682,-0.9525840282440186,1.0396884679794312
3.0397077636718755,-0.3216748900499194,3.302370397552848,1.3112573706120252,-0.6184293627738953,-1.0476977825164795,0.9984784722328186
3.0496738281250004,-0.4477294467136263,3.834741244241595,2.175757646673917,-0.246324360370636,-1.115943431854248,0.9515379071235656
3.0596396484375004,-0.6096406949825585,4.216487814220786,3.072890026271343,0.0922901630401611,-1.123487114906311,0.8942932486534119
3.0696059570312504,-0.5659526521645486,4.470153947731852,4.013932859265804,0.3576393127441406,-1.0298408269882202,0.838498055934906
3.0795727539062505,-0.5149497562885285,4.714363101589679,4.776365091994404,0.564283013343811,-0.8698117733001709,0.791584312915802
3.0895388183593755,-0.2443767655096948,4.825475452122092,5.395937252274155,0.732112467288971,-0.6476459503173828,0.7458906769752502
3.0995046386718754,0.0786988581836223,4.769762332728505,5.909249762749671,0.8763825297355652,-0.3997253775596618,0.6995460987091064
3.1094707031250004,0.3788350664466619,4.715179094147682,6.141745682460069,1.0111442804336548,-0.1716887950897216,0.6489546298980713
3.1194375000000005,0.7204593232654035,4.6802989194244144,6.343502765035629,1.1403489112854004,0.0272155161947011,0.5863850116729736
3.1294038085937506,0.9954045377790928,4.63237630777657,6.425130077886581,1.280656099319458,0.1947919130325317,0.5086345076560974
3.1393698730468755,1.2329942734971642,4.598131508347392,6.523622016298771,1.4277781248092651,0.3598532974720001,0.424420028924942
3.1493359375000005,1.3631763584196566,4.584976258698106,6.615132425260543,1.5573043823242188,0.4927001595497131,0.3357134163379669
3.1593027343750006,1.4808968750454483,4.602189259305596,6.628773997122049,1.6548395156860352,0.5865883231163025,0.2491987496614456
3.1692687988281256,1.6257484135724602,4.556923884168267,6.662265932357311,1.7129206657409668,0.6151551008224487,0.1644594669342041
3.1792348632812506,1.714529835961759,4.436435802525281,6.684060415536165,1.717987298965454,0.570155680179596,0.0886773467063903
3.1892009277343756,1.6598156644776465,4.372359928455949,6.673871614477038,1.667069673538208,0.4591270685195923,0.0202065296471118
3.1991677246093757,1.551384808114171,4.317328946107626,6.697917091453075,1.5416380167007446,0.3134055733680725,-0.0571497753262519
3.2091337890625007,1.3756763590306045,4.223606121793389,6.604999153780937,1.3523186445236206,0.1391000747680664,-0.1496323049068451
3.2190996093750006,1.0286953974843025,4.234281245064735,6.427853949892521,1.1284009218215942,-0.0280692167580127,-0.2542614936828613
3.2290656738281256,0.5398731851428746,4.459204099172354,6.26336189135015,0.8804755806922913,-0.1040900275111198,-0.3776772320270538
3.2390327148437508,-0.0595335544645786,4.593698494336008,6.035086804205179,0.6305049061775208,-0.0608429573476314,-0.5006009936332703
3.248999023437501,-0.6218050338983535,4.53039652724862,5.55277499667108,0.3974019885063171,0.0997034832835197,-0.6200491189956665
3.2589648437500007,-0.7808733138263225,4.001844362065196,5.019955237171054,0.2471373528242111,0.3625766634941101,-0.7216636538505554
3.2689306640625007,-0.6732686791539192,2.9971272215396163,4.17869672048688,0.1721607148647308,0.6435120701789856,-0.7747949361801147
3.278897705078125,-0.2166397405393421,1.8113269531548024,2.983644639632105,0.1654101312160492,0.8642817139625549,-0.7579877376556396
3.2888635253906258,0.2378398380216211,0.4783884966105222,1.7582190478235482,0.1655362397432327,0.9767679572105408,-0.6620369553565979
3.298829833984376,0.362908744648844,-0.6684791067898274,0.3349100000023842,0.1374982148408889,0.952245831489563,-0.5479764342308044
3.3087956542968757,0.1895175595317035,-1.4896540358662604,-1.1108557942986488,0.110215239226818,0.8299347162246704,-0.4755852222442627
3.3187626953125,-0.3542798863828182,-2.216325219383836,-2.5298668526649477,0.0704278796911239,0.5689278841018677,-0.4733795821666717
3.328728515625,-1.034443804943189,-3.0765970640957354,-4.310489455476403,0.0013319533318281,0.2060681730508804,-0.5785533785820007
3.338694580078126,-1.4203449373185637,-4.107625872963666,-5.822836969187855,-0.0839627012610435,-0.1417262703180313,-0.7452273368835449
3.3486601562500007,-1.9982197902061043,-4.932680858343839,-6.800736245414615,-0.1887955963611602,-0.3283601403236389,-0.8554813265800476
3.358627197265625,-2.947878329724073,-5.101248788022994,-7.386632930585741,-0.3147551119327545,-0.3208960890769958,-0.8995118737220764
3.36859326171875,-3.364800842502713,-5.442317895177006,-7.990043645137548,-0.4755787551403045,-0.1820379346609115,-0.8902249932289124
3.3785590820312508,-3.0872163655266163,-6.2537505979180334,-8.786088224610685,-0.6397173404693604,0.0232118889689445,-0.8130013346672058
3.388525390625001,-2.4818422419473527,-7.174198386651277,-9.25617183421254,-0.7708882093429565,0.3251292109489441,-0.6185718774795532
3.3984921875,-1.6741631926514209,-7.874625706365704,-9.414780679935216,-0.83465576171875,0.6777929663658142,-0.3605791926383972
3.408458251953125,-0.5536473338754847,-8.134516413480043,-9.467819027161598,-0.8125107288360596,0.971531093120575,-0.0956692993640899
3.418424072265625,0.5516306968234479,-8.17230692269206,-9.525060671296716,-0.713253915309906,1.0911685228347778,0.1590865552425384
3.4283898925781258,1.5373950073368847,-8.237807861128449,-9.210451701045036,-0.5978238582611084,1.0013610124588013,0.3905469179153442
3.43835693359375,2.1289247299589213,-8.101127354097367,-8.874889374613762,-0.5222659707069397,0.5965902805328369,0.5381808280944824
3.4483232421875,2.422229923158139,-7.552157839307188,-8.31492324951291,-0.4874510169029236,-0.006755456328392,0.5929785370826721
3.4582890625,2.303488685182482,-7.101338902145624,-7.409794025942682,-0.4843830466270447,-0.6650744676589966,0.6590139865875244
3.4682548828125,1.9081329843066632,-6.518656502845883,-5.958256662502884,-0.531431257724762,-1.1467984914779663,0.7315144538879395
3.47822216796875,1.3310356916628778,-5.568009390681982,-4.348014007228612,-0.625203549861908,-1.3481134176254272,0.7985498905181885
3.48818798828125,0.7097598692703991,-4.3356566299587485,-2.633646376091242,-0.7148913145065308,-1.2454819679260254,0.8862475752830505
3.498154296875,0.3319927243161946,-3.0514532704889774,-1.2059329558312892,-0.7596777081489563,-0.9550397992134094,0.9886850118637084
3.5081201171875,0.0374712871950119,-1.552921516162157,0.0233726922810077,-0.7575105428695679,-0.5653746724128723,1.0873029232025146
3.5180871582031252,-0.1574515654463321,-0.079549922055006,1.033489646023512,-0.7013047933578491,-0.2259172648191452,1.1399164199829102
3.528052978515625,-0.2218234267875552,1.2072405312985182,1.812734481865168,-0.5825789570808411,-0.0091012930497527,1.1407259702682495
3.53801904296875,-0.3413942474551498,2.3314134878098964,2.5212159286975857,-0.4118730127811432,0.0536292009055614,1.0623373985290527
3.547985107421875,-0.5237899922829121,3.130694564986229,3.213271141386032,-0.1862332373857498,-0.0010739869903773,0.9271986484527588
3.5579519042968752,-0.5664249458514153,3.6506489976942538,3.936450975656509,0.0429690480232238,-0.1304918974637985,0.7612900733947754
3.5679182128906253,-0.4273853084735572,3.920117680492997,4.656148228508234,0.235246330499649,-0.2717176973819732,0.5986000299453735
3.5778842773437503,-0.173310301900655,4.0881840903908016,5.622009860938787,0.3416603803634643,-0.3568206131458282,0.4561712443828583
3.58785009765625,0.1633848279528319,4.189506868314743,6.462270014235377,0.3749206960201263,-0.3734034299850464,0.3588811159133911
3.5978171386718754,0.5037462252289057,4.2666292709618805,7.213969840547442,0.3443593382835388,-0.2865753173828125,0.3054751455783844
3.6077829589843753,0.8293291555680334,4.427361100187897,7.7616031382977955,0.2523082196712494,-0.1180605888366699,0.2708934545516968
3.6177492675781253,1.0406937321834266,4.583471699354052,7.92224728924036,0.1385805904865265,0.0810799449682235,0.2581302523612976
3.6277150878906252,1.2433802045635878,4.626522905573249,7.926818250417709,0.0671549141407013,0.2927362322807312,0.2620269358158111
3.6376821289062504,1.602075715431571,4.550149859988689,7.798632600009441,0.0433364063501358,0.4878894686698913,0.2607672810554504
3.6476479492187504,1.9011125841505825,4.449896757122874,7.5698162455946205,0.0613000132143497,0.6300683617591858,0.2455934584140777
3.6576140136718753,2.0842975065946576,4.373889622241259,7.291289227071404,0.0904256775975227,0.6729066371917725,0.2034175097942352
3.6675800781250003,1.9638180466495452,4.334290602302551,6.839637930738926,0.1182998046278953,0.6080827713012695,0.1090814918279647
3.6775473632812505,1.920400491335988,4.264222209820151,6.509229333809018,0.137792021036148,0.4666649401187897,-0.0023012203164398
3.6875131835937505,1.7279403755463658,4.171301934060455,6.191406662207841,0.1242035552859306,0.2804702520370483,-0.1188942193984985
3.6974792480468754,1.429502641764283,4.1874324001282455,5.898793835186958,0.074522815644741,0.1062252074480056,-0.2422036379575729
3.7074450683593754,1.0646285883918405,4.182038432130217,5.5671273471504445,0.0118327978998422,-0.0094206966459751,-0.3508718013763428
3.7174121093750006,0.7506870690729469,4.052024397251009,5.137903571203351,-0.0326001793146133,-0.0427488274872303,-0.4389238953590393
3.7273781738281255,0.5126068464241922,3.832695417627692,4.628004084041715,-0.0486848875880241,-0.0251943226903677,-0.4884397387504577
3.7373439941406255,0.320222937675938,3.610853578400612,3.94896442027092,-0.0465748682618141,0.0246403459459543,-0.5218583941459656
3.7473100585937504,0.2420281565569341,3.304499810796976,3.273784354537725,-0.0235613491386175,0.0809189900755882,-0.5438388586044312
3.7572770996093756,0.2093549172934144,2.882887094375491,2.2530302714467045,0.006707873661071,0.0869241505861282,-0.5279757380485535
3.7672429199218755,0.1241475539986044,2.482315996938944,1.2647849577724932,0.0815315693616867,0.1039510145783424,-0.4767398834228515
3.7772092285156256,-0.1916585901483893,1.810440233448148,0.5137351198017597,0.1972160786390304,0.1291019022464752,-0.4105896353721618
3.7871752929687506,-0.5395950257886201,0.9851830034941434,-0.2749403922080993,0.2845111489295959,0.1440674364566803,-0.3882981836795807
3.7971420898437507,-1.069268669282645,0.2269628355026245,-1.1060346577525138,0.2950974702835083,0.1329482048749923,-0.4117236137390136
3.8071081542968757,-1.6900285780422388,-0.567948356026411,-1.7986235389262435,0.2428770661354065,0.1309906095266342,-0.4958609044551849
3.8170739746093756,-2.087557092912495,-1.337664316022396,-2.682284442532062,0.0769360214471817,0.1144451946020126,-0.6268072724342346
3.8270410156250008,-2.286960013577342,-1.9534931981205936,-3.8510406371355055,-0.1599593460559845,0.1529100388288498,-0.748628556728363
3.8370070800781257,-2.547863404865563,-2.411936054289341,-4.989589325001836,-0.3721688389778137,0.3170121610164642,-0.8106607794761658
3.8469731445312507,-2.4568708822980523,-2.864865115472674,-5.907195752829313,-0.4644196033477783,0.6612200736999512,-0.786885678768158
3.8569389648437507,-1.8799618057027456,-3.721697048863768,-6.978673476463556,-0.4088202714920044,1.043296456336975,-0.6721442341804504
3.86690625,-0.8008541717119515,-4.670355617558956,-8.150697732952237,-0.2356340736150741,1.333405375480652,-0.5091304183006287
3.876872070312501,0.5668760140871629,-5.7887160883992905,-9.361000574430824,-0.0205412171781063,1.414164423942566,-0.3416407704353332
3.88683837890625,1.92298875426352,-6.653526745584607,-10.197070874822138,0.1973288655281067,1.3157317638397217,-0.1764199435710907
3.8968041992187508,3.4828757255241274,-7.625380896428227,-10.388685333567857,0.3906983137130737,1.112181544303894,0.0191588718444108
3.906771240234375,4.583101696997881,-8.64857418936491,-10.502863501411676,0.5145162343978882,0.6820210814476013,0.2654399275779724
3.916737060546875,5.001882404863834,-8.995845658290385,-10.264019673979282,0.5098346471786499,0.0619620829820632,0.4914203286170959
3.926703125,5.11876983166635,-9.028868806970118,-9.682744218868017,0.3334583044052124,-0.6630164384841919,0.6699976921081543
3.936669189453125,4.636099419952929,-8.727682797393202,-8.993603432321548,0.0056125237606465,-1.3489559888839722,0.8506228923797607
3.946635986328125,3.384116952869296,-7.981623022794723,-7.991780259671807,-0.3318408131599426,-1.7699596881866455,1.0395512580871582
3.95660205078125,1.9033306985914704,-6.977662838116288,-6.660754943272471,-0.5410113334655762,-1.854417324066162,1.2284338474273682
3.966568115234375,0.628190424086526,-5.829965798154473,-5.285785271206498,-0.6784325838088989,-1.6646947860717771,1.3800510168075562
3.97653515625,-0.4371193515025079,-4.382182234290242,-4.040006627199054,-0.7701574563980103,-1.301539421081543,1.470127820968628
3.986501220703125,-1.184614565731585,-2.8974270763814447,-2.8478958604931828,-0.8042006492614746,-0.8470885753631592,1.5178461074829102
3.996467041015625,-1.4773039651200175,-1.5162076962709423,-1.7172949167609213,-0.7611061930656433,-0.4018533527851105,1.5166226625442505
4.006433349609376,-1.370020671356469,-0.174008659428358,-0.5877022732883691,-0.6475463509559631,-0.0269257389008998,1.4828503131866455
4.016400146484376,-1.0660960305958986,1.09276308824718,0.6091776075154542,-0.4955565333366394,0.2298072576522827,1.4327136278152466
4.0263662109375,-0.7190837971284985,2.193345325812697,1.66429397893548,-0.3106856942176819,0.3342393040657043,1.374128341674805
4.03633203125,-0.4141773057237267,3.09682327504456,2.6757892352938653,-0.1005971729755401,0.3106114864349365,1.3001407384872437
4.0462978515625,-0.240414145489037,3.877634629550576,3.6249873176932335,0.1071366816759109,0.1967835873365402,1.2052197456359863
4.056264892578126,-0.3276706963986158,4.644261975881457,4.532490869179368,0.2821934223175049,0.0494862832129001,1.0907578468322754
4.066231201171876,-0.3892334186032414,5.284087235116958,5.528487527632713,0.3933454155921936,-0.0519376583397388,0.9595539569854736
4.076197265625,-0.3706939916975796,5.54766510631144,6.186950267320871,0.4539687931537628,-0.1217087507247924,0.843345582485199
4.0861630859375,-0.3161690591752529,5.681842106088996,6.830180951085686,0.4886861443519592,-0.1051067262887954,0.736197292804718
4.096130126953126,-0.232396550989151,5.840920322889089,7.385826874899863,0.4797621667385101,-0.025286465883255,0.6158735752105713
4.106095947265626,-0.024145284088701,5.851880692842602,7.504846637555956,0.4433091878890991,0.0653756707906723,0.5028699040412903
4.116062255859376,0.4302572106480598,5.778940544316172,7.654613420653343,0.3999995291233063,0.1959259510040283,0.4015656113624573
4.126029296875,0.803180568832904,5.59943796364665,7.720493713796138,0.389617770910263,0.3345634043216705,0.3260073661804199
4.1359951171875,1.0814791854277253,5.392673866564035,7.651287491101026,0.4141257703304291,0.455935388803482,0.2526513636112213
4.1459609375,1.4101225262507795,5.001246445047855,7.479352715337276,0.4685084521770477,0.5440523624420166,0.1764453053474426
4.155927001953126,1.5678820616677402,4.623178271320462,7.133244444972276,0.5476821064949036,0.5603373050689697,0.0855811908841133
4.165893798828126,1.5890987449586391,4.454714971059561,6.876387406465411,0.6485480070114136,0.5145825743675232,-0.0204997956752777
4.1758603515625,1.563610083436966,4.201278554651141,6.61415101300776,0.718524158000946,0.4055434763431549,-0.1296092420816421
4.185826171875,1.4576150759182869,4.0387142493009565,6.416258789166808,0.7432951927185059,0.2613354921340942,-0.2396540939807891
4.195793212890626,1.2369411114268003,3.983919998317957,6.321914618083834,0.7147599458694458,0.137342169880867,-0.3395399451255798
4.205759033203126,0.8461690850794314,4.006505924135446,6.304480083680152,0.6230562925338745,0.0721034258604049,-0.4442108273506164
4.21572509765625,0.4750206276126205,3.984880952304602,5.940599425259232,0.4945038855075836,0.0317394956946373,-0.5543525218963623
4.225691162109376,0.2292024311229586,3.821960673123598,5.445775342154502,0.3976541459560394,0.0487002469599247,-0.6667876839637756
4.235658203125,0.1039393901631236,3.3180238937586544,4.798861585962772,0.3830320537090301,0.0665841698646545,-0.7602755427360535
4.2456240234375,0.1912783586591482,2.74640883191824,3.9227415992558,0.4264970421791076,0.0490652807056903,-0.8419991135597229
4.255590087890626,0.2033570651181042,2.214482806387544,2.977760257768631,0.4926837980747223,-0.0553961470723152,-0.9016752243041992
4.26555712890625,0.1193628770053386,1.7019594004631042,1.9951415518045423,0.5559473037719727,-0.1922430545091629,-0.945879340171814
4.275523193359376,0.0287022167406976,0.8944768966525792,1.161807398378849,0.6038370132446289,-0.2943017780780792,-0.9842973351478576
4.2854892578125,-0.1424726805664599,0.1296826109677553,0.4734866960436105,0.5905212759971619,-0.3683888018131256,-1.005164623260498
4.295455322265626,-0.4060324315823614,-0.6844038211524486,-0.2362912203401327,0.4682478308677673,-0.4203473627567291,-0.9851320385932922
4.305422119140625,-0.8078561594285071,-1.3422434605062008,-0.9095622375816106,0.2086977660655975,-0.4013167023658752,-0.9494138956069946
4.31538818359375,-1.139583876132965,-1.9997773949116464,-1.703582033228874,-0.1456853449344635,-0.2923009991645813,-0.9245018362998962
4.32535400390625,-1.3597154043108224,-2.7594074297010898,-2.700813786435127,-0.531125545501709,-0.1424610763788223,-0.8827729821205139
4.335321044921875,-1.8926057448290288,-3.050920186525583,-3.916116628158093,-0.8873717784881592,0.0266821272671222,-0.8152496218681335
4.345287597656251,-2.5446649010851976,-2.924567596763372,-5.209842433732748,-1.101222276687622,0.2542523741722107,-0.7460655570030212
4.355253906250001,-2.7489883270174262,-2.9905607026308774,-6.615494828832149,-1.1289122104644775,0.5442363023757935,-0.7103690505027771
4.365219970703125,-2.336443152540177,-3.42439284915626,-7.927963913321495,-0.9255107045173644,0.829652726650238,-0.6602901816368103
4.375186767578125,-1.3414534791722892,-4.343510266068577,-9.184093270951507,-0.5429947972297668,0.9585728645324708,-0.5457749962806702
4.385152832031251,0.0960259136248379,-5.537101042199135,-10.278670130622386,-0.105334959924221,0.8764610290527344,-0.372408002614975
4.395118652343751,1.699134113909304,-6.735509447744488,-10.77044476302862,0.2867009937763214,0.6257880330085754,-0.1656268537044525
4.405085693359375,3.0066350545972584,-7.782955722928047,-10.645480997276303,0.5368431210517883,0.2570548355579376,0.0710785537958145
4.415051757812501,3.7465497505694634,-8.484729781076311,-10.216700288921594,0.6268987059593201,-0.2343204766511917,0.3340254724025726
4.425017822265625,3.907724939648807,-9.043491791084408,-9.783922619885203,0.5610904693603516,-0.8830099105834961,0.6310225129127502
4.434983642578125,3.5911107670545577,-9.297860519906878,-9.137672880560158,0.315081775188446,-1.5583672523498535,0.9341993927955629
4.444950927734375,2.5398048938333986,-8.979832096600532,-8.15128868458271,-0.0332267470657825,-2.0794894695281982,1.2288447618484497
4.454916748046875,0.8350449759315699,-8.124270913797616,-6.677606709352135,-0.2829771935939789,-2.269740104675293,1.460545301437378
4.464882812500001,-1.0329676679760218,-6.848827783888578,-4.881107907494902,-0.4486417174339294,-2.1142895221710205,1.5368754863739014
4.474849609375001,-2.475140698482096,-5.268998971578479,-3.055630848434568,-0.6125297546386719,-1.7025971412658691,1.4669277667999268
4.484815917968751,-2.95584828568995,-3.754793847301602,-1.282380235695839,-0.7990400791168213,-1.1417644023895264,1.31253182888031
4.494781738281251,-2.620816705134511,-2.4622452688127754,0.2770364877045154,-0.963354766368866,-0.5461419820785522,1.1429822444915771
4.504747802734375,-1.915971715108305,-1.1402642596125605,1.386598150539398,-1.059754490852356,-0.0706241205334663,1.0179224014282229
4.514714599609375,-1.0511058206044137,0.1964367643356323,2.151255073580146,-1.0780980587005615,0.2370335608720779,0.9796195030212402
4.524680664062501,-0.2774482833757996,1.3429530700802803,2.9396283877730367,-1.026031732559204,0.4047256708145141,1.010949969291687
4.534646728515625,0.2114014014944434,2.3904461070150136,3.486328204065561,-0.9106186628341676,0.4217294454574585,1.0427883863449097
4.544614013671875,0.4259462155811488,3.25848274050951,3.9433845743119713,-0.7526090741157532,0.3372066020965576,1.0467243194580078
4.554579833984375,0.4773289045549929,3.943579220101237,4.411881791505217,-0.5876256823539734,0.1924656331539154,1.0172711610794067
4.564545898437501,0.466047339823097,4.425815624311566,4.777303249627352,-0.4290072917938232,0.0180198084563016,0.9464135766029358
4.574512695312501,0.5498825379818677,4.63371895455718,5.113738267239928,-0.2787951529026031,-0.1309230625629425,0.8643224239349365
4.584478759765625,0.6905965383127332,4.652138408344984,5.413071342426538,-0.1529333740472793,-0.2284472435712814,0.7912037372589111
4.594444824218751,0.7727277090325951,4.63513583561778,5.692005188184976,-0.0623299665749073,-0.2314222604036331,0.7133225202560425
4.604410644531251,0.9158715668588876,4.625528633838892,5.937999471893907,0.0052065383642911,-0.148678719997406,0.6110271215438843
4.614377685546875,1.0934452252924445,4.576196155393124,5.942215628284216,0.0695312023162841,-0.0395008251070976,0.4957163035869598
4.6243437499999995,1.2956702176406978,4.480513429182768,5.831683707988262,0.1715838015079498,0.0541798584163188,0.382172167301178
4.634309570312501,1.4940356119513512,4.3419829103708265,5.675155760192871,0.2913719713687897,0.1238351091742515,0.2509555518627167
4.64427685546875,1.6729878652617334,4.23850616928339,5.5351580914378165,0.4387363195419311,0.1743132919073104,0.1216208711266517
4.6542429199218756,1.7059174904391168,4.024089511620998,5.425813919621706,0.5931897759437561,0.2092252075672149,-0.0263424962759017
4.6642087402343755,1.677488976073265,3.8065322178453207,5.267147790753841,0.748071551322937,0.192714586853981,-0.1894731521606445
4.67417578125,1.6759224574089049,3.5657033540755507,5.106086291182041,0.8622639179229736,0.1329508572816848,-0.3495261967182159
4.684141845703126,1.6332330702394249,3.406314171630144,5.061392578452825,0.911770224571228,0.0532880313694477,-0.4986621141433716
4.694107666015626,1.5199807850688696,3.2149469656437635,4.900646136179566,0.910889744758606,-0.0567628368735313,-0.6422922015190125
4.70407373046875,1.3627043569937347,2.8974983880519867,4.581953111484647,0.8900782465934753,-0.1893012374639511,-0.7689903974533081
4.714040771484376,1.1756228655025365,2.5987767227619885,4.198973784840106,0.861484706401825,-0.312797874212265,-0.8975369334220886
4.724006591796876,1.006237189699709,2.219532490992546,3.713398007073998,0.8695008754730225,-0.4192716181278229,-1.0162919759750366
4.73397265625,0.8451075933277606,1.7735142321109771,3.205085496842861,0.913105309009552,-0.494308590888977,-1.100580811500549
4.74393994140625,0.5843548625566065,1.402042387908697,2.7671044139444825,0.9320449233055116,-0.5208663940429688,-1.1488523483276367
4.75390576171875,0.0686615944243967,1.1153764865934848,2.2552537927150724,0.893377959728241,-0.4647708833217621,-1.1904296875
4.763871826171876,-0.3595813537918031,0.639023879724741,1.8362334308743475,0.8257479667663574,-0.3023699820041656,-1.2379213571548462
4.773838623046876,-0.645267742550373,-0.0025490999609231,1.4016378987610338,0.7033278346061707,-0.1007620245218277,-1.2772314548492432
4.7838046875,-1.0269473847731947,-0.4387789552778005,0.5546259331166744,0.5212379693984985,0.0847720652818679,-1.3241146802902222
4.793770751953126,-1.353380940592289,-0.7313765847295522,-0.3745072663754225,0.3505674600601196,0.2329508811235427,-1.3559281826019287
4.80373779296875,-1.6554535237453878,-1.2519406737685204,-1.4402771337568758,0.1921073049306869,0.311739057302475,-1.345683455467224
4.81370361328125,-1.9945704739183183,-1.573141881892085,-2.571515206348896,0.0134709887206554,0.3540170192718506,-1.3660523891448977
4.82366943359375,-2.3164313149943947,-1.6040286030650135,-3.772206169873476,-0.1304487586021423,0.4129888713359833,-1.376949667930603
4.83363671875,-2.5383643396362663,-1.884806615385413,-5.004877495026588,-0.1571176499128341,0.5528466105461121,-1.3143064975738523
4.843602783203126,-2.232723396477103,-2.6395781042277813,-6.046805299049615,-0.0625516474246978,0.7961997985839844,-1.1985610723495483
4.85356884765625,-1.6225656918831168,-3.4519349360764027,-7.159583001321554,0.1047001928091049,1.013066291809082,-1.039556860923767
4.863535888671876,-0.84472195501104,-4.046176840266585,-8.127064928430318,0.3198151588439941,1.1530284881591797,-0.8415033221244812
4.873501708984376,0.356189081005007,-4.989816119495034,-8.801631830701231,0.5358026027679443,1.2009060382843018,-0.6178164482116699
4.883467529296876,1.8441656851783397,-6.177114517483115,-8.940662700250744,0.7226853966712952,1.1663906574249268,-0.3638611435890198
4.893433837890626,3.0895944928348062,-7.209473113650083,-8.824095591443777,0.8291111588478088,0.949621081352234,-0.0493258312344551
4.903400634765626,3.8486440973877913,-7.8608742443889374,-8.576673320758342,0.7557818293571472,0.473753273487091,0.3075191378593445
4.91336669921875,3.951226519984007,-8.045624078062175,-8.20106656870842,0.4730395972728729,-0.2565161287784576,0.6516187191009521
4.92333251953125,3.560369884093105,-8.081586202803253,-7.763786912077665,0.0699511170387268,-1.0892603397369385,0.9662824273109436
4.9332998046875005,2.4338658542856573,-7.776289250776172,-6.738006525257229,-0.2660436630249023,-1.6395652294158936,1.2264947891235352
4.943265625,0.9645638477049768,-6.941735200166701,-5.090591784930229,-0.4526264071464538,-1.8201309442520144,1.413837432861328
4.9532319335937505,-0.3416924997493624,-5.750452116456628,-3.416599418801069,-0.6054180860519409,-1.718034744262695,1.4815677404403689
4.963198730468751,-1.3786761253684758,-4.286077483275532,-1.7185440400391816,-0.7807247042655945,-1.3665916919708252,1.4466238021850586
4.9731647949218765,-1.783615062625706,-2.995619155064225,-0.022443302476406,-0.9600489735603333,-0.8518776893615723,1.3640692234039309
4.983130615234376,-1.4441763331525026,-1.9144313537985085,1.2854746945798396,-1.1144050359725952,-0.3011490106582641,1.2954258918762207
4.993097656250001,-0.8808917311534284,-0.757216543906927,2.2993407717227936,-1.196989893913269,0.1645552814006805,1.2503070831298828
