time,ax,ay,az,gx,gy,gz
0.0,-1.0337903825357555,-1.4957161123842,2.6588743408501148,-1.6085137128829956,0.4663981795310974,0.6164665222167969
0.009967285156250227,-0.8921066603899002,-0.6920651495605706,3.5604502558529374,-1.6085898876190186,0.5499340891838074,0.4459743797779083
0.019933105468751933,-0.780758747535944,0.0525239679634571,4.129041585958004,-1.5069847106933594,0.5485287308692932,0.2775241136550903
0.029899169921876023,-0.8204688266336917,0.6009136370390653,4.581026644289493,-1.317702293395996,0.5262346863746643,0.0577784404158592
0.039865234375000114,-1.1653805076252668,1.1755308033049106,5.0443005738765,-1.098703384399414,0.6414955258369446,-0.2349817752838134
0.0498322753906244,-1.6438433115810156,1.69101948877573,5.815759578147531,-0.8996313214302063,0.8941285014152527,-0.5528096556663513
0.05979809570312611,-1.8948855263292788,2.163792483592033,6.559706306114792,-0.7289280295372009,1.2126063108444214,-0.8188959360122681
0.06976391601562426,-1.5784605926968156,2.580388540895283,7.063159101355075,-0.5140327215194702,1.4932986497879028,-1.0202337503433228
0.0797299804687519,-0.9213497790742664,2.951610209728777,7.25459352735877,-0.235474556684494,1.6810647249221802,-1.1582415103912354
0.08969677734375026,-0.2498538086812943,3.4112530893370505,7.273454295173287,0.1305692940950393,1.704543948173523,-1.208873271942139
0.09966333007812622,0.4512100919036194,3.8119723630726337,7.186962006634474,0.5397922396659851,1.5364079475402832,-1.2084378004074097
0.10962915039062437,1.028645713123679,4.207710633525252,7.159396538838744,0.9507234692573548,1.2357512712478638,-1.1519901752471924
0.11959521484375202,1.4112790028095246,4.513686507727206,7.320844407379627,1.312652349472046,0.9195531010627748,-1.0573385953903198
0.12956201171875037,1.56028722262457,4.715091123603284,7.5419766370326276,1.6065621376037598,0.6890912652015686,-0.9764932990074158
0.13952807617188157,1.4282391976997255,4.929609195813536,7.874940763664245,1.8061761856079104,0.5809940695762634,-0.8988544344902039
0.1494941406250021,1.0282645317863672,5.16742835637331,8.213938325241207,1.906031608581543,0.5957900881767273,-0.8483304977416992
0.1594602050781262,0.5276492980595677,5.382414922878146,8.464806352466343,1.9085030555725095,0.6680350303649902,-0.8242605924606323
0.16942602539062435,0.1208610431412234,5.547968473172188,8.445774319738149,1.8214740753173828,0.6983211040496826,-0.8389765024185181
0.1793930664062522,-0.2227045935362577,5.598584561687708,7.9724886992245905,1.7085739374160769,0.8291398286819458,-0.8777766227722168
0.18935888671875034,-0.6491671611417085,5.325479568213224,8.094500044912099,1.597830295562744,1.0033937692642212,-0.8992127776145935
0.19932519531250037,-0.8597858878258615,4.993977915349602,8.02778622355461,1.4770156145095823,1.0714648962020874,-0.8966166973114014
0.20929101562500207,-0.257517109850794,4.345459646570682,7.36970166952908,1.3251795768737793,0.903473734855652,-0.884860098361969
0.2192583007812523,0.6635287909060716,3.3115205032140014,6.179480662092566,1.1867666244506836,0.5581933259963989,-0.8608450293540955
0.22922412109375045,1.5121943689763546,2.268576215624809,4.872315529230237,1.0843877792358398,0.0701253712177276,-0.8301222920417786
0.23919018554688165,1.9424724762819707,1.4392559740155937,2.950208233976364,1.0432538986206057,-0.4403416216373443,-0.8004509210586548
0.2491562500000022,1.9446224939227104,0.7044564291000366,0.9328665408015252,1.0478407144546509,-0.741905927658081,-0.7655346989631653
0.2591232910156265,1.8909886650212109,-0.3951677770882845,-0.5614806213170289,1.0043179988861084,-0.8685829043388367,-0.7009136080741882
0.2690891113281282,1.678905711003393,-1.6501041255414486,-2.156662485581636,0.8255112171173096,-0.8923279643058777,-0.6225090026855469
0.27905493164062634,1.429810684800148,-2.885460744255781,-3.644633682927489,0.5136891007423401,-0.8205600380897522,-0.5856713652610779
0.2890209960937504,1.054008848569542,-4.008684437218308,-5.11188767093718,0.0355298891663551,-0.8496373891830444,-0.5612297058105469
0.2989880371093747,-0.1543993382688611,-4.09339101138413,-7.089718022456765,-0.533601701259613,-0.7168316841125488,-0.4819404780864715
0.30895410156250236,-1.0738321047406645,-4.1185757215231655,-8.148421020191908,-1.1024410724639893,-0.3090120553970337,-0.3487173914909363
0.31892016601562645,-0.6969371395111084,-4.775519288820028,-9.047076079311966,-1.567927002906799,0.2609083950519562,-0.1424364000558853
0.32888623046875054,0.600901069818437,-5.491265758219361,-9.868265621435642,-1.860852122306824,0.6918030381202698,0.1491851508617401
0.33885302734375244,2.850859386473894,-6.542295737108588,-10.508778862935303,-2.0634865760803223,0.7425730228424072,0.5090461373329163
0.34881909179687653,4.839790393200516,-7.600231257602572,-10.813666649639606,-2.3339431285858154,0.3516798913478851,0.8228374123573303
0.3587851562500006,5.422581513571739,-7.584349213337898,-10.65321539092064,-2.700448751449585,-0.3749955594539642,1.087205410003662
0.3687512207031247,5.138254284337163,-7.139862986329198,-10.354372729599476,-3.101289987564087,-1.1066479682922363,1.3227955102920532
0.3787170410156264,4.426849643534422,-6.823100637435913,-9.61317676164508,-3.455929756164551,-1.4824529886245728,1.5498603582382202
0.3886840820312507,3.137141549168527,-6.340743821716308,-8.710123175305128,-3.736546039581299,-1.343072772026062,1.7461289167404177
0.3986499023437524,1.653564787389338,-5.4250628089934585,-7.534051104730367,-3.9220917224884033,-0.8787261843681335,1.8227571249008176
0.40861621093750244,0.5297361873362213,-4.266664050014317,-7.1810688569426535,-4.045938968658447,-0.2134397476911544,1.7669293880462646
0.41858325195312673,-0.6159313195593654,-2.9346064679577943,-6.366005688744783,-4.086943626403809,0.4712413847446441,1.6054584980010986
0.4285493164062508,-1.4762757911160589,-1.3750991436645388,-5.236090389189124,-4.006681442260742,0.91583651304245,1.34406578540802
0.43851513671875253,-1.7689080534897743,-0.3052364540114998,-4.182130786588788,-3.724416255950928,0.9860464930534364,1.0183138847351074
0.4484812011718766,-1.6526254607126116,0.2752475584611296,-3.187626997041702,-3.230459690093994,0.5795691013336182,0.6793672442436218
0.4584479980468785,-1.5116073628686368,0.6001932138100267,-2.327897004121542,-2.474248170852661,-0.082091100513935,0.4091652631759643
0.4684140625000026,-1.3661480677068232,0.6631980976469815,-0.9618407063513994,-1.486080288887024,-0.6897303462028503,0.2059314101934433
0.4783801269531267,-1.261237056032568,0.9624098845414816,0.6545785917311906,-0.4395220875740051,-1.0316282510757446,0.0899877622723579
0.4883461914062508,-1.1937005201153457,1.1592103676229717,2.333686108916998,0.4144279360771179,-1.0875157117843628,0.0049922103062272
0.4983120117187525,-1.0067948235824704,1.446549053633213,3.912721725022793,0.9526956677436828,-1.005903244018555,-0.0413316115736961
0.5082790527343732,-0.3899319587940349,1.4729698814384635,5.074939457768202,1.3220032453536987,-0.8497871160507202,0.0223876219242811
0.5182451171875009,0.4512243761572986,1.218975392755866,5.909986844852567,1.6684943437576294,-0.5707184672355652,0.1264961808919906
0.5282109375000026,0.7631801284864544,1.316267015467584,6.9001125654459,1.9377660751342771,-0.1525745838880539,0.2016044706106186
0.5381772460937526,0.7731512682069093,1.4109095849752424,7.970039552506804,2.076058387756348,0.2626263499259949,0.230674996972084
0.5481442871093734,0.6737107968982309,1.2621058016911149,8.730938584318757,2.0714356899261475,0.6262733936309814,0.1754291802644729
0.5581101074218786,0.4681873840590939,1.3993871972247958,9.400679089346529,1.9748395681381223,0.8622196316719055,0.077651746571064
0.5680761718750027,0.4122533884564414,1.5230410494223237,9.703732061839103,1.8446476459503172,0.9066066145896912,-0.0334522724151611
0.5780422363281268,0.5415676410358399,1.6543337259352209,9.636088266155124,1.687903881072998,0.7784513235092163,-0.1454022377729416
0.5880090332031251,0.480681320255436,2.021138162848353,9.250121448132395,1.5794882774353027,0.6654691696166992,-0.2100422233343124
0.5979750976562528,0.2939406780911609,2.367669627061486,8.931266510874032,1.5482555627822876,0.6534143686294556,-0.2350346595048904
0.6079409179687509,0.0631727512171492,2.6115146237820386,8.63594676298201,1.5296235084533691,0.6438160538673401,-0.2276225537061691
0.6179069824218786,-0.0473999394806101,2.815619730788469,8.027157278001308,1.4662472009658811,0.5730023384094238,-0.2052954137325287
0.6278740234375029,-0.1653418072395026,2.9265067481324074,7.26675275170803,1.4116851091384888,0.550251305103302,-0.1594467312097549
0.6378403320312529,-0.3442789360459893,2.960947070133686,6.722222680670023,1.393505573272705,0.5954403877258301,-0.0796986296772956
0.647806152343751,-0.485600546881184,2.88915609164238,6.013015842172504,1.4181445837020874,0.676262617111206,-0.013785608112812
0.6577722167968787,-0.7044411584656686,2.727807591822743,5.297637037041783,1.4650335311889648,0.7500353455543518,-0.0147579293698072
0.6677390136718806,-1.1600520791441202,2.3956331542640923,4.6804134857147925,1.510043978691101,0.7610441446304321,-0.0852684900164604
0.6777050781250011,-1.314928898731619,1.7725658453449606,3.993184670269489,1.5563608407974243,0.6668657064437866,-0.2181082814931869
0.6876711425781252,-1.0447487066626548,0.9385048389494418,3.136391315323114,1.612137794494629,0.4670073091983795,-0.384882777929306
0.6976372070312529,-0.6845217484436928,0.2298889520823955,2.2526059085547923,1.6355658769607544,0.1390550136566162,-0.5743941068649292
0.7076040039062512,-0.3270030993353575,-0.1697743828594684,1.0398854845404624,1.6268166303634644,-0.2454109489917755,-0.7614511251449585
0.7175700683593718,-0.0038879473492503,-0.4223147272109985,-0.1702852549910545,1.6176204681396484,-0.5021575093269348,-0.8416538238525391
0.7275358886718806,0.4565210212606936,-0.9066641780525444,-1.107382565230131,1.541262984275818,-0.700106680393219,-0.8171054720878601
0.737502441406253,0.8764687270794064,-1.3405916016459465,-2.435658290660381,1.352760672569275,-0.7036817073822021,-0.6825865507125854
0.7474692382812513,1.1952632393874227,-2.298934529009461,-3.494043893009424,1.0422838926315308,-0.5458503365516663,-0.4861328899860382
0.7574353027343719,1.387422034142911,-3.2936440702617165,-4.823751112547517,0.6132906675338745,-0.3595252335071563,-0.3319076299667358
0.7674011230468807,1.3743629383444784,-3.982414269930124,-6.523062044328451,0.1299490928649902,-0.0721469670534133,-0.2549773454666137
0.7773669433593717,1.5087144179061054,-4.6983688291221855,-7.856440645855665,-0.2527524828910827,0.2914552092552185,-0.1807630509138107
0.7873339843750031,2.141895562952012,-5.321338815146684,-8.809899308308959,-0.5118001699447632,0.4967195391654968,-0.0549604669213295
0.7973002929687532,3.285976604373753,-5.699102452969551,-9.793158065742254,-0.7398623824119568,0.3747760355472564,0.144845575094223
0.8072661132812513,4.480139627434313,-5.837758059465885,-10.4969282661438,-0.9843612313270568,-0.0145920570939779,0.3804283142089844
0.817235107421876,4.868545070780813,-5.453768094474077,-10.465798968386649,-1.250645875930786,-0.5632189512252808,0.6369200348854065
0.8272011718750001,4.520498818090558,-4.749867545691132,-9.995213254481554,-1.5321900844573977,-1.0284137725830078,0.9183579683303832
0.8371672363281277,4.024056193873286,-4.299506289169192,-9.104487234795092,-1.7763350009918213,-1.2531837224960327,1.2323585748672483
0.8471330566406259,3.3752254981443284,-3.686001466104388,-8.00085963818431,-1.914751648902893,-1.217713713645935,1.5267457962036133
0.8571000976562502,2.5202546824499965,-2.8626690667331216,-6.668566493806242,-1.943792939186096,-0.9082115292549132,1.744044065475464
0.8670659179687519,1.7086919235885143,-2.040799433390796,-5.050051684749127,-1.8792108297348025,-0.5054227709770203,1.8801665306091309
0.877031982421876,1.227305560336262,-1.195075461730361,-3.3942350267797705,-1.729729175567627,-0.124158002436161,1.9448299407958984
0.8869980468750001,1.0367609227791428,-0.4291995182886719,-1.6256483141988516,-1.4972294569015503,0.0236017890274524,1.9360662698745728
0.8969653320312503,1.1517452924393117,0.1679129729017615,-0.223476162430644,-1.1550110578536987,-0.1727344393730163,1.8361306190490725
0.906931152343752,1.290642160345614,0.681111501608789,0.9087567664176224,-0.7227490544319153,-0.6888184547424316,1.7239593267440796
0.9168972167968761,1.320991413640976,0.9920268780395388,1.913565092357993,-0.2563267052173614,-1.3814702033996582,1.6406465768814087
0.9268630371093778,1.2740526984639464,1.2389976055651903,2.9042011005610227,0.1734203249216079,-2.058624267578125,1.613453388214111
0.9368300781250021,1.0166187368519604,1.4830188356354832,4.043176489406824,0.5048137307167053,-2.501821756362915,1.671879768371582
0.9467961425781262,0.4871528908897191,1.5459601527169349,5.330976412063837,0.7140499353408813,-2.559896230697632,1.7478764057159424
0.9567622070312503,-0.0931629984743893,1.5014818363040685,6.520178013324737,0.8166956305503845,-2.202960252761841,1.7699958086013794
0.966728027343752,-0.6448340273082256,1.289177933011949,7.641390366464853,0.7905274629592896,-1.5777628421783447,1.7018169164657593
0.9766950683593727,-0.9942163509078324,1.0623404774546623,8.138484148067235,0.6473298668861389,-0.8737307190895081,1.531643629074097
0.9866608886718815,-1.1652809197083114,0.8068050429403781,8.282654718592763,0.4711169004440307,-0.2846769392490387,1.2832753658294678
0.996627197265628,-1.026698670709133,0.6611158845454455,8.021609580746292,0.3600316643714905,0.0842097476124763,0.9880607724189758
1.0065942382812523,-0.5351433801420032,0.6959855378746986,7.453429169529676,0.3430512249469757,0.1386741697788238,0.66935133934021
1.0165603027343728,0.3905206819348037,0.7992340231642127,6.42656741721332,0.4561498165130615,-0.0483223423361778,0.3572517335414886
1.0265261230468816,1.1496801766030489,0.9838917946398258,5.5868947084158656,0.6615860462188721,-0.3433209657669067,0.0773488581180572
1.0364921875000022,1.6590509637154638,1.2559671528056262,4.902663905742764,0.9668729901313782,-0.5924844145774841,-0.1446136385202407
1.0464589843750005,1.972522015978396,1.5006553223520516,4.631743270570039,1.2728856801986694,-0.7521271705627441,-0.3034884333610534
1.0564252929687505,2.17419068961814,1.918790425790846,4.488507935068011,1.4720277786254885,-0.8353350162506104,-0.4165654480457306
1.0663911132812522,2.0497543087407943,2.1521710193812846,4.503213921290636,1.478799819946289,-0.7845974564552307,-0.4849297106266022
1.0763569335937504,1.7261771652661262,2.274887882989645,4.580713340556621,1.299665927886963,-0.5961844325065613,-0.5139123201370239
1.0863239746093782,1.3726574496008457,2.3366186552375554,4.477960237568617,0.9842767119407654,-0.2908312976360321,-0.5623366832733154
1.0962900390625023,0.8028881617575884,2.5384622470527884,4.247885407525301,0.649718701839447,0.1330320835113525,-0.6312856674194336
1.1062563476562524,0.2419163667455315,2.6409891400694847,4.076044155263901,0.3619085550308227,0.5365411043167114,-0.7163051962852478
1.1162221679687505,-0.1175507130168378,2.6326749007105827,3.536268585276604,0.1114377006888389,0.8470818996429443,-0.8221922516822815
1.1261892089843748,-0.3717527069702744,2.4800790316671133,2.72650819966197,-0.0842774733901023,1.0425795316696167,-0.9517558217048644
1.1361550292968765,-0.3362221055142581,2.0449936702102423,1.5602946752786635,-0.1767674535512924,1.1743232011795044,-1.0155677795410156
1.1461210937500006,-0.3333370515972376,1.323154729154706,0.3960597574919462,-0.1831009238958358,1.2571039199829102,-1.024075984954834
1.1560871582031282,-0.4853007602170109,1.00061321233809,-0.9026678018927574,-0.074807196855545,1.3473635911941528,-1.0258632898330688
1.1660541992187525,-0.6467758090257645,0.2783674440473317,-2.030012958699465,0.1044078692793846,1.3678733110427856,-1.0419232845306396
1.1760200195312507,-1.0871085696168243,-0.4965589440733194,-3.287742152741551,0.2313524931669235,1.2275018692016602,-1.1060991287231443
1.1859860839843748,-1.7426524992488324,-1.0541513257801531,-4.699775188788771,0.313721626996994,1.0047115087509155,-1.1639741659164429
1.1959531250000026,-2.7420041672185063,-2.090477656534314,-5.807147817146777,0.3174905478954315,0.7723255753517151,-1.2958747148513794
1.2059191894531267,-3.5184482664257284,-3.0298692151904105,-7.009711004284024,0.2519232034683227,0.620937705039978,-1.4790256023406982
1.2158852539062508,-3.702455757299065,-3.887838628178834,-7.974305977779626,0.1134353876113891,0.5962443351745605,-1.588078498840332
1.2258513183593749,-4.753215394814312,-3.6468355768859375,-8.563070911863445,-0.0729739218950271,0.7923603653907776,-1.6058244705200195
1.2358181152343732,-6.276403743752836,-2.4867197848558424,-8.617240308946371,-0.2529452741146087,1.2237980365753174,-1.533001184463501
1.2457841796875009,-6.063112875249981,-2.401855389779806,-8.623612766587733,-0.3511598706245422,1.7332438230514526,-1.4076581001281738
1.2557500000000026,-4.147886571681499,-2.975551349547505,-8.868267326125503,-0.3408313393592834,2.108606100082397,-1.1866544485092163
1.2657160644531267,-1.6107329230092464,-3.736940210703015,-9.146671595051885,-0.2308410704135894,2.230294704437256,-0.822457492351532
1.275682861328125,0.5237567476004362,-4.187525923630595,-8.862519137862325,-0.0862846970558166,1.9229979515075684,-0.3751609921455383
1.2856491699218786,1.957917590434104,-4.26250839163959,-8.702542510917782,0.0625374093651771,1.162057876586914,0.0453062988817691
1.2956149902343732,3.2705034331709144,-4.595658396232128,-8.561997145152091,0.2367323786020279,0.1265883594751358,0.4015648066997528
1.305582275390627,3.944224532267451,-4.959788060978055,-8.072053235304356,0.4581530690193176,-0.8769680857658386,0.6949341893196106
1.3155480957031251,3.775633513973653,-5.011400174793601,-6.958218132933974,0.5999371409416199,-1.6231331825256348,0.930124580860138
1.3255141601562528,3.0053280636519197,-4.773447158721089,-5.28095127517879,0.5696110725402832,-1.9691587686538696,1.102164626121521
1.3354802246093733,2.098921075230837,-4.320663058966398,-3.2120652727276084,0.3331029713153839,-1.8919554948806765,1.2444053888320925
1.3454472656250012,1.2528506282202898,-3.797946175807714,-1.0722089605182408,-0.0635488852858543,-1.481406807899475,1.3567028045654297
1.3554130859375029,0.5488949517166242,-3.0876562182486054,0.8383411679327487,-0.538562536239624,-0.9330065250396729,1.4022670984268188
1.365379150390627,0.1440037991238758,-2.211246893206239,2.2426573459923267,-1.0059077739715576,-0.3857781589031219,1.3715739250183103
1.3753449707031251,0.17423808427006,-1.3395868085175753,3.209962162968516,-1.3830609321594238,0.0779921561479568,1.301025152206421
1.385312011718753,0.408700554813072,-0.524406151419878,3.9546138243347406,-1.64683198928833,0.3853602111339569,1.2095346450805664
1.3952780761718806,0.7434458657730371,0.2996796966671943,4.379646578332782,-1.7792147397994995,0.4531749486923218,1.116534948348999
1.405244384765627,1.0271864542260765,1.0781383505672215,4.436772487133741,-1.7421900033950806,0.3225467801094055,1.037583351135254
1.4152111816406254,1.2770359520584345,1.6430197202384471,4.551672539511323,-1.5164709091186523,0.0735595896840095,0.9784801602363586
1.425177246093753,1.4857722259968518,1.9396020354121923,4.709940024450421,-1.16335129737854,-0.2149431705474853,0.9371721148490906
1.4351430664062512,1.57437259273082,2.19966283839643,4.898666945061088,-0.7580453753471375,-0.5032804012298584,0.8990529775619507
1.4451091308593718,1.5245944163441658,2.438583238196373,5.182054847618937,-0.3622001111507416,-0.6818830966949463,0.8283008337020874
1.4550761718750032,1.1818276384267956,2.6500463067501783,5.758511504271626,-0.0214704759418964,-0.692592203617096,0.6860582232475281
1.4650419921875013,0.9175631732076406,2.7170459593117235,6.314030002313852,0.2653674781322479,-0.5898137092590332,0.4960117936134338
1.4750080566406254,0.7372557789612562,2.768283102335036,6.702329062676429,0.5044077634811401,-0.3696096837520599,0.2686276435852051
1.4849738769531307,0.6963905384790152,2.818594654946029,7.030074577876925,0.710429310798645,-0.1109392717480659,0.0533490069210529
1.4949409179687514,0.9332784095380454,2.827217229601741,7.1658934996426105,0.9013380408287048,0.1759063452482223,-0.1125584691762924
1.5049072265625014,1.3715282994404434,2.830297659960389,7.310400170254707,1.0814247131347656,0.4174048006534576,-0.2363673597574234
1.5148732910156255,1.8386241254031657,2.9242338347643613,7.350429982826113,1.2329736948013306,0.5308699011802673,-0.3387467265129089
1.5248400878906239,2.2915002873554826,3.066713383463025,7.231548751857876,1.3210688829421997,0.5032071471214294,-0.4028038680553436
1.5348061523437515,2.555617672254145,3.2177181839227678,7.096324873375893,1.3370795249938965,0.3959848284721374,-0.4198608696460724
1.5447719726562532,2.5768945612996816,3.345863502320647,6.9508069798946375,1.3078981637954712,0.2731037139892578,-0.407755047082901
1.5547382812500032,2.471573069128394,3.4713334640294318,6.708813748520613,1.259499430656433,0.2207989543676376,-0.3858305811882019
1.5647050781250016,2.1458793718911706,3.495716794657707,6.59236763574481,1.1762733459472656,0.1957142204046249,-0.3904017508029938
1.5746711425781257,1.6452771437764169,3.483599655884504,6.096848556113243,1.0886095762252808,0.1650676280260086,-0.4411759972572326
1.5846369628906238,1.248696869541705,3.176609928464889,5.33188417455852,1.0510361194610596,0.1256273090839386,-0.5411456823348999
1.5946042480468812,0.9025805620007216,2.7173592630445955,4.366772483712435,1.072032451629639,0.1154734641313552,-0.685200035572052
1.6045700683593722,0.6533608134392649,2.0660650998115537,3.546390750840306,1.133070468902588,0.128609612584114,-0.8098426461219788
1.6145361328124999,0.4044951024798676,1.1632219413518905,2.7595570673048493,1.1336907148361206,0.0682541131973266,-0.9260722994804382
1.624502197265624,0.2109229337951168,0.3944324485510587,1.715091269236803,1.0202840566635132,-0.1484319269657135,-1.0677897930145264
1.6344692382812518,0.1905949795048683,-0.4575689959436654,0.2216243970841169,0.8174494504928589,-0.4905759692192077,-1.2090160846710205
1.64443505859375,0.1486866962430998,-1.162883503177762,-1.4335896188169717,0.5501276850700378,-0.7620015740394592,-1.280242681503296
1.6544011230468811,-0.1279289722334593,-1.74790223647058,-2.712216639459133,0.2531103789806366,-0.7899903059005737,-1.2454445362091064
1.664367919921876,-0.3594264554910361,-2.6810195371627805,-3.87400884026885,-0.0583280697464942,-0.6342486143112183,-1.1512786149978638
1.674333984375,-0.6804727653138339,-3.82811101244688,-5.519049837201833,-0.4060767292976379,-0.4527703821659088,-1.0436429977416992
1.6843000488281312,-1.6571216030880809,-4.420183755904436,-7.45357120834887,-0.7643665671348572,-0.121232733130455,-0.9323446750640868
1.6942661132812518,-3.3555998834371565,-4.21620081397295,-8.71021143811047,-1.0609982013702393,0.3613227307796478,-0.8254925608634949
1.704233154296876,-4.5662113524734975,-4.1790035944789645,-9.866237330478429,-1.1884849071502686,0.9125773906707764,-0.7816263437271118
1.7141992187500001,-4.835874973322451,-4.069456009045243,-10.879479138243198,-1.041187047958374,1.335268259048462,-0.7729774713516235
1.7241650390625018,-4.025124992148578,-4.247708297392726,-11.985551205396652,-0.694025993347168,1.3813345432281494,-0.7676116824150085
1.7341320800781261,-2.616554079253971,-4.293561117029189,-12.962542134606837,-0.2602481245994568,1.134493708610535,-0.7050191760063171
1.7440981445312502,-0.9850448371324688,-4.265384823858738,-12.940554759204389,0.1866342425346374,0.6499136090278625,-0.5558580756187439
1.7540642089843779,0.1970187654746696,-4.181439297193289,-12.159383339214324,0.5693866610527039,0.0164336208254098,-0.3459085524082184
1.764030029296876,1.02180885284096,-4.084607985469699,-10.75519107979536,0.791296124458313,-0.738764226436615,-0.1162272989749908
1.7739970703125003,1.605069782681018,-4.102769665104151,-9.236151959490776,0.8375877141952515,-1.4088891744613647,0.1371916681528091
1.783962890625002,2.0050671718828377,-4.378384595572948,-7.311577397340535,0.7370485663414001,-1.72455632686615,0.4237145781517029
1.793929443359378,2.004384011924267,-4.4544823313474655,-4.882625910842418,0.5288618206977844,-1.649358868598938,0.6987490653991699
1.8038962402343728,1.975235074329376,-4.165290126425028,-2.5216625034213065,0.2393724918365478,-1.363919973373413,0.927314519882202
1.8138562011718768,1.9800671706609427,-3.656498892766237,-0.5487123251587153,-0.0910283327102661,-1.00043785572052,1.0809919834136963
1.823822265625001,1.89000199207142,-2.8143074791461227,1.129407934555411,-0.4066721498966217,-0.6652798056602478,1.1515644788742063
1.8337880859375026,1.873559683575481,-1.905032826334238,2.448003392970562,-0.672151505947113,-0.4169274568557739,1.1816402673721311
1.843755126953127,2.0344819208070635,-1.021931894698739,3.370111808392405,-0.832142174243927,-0.2517132461071014,1.1854069232940674
1.853720947265625,2.397843816050887,-0.2872562684237957,4.085598750072718,-0.8798907399177551,-0.2005504667758941,1.16355562210083
1.8636872558593751,2.7429911324292418,0.4059475297778844,4.533584509634971,-0.8495545387268066,-0.2784547507762909,1.1225992441177368
1.873654052734377,2.7594202891826627,1.1847668336838484,4.8251446127325295,-0.7530301809310913,-0.4503559172153473,1.0795358419418335
1.883620117187501,2.5515774569526317,1.8419547311306,5.128422041630745,-0.5942475199699402,-0.6084725856781006,1.0433695316314695
1.8935859375000028,2.4120101424388585,2.2860990128338337,5.491557434642314,-0.396151453256607,-0.6908150911331177,1.0168251991271973
1.903552001953127,2.4651366063401103,2.454994859293103,5.932067159235477,-0.2177918702363968,-0.6818042397499084,0.9885459542274476
1.9135190429687512,2.35210790079236,2.5989538328945634,6.358437883839011,-0.0854298397898674,-0.573651134967804,0.933753490447998
1.9234851074218788,2.087212955649942,2.84926247267127,6.721386229845881,0.012416148558259,-0.3388808071613312,0.8327579498291016
1.933451171875003,1.8592754298962653,3.041508799579739,6.95861619234085,0.115593671798706,-0.0129887145012617,0.6857895851135254
1.9434182128906272,1.6271198480561375,3.200363729017973,7.009920263120532,0.2626549005508423,0.3254109919071197,0.529452919960022
1.9533840332031254,1.4524280286692082,3.366609937751293,6.962398633489013,0.4537071585655212,0.564883828163147,0.3439541459083557
1.963350097656253,1.415791950189322,3.628641164025664,6.766361682125925,0.6886590123176575,0.6157791018486023,0.0922570675611496
1.9733168945312514,1.4388327801674603,3.9643285781413313,6.463128676891326,0.9201511144638062,0.4478100538253784,-0.1629991978406906
1.983282958984372,1.5097833623118695,4.262976009151339,6.087700788539648,1.1437344551086426,0.1838020384311676,-0.3759536743164062
1.993249023437503,1.6604707673855126,4.393641785937548,6.041028469213843,1.3253196477890017,-0.1027301326394081,-0.4919244945049286
2.0032148437500013,1.782552401830256,4.414900847065448,5.964852992027998,1.3886011838912964,-0.2930696606636047,-0.5202844142913818
2.0131821289062515,1.793677606956661,4.377291539639234,6.011089842545986,1.3314454555511477,-0.3099740743637085,-0.4716354012489319
2.023148193359372,1.693210861340165,4.1733062596201895,6.097927583521604,1.1506330966949463,-0.3081261217594147,-0.4168176651000976
2.033114013671881,1.186895370145142,4.097513059750199,5.376826309090853,0.8606513142585754,-0.2389784902334213,-0.414843738079071
2.0430810546875016,0.4024101494319737,4.110646682089567,4.521888226622343,0.5877513289451599,-0.0294851567596197,-0.4215754270553589
2.0530471191406257,-0.5415335195705294,3.740718560197949,3.855781109660864,0.3869402110576629,0.2386104613542556,-0.4671285450458526
2.063012939453131,-1.5600630584798751,3.3265602514356374,2.856627448481321,0.2611747086048126,0.478171557188034,-0.599673867225647
2.0729790039062514,-2.3315993657708165,2.786294267582893,1.622939639762044,0.1851955354213714,0.5438091158866882,-0.779220700263977
2.0829460449218757,-2.784012294125557,1.960958711695671,-0.0061181906193494,0.1729815453290939,0.4974847137928009,-0.9647180438041688
2.0929118652343774,-3.035025282779336,0.9295844503909348,-1.4105951121985911,0.2202846109867096,0.4140457212924957,-1.1557940244674685
2.102878173828131,-3.0734464911103245,-0.0528191515177488,-2.603798350316286,0.285381555557251,0.3155995905399322,-1.3500548601150513
2.1128452148437518,-2.937468871651589,-0.907172712096572,-3.5372406451791525,0.2554702758789062,0.1469913870096206,-1.4999620914459229
2.12281103515625,-2.901723312270641,-1.5299118119746449,-4.706980590122938,0.0703062266111373,-0.0149860000237822,-1.6118478775024414
2.1327770996093776,-2.7010361970141528,-2.2129127805918456,-5.885656705716252,-0.2037034779787063,0.0075187757611274,-1.6219295263290403
2.142744140625002,-2.532543086136877,-2.947702973157168,-6.548710864847898,-0.5334175229072571,0.2267294973134994,-1.4797592163085938
2.1527099609375,-3.586240822930634,-2.387364507612586,-6.790773654326796,-0.8621991276741028,0.7284192442893982,-1.14494788646698
2.162676025390624,-4.620001102589071,-1.9063468315422532,-6.481667957666516,-1.0446596145629885,1.3185935020446775,-0.871565580368042
2.1726420898437517,-3.436158105751872,-2.5735335604339835,-6.858738352528214,-0.967086136341095,1.6482089757919312,-0.7812580466270447
2.18260888671875,-1.2538941459238528,-3.444450133278966,-7.676577999702095,-0.7023919820785522,1.7259608507156372,-0.708356499671936
2.1925751953125,0.8427129532761871,-4.500340411680937,-7.814424627903103,-0.4055565595626831,1.4511209726333618,-0.5266881585121155
2.202541015625002,2.6396640289455653,-5.346405451864004,-8.09602740060985,-0.1810142546892166,0.8647464513778687,-0.2902843058109283
2.212508056640626,3.7925425631985066,-5.64531591772437,-7.91896461430788,-0.0526629500091075,0.1122040152549743,-0.0415618643164634
2.22247412109375,4.433197258995473,-5.767464626055956,-7.291489718079567,-0.0277713909745216,-0.7117160558700562,0.2472064197063446
2.2324401855468814,4.764702418990433,-6.005436346828938,-6.529677078554034,-0.1600119918584823,-1.4204708337783811,0.6235515475273132
2.2424060058593724,4.85094511668235,-6.404903866937756,-5.484976887208223,-0.4686146676540375,-1.810929536819458,1.0645138025283811
2.2523730468750003,4.307257926209271,-6.43460634676218,-4.055005458888411,-0.912661075592041,-1.8765846490859983,1.438061237335205
2.262338867187502,3.2395541681557893,-5.810740873202681,-2.7295927216738463,-1.4240939617156982,-1.6458046436309814,1.6806185245513916
2.272304931640626,1.905599520306289,-5.004996152970195,-1.5133113903075457,-1.943114995956421,-1.0936591625213623,1.7803187370300293
2.2822722167968763,0.511072549529001,-3.9976130081057546,-0.1834077714145183,-2.403531312942505,-0.3236607611179352,1.7855881452560425
2.2922382812500004,-0.2804457116261124,-2.984440173923969,0.8578285432130098,-2.7438619136810303,0.3516441583633423,1.746068239212036
2.302204101562502,-0.3169356596335768,-1.8674843091845512,1.2178332369834184,-2.888705253601074,0.7935347557067871,1.635922908782959
2.312170166015626,0.1427719557739794,-0.7997346661627293,1.4288976616084574,-2.792055130004883,0.9731415510177612,1.5361201763153076
2.322136962890628,0.5210612979713827,-0.054512219171226,1.5779419756501911,-2.4459104537963867,0.9170598983764648,1.4629279375076294
2.332103027343752,0.7191406418822706,0.717676560679078,1.8667577484756708,-1.9221625328063965,0.6307455897331238,1.386197805404663
2.3420690917968763,0.7230530660856515,1.361530929300189,2.207557391038537,-1.3055036067962646,0.1756479889154434,1.280306100845337
2.3520361328125006,0.5672174114033579,1.890735420912504,2.7519237959474325,-0.6755602955818176,-0.3224488794803619,1.1500951051712036
2.3620019531250023,0.4033499145001172,2.2629373329550027,3.537265779620409,-0.0716575533151626,-0.726876437664032,0.977096140384674
2.3719680175781264,0.3758756321191787,2.415916063836217,4.376857239875197,0.5009737610816956,-1.0400460958480835,0.7631489634513855
2.3819350585937507,0.5921572799358517,2.428166181339323,5.094577639696002,1.017194151878357,-1.1792200803756714,0.5345690846443176
2.3919011230468783,0.9294992563255132,2.416848668511212,5.909120583412051,1.4221432209014893,-1.1111712455749512,0.3465161025524139
2.4018671875000024,1.3451615399099883,2.3685595616385338,6.696829296216368,1.6856310367584229,-0.94093257188797,0.2024831920862198
2.4118332519531265,1.6777724691897629,2.3945421441569925,7.260621117085218,1.822877287864685,-0.7461162209510803,0.0921438932418823
2.421800048828125,2.017435362807661,2.480469492289424,7.638272526705265,1.8806748390197756,-0.5722411870956421,0.0012236209586262
2.4317661132812525,2.301555232901871,2.546884038439393,7.927608524012565,1.8605613708496092,-0.4378277361392975,-0.0699544176459312
2.4417319335937506,2.522540455299616,2.542362761622667,8.093083748373388,1.749312162399292,-0.3881881237030029,-0.1083907261490821
2.451698974609375,2.6798411410331724,2.488997666659951,8.047512083765865,1.5554872751235962,-0.3955195546150207,-0.1148672699928283
2.4616650390625026,2.5749527795821425,2.43243406791687,7.8863886248737565,1.323011875152588,-0.3749060034751892,-0.1088176816701889
2.4716311035156266,2.0837164918363094,2.363794246932864,7.690883003908396,1.0579109191894531,-0.3028073012828827,-0.1433769911527633
2.481596923828125,1.4180052423246203,2.348942130237817,7.194515783014893,0.7806932330131531,-0.2299821972846985,-0.2347049266099929
2.491564208984375,0.621388269791007,2.377243511092663,6.420343428131938,0.5171076655387878,-0.0745926052331924,-0.3789094984531402
2.5015300292968767,-0.3085324268169701,2.421223522594571,5.682737593623996,0.2837598621845245,0.1236587166786193,-0.5754485726356506
2.5114963378906268,-0.9786609082490204,2.515788642951846,4.397063577079773,0.1544130593538284,0.3052596747875213,-0.8252445459365845
2.521463134765625,-1.2521293282084167,2.487662618663907,2.7987299707859754,0.2303028851747512,0.527497410774231,-1.0082132816314695
2.5314291992187528,-1.4534874745942652,2.1994249379873274,1.752118977382779,0.4668507277965545,0.6712609529495239,-1.1461807489395142
2.541395019531251,-1.378440124655515,2.062052941560745,0.4959504567861557,0.7947590947151184,0.6619835495948792,-1.2653917074203491
2.5513620605468788,-1.0731037174008786,1.593826942524314,-0.6559902120947837,1.144356608390808,0.5151855945587158,-1.3560045957565308
2.5613278808593734,-0.8582418001890182,1.074036760467291,-1.5246715732336042,1.4021470546722412,0.1787665039300918,-1.4394514560699463
2.571293945312501,-0.7560373440597206,0.6466361082941293,-2.5269518420010804,1.488152265548706,-0.206953763961792,-1.4775450229644775
2.581260253906251,-0.8995941666010767,-0.0609369915217161,-3.0757898393660783,1.3605483770370483,-0.4744363725185394,-1.422253131866455
2.591227294921879,-0.8597101922411471,-1.2647493019372225,-3.385087843728065,1.0234750509262085,-0.5549424290657043,-1.3186681270599363
2.601193115234377,-0.2228063003450631,-2.9177877273648978,-3.919375922214985,0.519097626209259,-0.4869202673435211,-1.173963189125061
2.6111589355468787,-0.3398845735445618,-4.109080163425207,-4.752511922720075,-0.0945940017700195,-0.3354202210903168,-0.9681107997894288
2.621125976562503,-2.549787943187356,-3.518066573631763,-5.7553901573807,-0.73175048828125,-0.0068064369261264,-0.7141941785812378
2.631092041015627,-4.587386826971173,-3.456512326994538,-6.742824739193916,-1.269356369972229,0.548410952091217,-0.5856186151504517
2.641058105468751,-5.255428711387514,-3.8119244322776793,-7.790496639826894,-1.5285584926605225,1.207993984222412,-0.537900984287262
2.651023925781253,-4.888920627072453,-4.141571397185325,-8.903266743314266,-1.4488959312438965,1.742017149925232,-0.4293409585952759
2.6609909667968807,-3.2886680354148146,-4.771391979756951,-10.021371778088808,-1.1695281267166138,1.885599493980408,-0.2638741433620453
2.6709570312500013,-1.4501782039158044,-5.206178066006302,-11.045071851503849,-0.8297968506813049,1.6432225704193115,-0.0724384039640426
2.6809230957031254,-0.0812620323356706,-5.369143353372812,-11.280845769971608,-0.5168628692626953,1.0654218196868896,0.0780311822891235
2.690889892578131,0.7727179182909428,-5.307466941660643,-10.987021813595296,-0.2616654634475708,0.3081557154655456,0.2025507390499115
2.700856201171881,1.2910184463120995,-5.414962855261564,-10.08990813869834,-0.153737261891365,-0.5110293030738831,0.3337598741054535
2.710822021484372,1.578215824155509,-5.686033712559938,-8.966359451565147,-0.2550154328346252,-1.1354570388793943,0.5091413259506226
2.720788085937503,1.428626151190698,-5.877727081760764,-7.318884505483508,-0.4983783364295959,-1.3443976640701294,0.7276407480239868
2.7307548828125014,0.9624119303680956,-5.687080591264367,-5.370477816846966,-0.8079921007156372,-1.228179097175598,0.939004123210907
2.7407209472656255,0.6092288993112742,-5.158019892036915,-3.646483110186457,-1.1358259916305542,-0.857440710067749,1.1198567152023315
2.750687011718753,0.4343360409269109,-4.224085429742932,-1.9995359873712064,-1.4514994621276855,-0.4252621531486511,1.2488096952438354
2.760654296875,0.4760029166482388,-3.1011043133646248,-0.7920715841889381,-1.6738308668136597,-0.0823398754000663,1.3090896606445312
2.7706201171875016,0.6129025463227182,-1.870798548299074,0.1904161888718605,-1.759039044380188,0.0902955457568168,1.2894248962402344
2.7805861816406257,0.9217259189102798,-0.6409282520413399,1.010930608212948,-1.699699640274048,0.0431523881852626,1.2351926565170288
2.790552978515624,1.2397083841830492,0.3647656245619058,1.705430291444063,-1.494960069656372,-0.1599125862121582,1.2276636362075806
2.8005190429687516,1.5457313123971224,0.9566548281461,2.449672787487507,-1.186164617538452,-0.4219279587268829,1.2573728561401367
2.8104851074218757,1.7025985751494763,1.3729022181421515,3.356918564820289,-0.8453181385993958,-0.6485552191734314,1.2950043678283691
2.8204514160156258,1.7140695249736309,1.788253536081314,4.384944100219011,-0.5380192995071411,-0.772881031036377,1.3230568170547483
2.83041845703125,1.6835535368092358,2.1448379000142217,5.379237461885809,-0.2587056159973144,-0.7669330835342407,1.3306646347045898
2.8403845214843777,1.6985554372385143,2.3523893480822444,6.17111732289493,-0.005674323067069,-0.6488049626350403,1.2885700464248655
2.850350341796876,1.7084417482197285,2.5004466969132424,6.647229691267013,0.2392515391111374,-0.4679281115531921,1.1924320459365845
2.860317626953126,1.737254147336632,2.6478312610492107,6.83810005364716,0.5040470361709595,-0.2715469300746918,1.051860213279724
2.8702834472656242,1.6915782917022704,2.655174609549344,7.028961648198962,0.7889983057975769,-0.0926759913563728,0.8635909557342529
2.880249511718752,1.6655043776385483,2.7109841750547288,7.209487726697326,1.09457528591156,0.0078827748075127,0.6416443586349487
2.890215576171876,1.8369528311900796,2.712867796844244,7.151485035061836,1.4150105714797974,-0.0124842822551727,0.4009529650211334
2.9001826171875003,2.1657040163017807,2.684431975954771,7.082021038213372,1.7221012115478516,-0.1437418162822723,0.1606824398040771
2.910148437500002,2.510684305550158,2.686293678173423,7.100572009426355,1.9584184885025024,-0.3199717104434967,-0.0371123999357223
2.9201142578125,2.791610786430537,2.647514157924056,7.26421651122868,2.0825746059417725,-0.4613755941390991,-0.1762101501226425
2.930081298828128,3.1417502120077607,2.538468676793576,7.467377030861377,2.080430746078491,-0.5363622307777405,-0.2388852536678314
2.940047363281252,3.2942765229463578,2.4792659617185597,7.66412943701744,1.935605764389038,-0.5207296013832092,-0.2343474328517913
2.950013671875002,3.1513071449041363,2.4896307038664816,7.769267973837256,1.6911180019378662,-0.431990385055542,-0.2073999792337417
2.9599804687500004,2.8271026633113623,2.537966572490334,7.610555083218216,1.3831307888031006,-0.2976523637771606,-0.2111356705427169
2.969946533203128,2.3539577664427456,2.659487504312396,7.221837505182624,1.0870029926300049,-0.185216337442398,-0.2646545469760895
2.9799123535156262,1.86053931235224,2.7161025409817694,6.5579387119203805,0.8719087243080139,-0.114962987601757,-0.3610815703868866
2.9898786621093727,1.5640337156765165,2.519225631663203,5.780998645889759,0.7671391367912292,-0.141816183924675,-0.4984876215457916
2.999845458984378,1.262922086510062,2.1309084511220453,4.81397264585495,0.7764418721199036,-0.3164745569229126,-0.6869726777076721
3.0098115234375022,0.909920695630461,1.7851695985913276,3.716950731119513,0.8698195219039917,-0.6530442833900452,-0.9010362029075624
3.0197773437500004,0.6933961059033871,1.3292290806323288,2.602795310753584,1.0187416076660156,-1.085932374000549,-1.0720349550247192
3.0297443847656282,0.4893662560902536,0.617837299311161,1.6509434989750384,1.15365469455719,-1.5571116209030151,-1.2290706634521484
3.0397102050781264,0.3564493393763899,-0.2029009919136762,0.6534539716154336,1.20039165019989,-2.128671169281006,-1.42145574092865
3.0496767578125024,0.2101931947484612,-0.9313900385081768,-1.0002280124127865,1.2147581577301023,-2.641387701034546,-1.6048468351364136
3.0596435546875007,-0.5323493655093013,-1.8367226756960155,-2.411755437025428,1.2066785097122192,-2.8319859504699707,-1.7302968502044678
3.069609619140625,-2.2192096887789665,-2.549312142369151,-3.2738790470838546,1.0624451637268066,-2.726722240447998,-1.865682363510132
3.0795754394531265,-4.092106524531543,-3.078735245168209,-4.482243029454351,0.8083757162094116,-2.3320956230163574,-2.017301321029663
3.0895415039062506,-5.404947072681784,-4.035483012294769,-5.612090524470806,0.5298812389373779,-1.583831787109375,-2.106581211090088
3.0995083007812525,-6.438184205248952,-5.331825722369551,-6.276759717583656,0.2263492047786712,-0.715121865272522,-2.099789619445801
3.109474365234373,-7.372796712934971,-6.3657292098909615,-7.474303615254163,-0.0792725011706352,0.1285633295774459,-2.036395072937012
3.1194404296875007,-7.922163118088245,-6.587665157142281,-8.470219609686731,-0.3383346199989319,0.8197389841079712,-1.9336191415786743
3.129407714843751,-7.593720852795243,-6.595082739922404,-9.221643541666865,-0.5184207558631897,1.175707459449768,-1.822037935256958
3.1393735351562526,-6.183586928367615,-6.533343199846148,-10.045021533745526,-0.618237316608429,1.2874619960784912,-1.6694402694702148
3.149339599609373,-4.197463380277156,-6.569005464857816,-10.306528443884847,-0.6244275569915771,1.1903223991394043,-1.3653703927993774
3.159305664062501,-2.3604935979522765,-6.40827246658802,-10.202783991771936,-0.5582696199417114,0.9797837734222412,-0.9376783967018129
3.1692724609375027,-1.0219386897657066,-5.843171901208162,-9.495096910187602,-0.4420356750488281,0.7134439945220947,-0.4675367772579193
3.179238525390627,-0.1423431359026581,-5.115037659400701,-8.278380110013485,-0.3731351494789123,0.3863019943237304,-0.0027379849925637
3.189204589843751,0.6471337556179613,-4.66337175002098,-7.02536508501172,-0.4028131365776062,0.0808124020695686,0.4370502829551697
3.199171386718753,1.256169397379458,-4.395068603870272,-5.656382086139917,-0.4994953870773315,-0.1053135693073272,0.8055285811424255
3.209137451171877,1.4409756374150513,-3.851446295326948,-4.142641656765342,-0.5974059700965881,-0.093447059392929,1.0946053266525269
3.219103271484375,1.5992118504330517,-3.0404584137439725,-2.5487784738838672,-0.7008515000343323,0.012241375632584,1.3115787506103516
3.229069580078125,1.828709465110302,-2.174240812370181,-1.1809785473167895,-0.8452199101448059,0.1409724503755569,1.4705705642700195
3.239036621093753,2.063247850433737,-1.1471405751228332,0.0774082338511943,-1.0407793521881104,0.267869085073471,1.6150245666503906
3.2490026855468805,2.4050552087344226,-0.264521289524436,1.1737351520597934,-1.256812334060669,0.3917455077171325,1.755554437637329
3.258968505859375,2.7153850403621798,0.4819961657136678,2.0875427721261977,-1.460885524749756,0.4706554412841797,1.9085108041763303
3.268935546875003,2.83341023902297,1.1954478021740913,2.6676030062288043,-1.5943357944488523,0.4994298219680786,2.087181329727173
3.278901367187501,2.748817062103748,1.7050065130740404,3.11834595554471,-1.6354961395263672,0.5384888648986816,2.237388134002685
3.288867675781251,2.5311665370866656,2.111360285565257,3.5845921789407726,-1.6063766479492188,0.6222698092460632,2.3460073471069336
3.298834472656253,2.0849714603334664,2.444789691621065,4.123898962372541,-1.5574499368667605,0.8079907894134521,2.4008729457855225
3.308800537109377,1.461101602859795,2.7382623503416776,4.817475101017951,-1.5328010320663452,1.056824803352356,2.365260362625122
3.318766357421879,0.5885349247202277,2.9518261905670165,5.4564323452472685,-1.5087053775787354,1.2736629247665403,2.2294065952301025
3.328732177734377,-0.031165099722892,3.0305344011008737,5.657659266468882,-1.4202666282653809,1.4642866849899292,2.011404514312744
3.3386994628906272,-0.3438895714022218,2.9622131445467472,5.877443588644266,-1.257033109664917,1.643632173538208,1.744480848312378
3.3486657714843773,-0.3445597257487475,2.799464130279421,6.022412031549215,-1.039025902748108,1.7226159572601318,1.4428496360778809
3.358631591796879,0.0828787742167711,2.472850249457359,5.9138441048026085,-0.7435031533241272,1.697128176689148,1.137573480606079
3.3685986328124997,0.7676924913443625,2.133807679694891,5.81439939571023,-0.3576646745204925,1.579447865486145,0.8624606728553772
3.3785644531250014,1.4452351945556698,1.943285692360997,5.80428950510621,0.0720879808068275,1.429136872291565,0.6288022398948669
3.388530273437503,1.9787857525482773,1.9005764314472675,5.99426087282002,0.4752109348773956,1.292838215827942,0.469987541437149
3.398497314453131,2.404185440162569,1.9515783044099808,6.351329513138532,0.7786102890968323,1.1945438385009766,0.357863038778305
3.408463623046881,2.715183672571182,2.021906224611401,6.658995532384514,0.9654731154441832,1.1798570156097412,0.2858897745609283
3.418429443359372,2.880946189440787,2.061459067320824,7.1571373617351055,0.9897778630256652,1.3047819137573242,0.2736379206180572
3.428395263671881,2.850551343438029,1.8688924224168064,7.787094722428917,0.800986111164093,1.57279372215271,0.3233314454555511
3.438362548828131,2.693645209980011,1.6914117029637097,8.43094324583113,0.3892899453639984,1.969770908355713,0.3999460935592651
3.4483283691406257,2.5369082956090567,1.5354711996674535,8.832644224080443,-0.1617034524679184,2.421448230743408,0.5083376169204712
3.458294677734372,2.336649342636764,1.3607704663217066,8.638598154273629,-0.7307425737380981,2.864973783493042,0.6149817109107971
3.4682614746093776,2.0257694759108125,1.405007082933187,7.7671806461691855,-1.2133342027664185,3.2781741619110107,0.6741001605987549
3.4782275390625017,1.587811189366132,1.6445505830675362,6.139922558686137,-1.432121992111206,3.6843879222869873,0.6948835849761963
3.488193359375,1.1595005827412008,1.5497615908265112,4.324096540546417,-1.2749693393707275,4.007916927337647,0.7364869713783264
3.498160400390624,0.7722780655689537,1.1616589298188686,2.641293091452121,-0.8851600289344788,4.057310104370117,0.7394428849220276
3.508126220703126,0.6056794997340068,1.1270984885692596,1.012185576710105,-0.5091696381568909,3.699887990951538,0.6942183971405029
3.51809228515625,0.6360930139046161,0.7910112614810466,-0.3802688986420631,-0.2422924190759658,3.09870719909668,0.5794149041175842
3.52805859375,0.3827311971023678,0.389851550501585,-1.2003157004714011,-0.1445211321115493,2.4023802280426025,0.3854901790618896
3.5380256347656243,0.0237203366748988,0.1605325072616338,-2.257258702796697,-0.1584100574254989,1.791658639907837,0.2516619861125946
3.547991455078126,-0.0137115683577954,-0.4173503828018903,-3.349914823538065,-0.2441433370113372,1.2947226762771606,0.1682089269161224
3.55795751953125,0.2315386189855635,-0.8566472244739533,-4.99135282754302,-0.3752029538154602,0.9342928528785706,0.0823383331298828
3.567924316406252,0.8552274208039045,-1.3286942431032658,-6.851431244385242,-0.4777714312076568,0.833390474319458,0.0524006709456443
3.5778903808593725,1.3933183987051247,-1.9097721298158168,-8.46973854817152,-0.4241536259651184,0.899267315864563,0.1411737203598022
3.5878564453125,1.5342432653076945,-1.9164961773738265,-10.158889904987811,-0.1297057420015335,1.0484256744384766,0.300260841846466
3.597823486328128,1.2312164501696825,-1.1286316894859074,-11.532997991788386,0.4197172224521637,1.200616478919983,0.4847607612609863
3.607789306640626,1.0053526619501412,-1.0985095229446888,-12.404218516016003,1.044872164726257,1.1284101009368896,0.5681962966918945
3.6177556152343726,0.7921778210423887,-1.357104929551482,-12.828064690577984,1.605547547340393,0.5810961127281189,0.4455114006996155
3.6277214355468814,1.0546619056507944,-2.065109406521916,-12.912193757116794,1.9464318752288816,-0.3549272418022156,0.1988025605678558
3.637688476562502,1.4739737977840006,-2.9009079042345283,-12.16360826343298,1.9844952821731567,-1.275821566581726,0.0200609993189573
3.6476545410156263,1.5823282279103994,-3.627240649577975,-10.56764606244564,1.7715681791305542,-1.907835841178894,-0.0433145128190517
3.6576206054687503,1.4223033779099583,-4.375225839281082,-8.696533041369914,1.3549036979675293,-2.124466180801392,-0.0100736562162637
3.6675874023437522,1.1896056520171463,-4.851020812267064,-6.8265925712049,0.7740028500556946,-1.9668681621551516,0.138162150979042
3.6775534667968763,0.8779603538766503,-4.7817537992954255,-5.221670234170555,0.119888037443161,-1.5024703741073608,0.3473306894302368
3.687519287109378,0.2146620107255876,-4.4886113954424856,-3.820105400645733,-0.5100358128547668,-0.9061734080314636,0.4614620506763458
3.6974863281250023,-0.6996154188096523,-3.9413714809238902,-3.113453507328033,-0.933318853378296,-0.3404440283775329,0.4489650428295135
3.7074526367187524,-1.3765847060471772,-3.2549381997704505,-2.750881593418121,-1.0793852806091309,0.1310108453035354,0.3503279387950897
3.7174187011718764,-1.7394349985070523,-2.3336621435195206,-2.280162024000287,-0.9847261905670166,0.3837401270866394,0.1487704664468765
3.727384521484378,-1.6666408343225716,-1.1927204230368136,-1.7628145589202642,-0.7332420349121094,0.3456026017665863,-0.1157080605626106
3.7373515625000024,-1.3800880379930138,-0.0482552046030759,-0.8339899869859219,-0.45803964138031,0.0267941802740097,-0.3366347551345825
3.7473173828125006,-0.8517753806538879,0.8527899645239114,0.3554758181691169,-0.2361807525157928,-0.425316572189331,-0.440835177898407
3.7572836914062506,-0.1585959862411022,1.3917173932492732,1.8579723844736813,-0.1045667380094528,-0.7414008378982544,-0.3753974437713623
3.7672504882812525,0.5005022018063813,1.5773510240197182,3.7984506181985136,-0.1560653448104858,-0.8642144203186035,-0.1677566468715667
3.777216552734373,0.9193247760526836,1.5449457149773835,5.486152945250272,-0.3957143425941467,-0.7479173541069031,0.1248801201581955
3.7871823730468783,0.8614081552654504,1.6611071655929088,6.935190308567881,-0.7877588272094727,-0.4701177477836609,0.3896257579326629
3.797149658203125,0.3905577260095625,1.9791309127241368,7.657393991282582,-1.2673577070236206,-0.1115355044603347,0.5483959317207336
3.8071154785156267,-0.3983255104668438,2.493603699150681,7.825562107989191,-1.6608405113220217,0.2145773470401764,0.6066172122955322
3.817081542968751,-1.118288136256486,2.8905601132214067,7.28301590424478,-1.820433974266052,0.4954963326454162,0.5698422789573669
3.827047851562501,-1.6231263945057988,3.0798966901630163,6.528317480638623,-1.7455538511276243,0.626125156879425,0.4759765267372131
3.8370146484375027,-1.809462620587647,3.2137565868154168,5.516892366907,-1.4479680061340332,0.5736145973205566,0.3563209474086761
3.846980712890627,-1.7294034338362514,3.2093627357706427,4.476827434146404,-0.9415585398674012,0.3740050792694092,0.2363985478878021
3.856946533203125,-1.578173738579452,3.098415220411121,3.727105629909038,-0.3256226480007171,0.0934886634349823,0.116494707763195
3.866913574218753,-1.3567944022975862,3.0435002656579018,3.351646761897206,0.3213646411895752,-0.204387754201889,0.0029990379698574
3.876879394531251,-1.0524923065267502,2.9190242834225297,3.477532903191447,0.9076310992240906,-0.5053540468215942,-0.0977159291505813
3.886845703125001,-0.6746157829139381,2.761249842697382,3.9740789877831935,1.344791054725647,-0.7381821870803833,-0.179065927863121
3.8968127441406253,-0.3285266556408256,2.66779823653996,4.80093605414927,1.575735330581665,-0.9375741481781006,-0.2530418038368225
3.906778808593753,-0.0617101313186809,2.6091198375999927,5.516414812523126,1.6112853288650513,-1.0732128620147705,-0.3270119130611419
3.916744628906251,-0.0046751156715676,2.534944009798765,6.264064486661553,1.4639043807983398,-1.0683808326721191,-0.4021904468536377
3.926710693359375,-0.0826283065870404,2.5118904664695263,6.855825679951906,1.1694673299789429,-0.9692617058753968,-0.4630085229873657
3.936677490234377,-0.1563860185740515,2.491832597824931,6.803494604212045,0.8525508642196655,-0.7495796084403992,-0.508752703666687
3.9466437988281307,-0.3231581874102354,2.469292264714837,6.501155917468667,0.6041055917739868,-0.4438332617282867,-0.5277801752090454
3.9566096191406253,-0.5024086199495941,2.446099020653963,5.80887741741836,0.4165008068084717,-0.2046680450439453,-0.5302392840385437
3.966576660156253,-0.3725826549883931,2.476907415893674,4.489168444803357,0.3684856295585632,-0.0366129912436008,-0.507733166217804
3.9765424804687513,-0.1821334406297654,2.3430343674987557,3.116802233234048,0.4789156913757324,0.0514985285699367,-0.4423575401306152
3.986508544921879,0.0121113300869241,2.004585087454319,1.7658780381441117,0.703467607498169,0.0387611612677574,-0.3614046573638916
3.996475585937503,0.2252309702087193,1.354104578691721,0.6276525908827781,0.940179407596588,-0.1462312489748001,-0.3100704550743103
4.006441894531253,0.4501016557376831,0.4692722932189703,-0.4894470662415027,1.1304278373718262,-0.4806308150291443,-0.3235298097133636
4.016407714843751,0.4715208027981221,-0.4252525342285633,-1.262230012592673,1.20208740234375,-0.8544903993606567,-0.3482358753681183
4.026374755859372,0.3134707600019872,-1.1263578993350267,-1.734957414701581,1.1161410808563232,-1.1322823762893677,-0.3608949482440948
4.036340576171881,-0.0181429932002909,-1.817120149603486,-2.0280518877595664,0.9200363159179688,-1.1768200397491455,-0.3730026185512543
4.0463066406250014,-0.3367080624002963,-2.64265795006454,-2.4215403334587813,0.6565378308296204,-0.9516398906707764,-0.4204742610454559
4.0562727050781255,-0.911928747517243,-3.256230577668548,-2.9171552746802565,0.3922088146209717,-0.4614697992801666,-0.5043720602989197
4.066239501953131,-1.3363035490632056,-3.4743840837717053,-3.6518180414736263,0.2376320511102676,0.0886836349964141,-0.6004767417907715
4.0762055664062515,-1.0132951453872023,-3.393790790143609,-4.956711722272634,0.3024699091911316,0.5539871454238892,-0.5881748199462891
4.086171386718753,-0.0683007617553696,-3.7017058157145977,-6.017588556915522,0.4876738488674164,0.779496431350708,-0.4868175685405731
4.096138671875,1.8121175190106036,-4.467115602949262,-6.771375710895657,0.6699568033218384,0.6833866834640503,-0.3456065654754638
4.106104736328131,3.7691111264675854,-5.439942982739209,-7.057665180113911,0.7897700667381287,0.1984495818614959,-0.2139638662338256
4.116070556640626,5.063288767462969,-6.180427003031968,-7.031537636166811,0.8290634155273438,-0.5091761350631714,-0.1039832606911659
4.12603759765625,5.42326891131401,-6.801621796077489,-6.419706883794069,0.6885364055633545,-1.3277114629745483,0.0285817068070173
4.136003662109378,4.627867013658583,-7.0492872278690335,-5.667351223921775,0.2919328510761261,-1.9609806537628172,0.1220963671803474
4.145969482421876,3.0996991227418182,-6.800328249135613,-4.648455920439958,-0.3930870294570923,-2.2692527770996094,0.0991002395749092
4.155935546875,1.1709911140486595,-6.056238313305378,-3.7536283106535673,-1.268619179725647,-2.150620460510254,0.0165264140814542
4.165902343750002,-0.6166529848974198,-5.114417481675744,-3.0205256327837704,-2.1079564094543457,-1.4968500137329102,-0.009092129766941
4.175868408203126,-1.963354813051969,-3.958049059480429,-2.393064765080809,-2.710340738296509,-0.3669860363006592,0.0831633061170578
4.185834716796876,-2.5042133559703825,-2.806827937045693,-2.0624492474019527,-2.981319665908813,0.8913344144821167,0.2486116588115692
4.1958017578125,-1.9917241445764895,-1.8279805663138624,-2.000317493137717,-3.005722522735596,1.8438903093338013,0.3818915486335754
4.205767578125002,-0.8655580414865165,-0.9065548724591732,-2.045733090400696,-2.8697731494903564,2.2838590145111084,0.4195220172405243
4.215733642578126,0.2796725900954567,0.0078057053148746,-1.803203267931938,-2.5978541374206543,2.1773617267608643,0.3961371183395386
4.225700439453128,1.1040989404495805,0.5099360197797418,-1.5034978523015976,-2.1676878929138184,1.6635546684265137,0.3533939123153686
4.235666503906252,1.2834966725051402,0.9145666217401625,-0.8814794679135084,-1.6364524364471436,0.9500219821929932,0.2663673758506775
4.2456325683593725,1.0739572654902934,1.318546358576417,0.0921726722627878,-1.064829707145691,0.2121253311634063,0.1644402146339416
4.2555986328125,0.8569581901192664,1.5502134262472391,1.4091589419156312,-0.5200464725494385,-0.3852681517601013,0.1150002554059028
4.265565429687502,0.6068050696978345,1.6156410071864724,3.033800709420442,-0.0740431547164917,-0.8463180065155029,0.1332008242607116
4.275531738281252,0.4859580550819635,1.7524477709457278,4.541385538774729,0.2376768887042999,-1.123957872390747,0.2058108150959015
4.28549755859375,0.5099352891273796,1.884385175102949,5.998824235212803,0.4121991693973541,-1.2252508401870728,0.3298241198062897
4.295464599609378,0.4171714825710281,1.9780057080864903,7.150531679859757,0.425498753786087,-1.1705304384231567,0.481879323720932
4.305430664062502,0.119754461005656,2.053638748958707,8.037768688386679,0.2980595827102661,-0.9781715869903564,0.5777558088302612
4.315396728515626,-0.2809249282441102,2.005736595577001,8.744743237787485,0.0981437787413597,-0.7151639461517334,0.5729292631149292
4.325363525390628,-0.6356131944984197,1.9203166124448177,9.026710167631506,-0.1254589557647705,-0.450489729642868,0.4881187975406647
4.335329589843752,-0.7727507976472378,1.7875231759801506,8.90590644416809,-0.3334833979606628,-0.2107975780963897,0.3584423959255218
4.34529541015625,-0.6407937389414757,1.7708599182099105,8.49487766560316,-0.4510821998119354,-0.0190196130424737,0.2295664399862289
4.355262695312501,-0.2206024336252361,1.7016124867215752,7.791586188629269,-0.4192540049552917,0.1221231594681739,0.1617256850004196
4.365228759765625,0.2332038853166624,1.5614064359128474,7.127131515049934,-0.2641406059265136,0.1704126745462417,0.1318569928407669
4.375194824218752,0.4876258421637117,1.6695172665417193,6.299903861805796,-0.0067817335948348,0.0410242415964603,0.1116426587104797
4.3851606445312505,0.4386392910787835,1.827652357272804,5.419081981018185,0.3078707456588745,-0.240544855594635,0.0811955332756042
4.395127685546878,0.212765017997846,2.0720909359723327,4.633138524320722,0.6204212307929993,-0.5893781781196594,-0.0027554859407246
4.405093505859373,-0.1172294086406007,2.409908640114963,3.851916250926256,0.9436445832252502,-0.8589084148406982,-0.093134120106697
4.415059570312501,-0.4285840898040682,2.484563191343844,3.439422075983882,1.235594391822815,-0.9603381156921388,-0.1734095066785812
4.4250263671875025,-0.7727454638849943,2.3584163532868025,3.192621152067184,1.4357272386550903,-0.8866010308265686,-0.2796552777290344
4.434992675781253,-1.0366433608140797,2.1330551077619195,2.9883488718003037,1.495872139930725,-0.7349746227264404,-0.4173797965049743
4.444958496093751,-1.1559838798571378,1.7888228604018688,2.4603742142438887,1.4000416994094849,-0.6180163025856018,-0.5707741379737854
4.454925781250001,-1.2618623483240603,1.5480693999558686,1.4717606517791748,1.234794855117798,-0.5024187564849854,-0.7290827631950378
4.464891601562503,-1.120394168625027,1.078413660377264,0.280800808674097,1.0908936262130735,-0.4138483703136444,-0.8405616283416748
4.474857666015627,-0.8731302303064614,0.3353758639484643,-1.2130728907138109,0.9486421942710876,-0.2828379869461059,-0.8927972912788391
4.484824462890625,-0.7517110783584415,-0.2904886744737625,-2.6039853973209857,0.7754594683647156,-0.1246890947222709,-0.902060329914093
4.494790771484375,-0.5606365717083215,-0.8059533945471048,-4.008184086480736,0.547357976436615,-0.008224076591432,-0.9041407108306884
4.504756591796877,-0.3438173829488456,-1.6358330236047505,-5.7736120427697895,0.3358337879180908,0.0241817981004714,-0.9275991320610046
4.514722656250001,-0.306011091645807,-2.641206582212448,-7.722827125179767,0.1965610533952713,0.0624922513961792,-0.9729850888252258
4.524689453125003,-1.0001725558985024,-2.5517811628311877,-9.173539143711327,0.1285167634487152,0.1889559030532837,-1.0138627290725708
4.534655517578127,-2.7972672047570346,-0.6951508406162261,-9.672469493091103,0.1766629368066787,0.5400737524032593,-1.0092226266860962
4.544621582031251,-3.040725832508504,-0.0812386057943105,-9.396765715295077,0.3457438349723816,0.8813008666038513,-0.9181466102600098
4.554588867187501,-1.4111182592898606,-1.361042269000411,-9.560027939781548,0.5098173022270203,0.9133015275001526,-0.6999555826187134
4.564554687500003,0.6593446370892226,-2.853712437817454,-9.764137138441203,0.6225425601005554,0.6070811748504639,-0.3604573905467987
4.574520751953131,2.429381548478454,-4.514361922770738,-9.667195936602354,0.6786924004554749,0.0462290123105049,-0.0043132035061717
4.584487548828125,2.917916322180629,-5.3567830534935,-9.18882965182364,0.639380693435669,-0.5676815509796143,0.2664152383804321
4.594453613281253,2.331474278086424,-5.382887216565012,-8.110529388692974,0.4514647722244262,-1.1004573106765747,0.4489704072475433
4.604419677734377,1.1294915942508728,-5.315424622666836,-6.826055395588279,0.1070762276649475,-1.4744058847427368,0.5432425737380981
4.614386718750001,-0.4043963913457468,-5.088280000856519,-5.743946387824416,-0.3506794571876526,-1.6544630527496338,0.5257903337478638
4.624352539062503,-1.6440981631249187,-4.78717173269093,-4.953419694989919,-0.8373819589614868,-1.50202476978302,0.4269495606422424
4.634318603515627,-2.4928370986923576,-4.344584617301821,-4.042090447735786,-1.2667522430419922,-0.9391074776649476,0.3244363367557525
4.644284423828125,-2.727439343032241,-3.852071149227023,-2.790451387262344,-1.6187310218811035,-0.091317594051361,0.24242003262043
4.654251708984372,-2.1178847188979386,-3.04980667232573,-1.6265262660771609,-1.8815964460372925,0.7240434885025024,0.2363672107458114
4.664217773437503,-1.0504184959273786,-2.278445867732167,-0.8850374526560306,-2.0190184116363525,1.2608789205551147,0.3219873011112213
4.674183837890624,0.030461919889599,-1.642553856292367,-0.3927905265629291,-2.001571655273437,1.472947120666504,0.4545317590236664
4.684150634765626,0.9742479141123592,-0.989309143513441,0.0654617754697799,-1.831709384918213,1.2795411348342896,0.6080600619316101
4.69411669921875,1.5770115629322825,-0.6463716121390461,0.1921463736653327,-1.51550030708313,0.8040355443954468,0.7317343354225159
4.7040825195312514,1.2243395501375198,-0.267216227696836,0.4672451713055372,-1.0744171142578125,0.2647241353988647,0.7547318339347839
4.714049560546876,0.111338852764666,0.3048845718339085,1.1875918279767037,-0.5736374258995056,-0.1908132135868072,0.6591654419898987
4.7240153808593774,-1.0322272248722613,0.7522045609638095,2.1143302412867544,-0.0832786336541175,-0.4861705899238586,0.5094476342201233
4.733981689453131,-1.9265838561460376,1.160016715569794,3.047667906731367,0.357665479183197,-0.6170881390571594,0.3513139188289642
4.743948730468752,-2.183343133366853,1.3802519963830708,4.074269546806812,0.7081121802330017,-0.5587294697761536,0.2022288292646408
4.753914794921876,-1.8685088299266992,1.2472267969891428,5.273911293539404,0.9323229789733888,-0.4060613214969635,0.0646792873740196
4.763880615234378,-1.4364068681947886,1.2468538720235227,6.289924904105067,1.0503201484680176,-0.2443171292543411,-0.0716383382678031
4.773846435546876,-0.6608131752718239,1.2837635067477822,6.924611631408333,1.1236495971679688,-0.1624560356140136,-0.1546830087900161
4.7838134765625,0.1543181627914309,1.1478706429630516,7.358300570070743,1.173229694366455,-0.1745454519987106,-0.1880252510309219
4.79377978515625,0.8855542430717498,1.1918927400410175,7.677815432542562,1.178827881813049,-0.2911921739578247,-0.1839495450258255
4.803745605468752,1.4502714351572097,1.4161784652888774,7.82079007128179,1.1843966245651243,-0.4424040615558624,-0.1348413825035095
4.81371240234375,1.8700914229430257,1.604220326244831,8.035664994105696,1.1677069664001465,-0.6017720699310303,-0.0567632094025611
4.823678222656252,2.127308526933938,1.7918769872754812,8.057070185706019,1.11179518699646,-0.7357298731803894,-0.0222443807870149
4.833644287109372,2.157865577761084,2.116462577140331,7.986502611529826,1.033711552619934,-0.8250129818916321,-0.0523037053644657
4.843611328125,1.8756731685981156,2.441160395208001,7.75553463203907,0.9436833262443542,-0.833448052406311,-0.1273387968540191
4.85357763671875,1.3421775556631386,2.731719212308526,7.468550750815868,0.8407670259475708,-0.744765043258667,-0.2360674887895584
4.863543457031252,0.7514233474582434,3.0095740306586025,7.04131084216237,0.7348251342773438,-0.5571650266647339,-0.3872261345386505
4.873510498046876,0.4022655533295124,3.267999925917387,6.4584039864569895,0.6416577696800232,-0.3840245604515075,-0.5463517904281616
4.883476318359378,0.2560918993532657,3.441767762327194,5.445661360386014,0.6128450036048889,-0.2494648844003677,-0.6888924241065979
4.893442382812502,0.1966383513223379,3.491544477409124,4.311586603063344,0.6993651390075684,-0.1478276252746582,-0.8210145831108093
4.9034091796875,0.4248530865821987,3.2585505450487133,3.227207896801829,0.8989309668540955,-0.1561976820230484,-0.9391462802886964
4.91337548828125,0.7859946023628115,2.9777737017720938,2.016210643318296,1.1629098653793335,-0.244864359498024,-0.9990054368972778
4.923341308593752,0.9304545842889697,2.6023411372452974,1.287872403371334,1.3626861572265625,-0.4569259881973266,-1.0254602432250977
4.933307617187502,0.9671530604805796,2.0926222673475743,0.6477829402416944,1.376345992088318,-0.8108206987380981,-1.067824125289917
4.9432744140625005,0.9309640681810676,1.3233370999842882,-0.2510159112632274,1.2593994140625,-1.1615989208221436,-1.1450928449630735
4.953240478515628,0.8300374499678611,0.3623153088003397,-0.94557638477087,1.042937994003296,-1.359894871711731,-1.199784517288208
4.963206542968752,0.4191165887568145,-0.4418196381479501,-1.4371762451320886,0.6696192026138306,-1.3424721956253052,-1.2126225233078003
4.973173583984373,-0.3570931171726435,-0.9041764528900385,-2.08470374930799,0.1865696609020233,-1.0044227838516235,-1.2055156230926514
4.983139404296882,-0.6400435781612992,-1.6208213324338197,-2.6997090400636194,-0.3234254121780395,-0.4240659773349762,-1.1408731937408447
4.993105468750002,-0.7054722550790756,-2.312486084499955,-3.7810114076197134,-0.7406619191169739,0.2464667111635208,-1.0286822319030762
