time,ax,ay,az,gx,gy,gz
0.0,0.0588861371062463,-0.0605401011586189,1.7676842107832431,0.5349815487861633,-0.3403723537921905,-0.5525829195976257
0.009964599609379121,-0.1431196184341795,-0.4568839362889528,1.2701730805516245,0.3799186944961548,-0.5446771383285522,-0.6783153414726257
0.01992968749999946,-0.2171687876484356,-0.7712623126551509,0.6051216101229191,0.0542497932910919,-0.5757272243499756,-0.8268108367919922
0.029895751953127103,0.0430574624300468,-0.8138339186638593,-0.9956903689831494,-0.3414702713489532,-0.4806533455848694,-0.9904624819755554
0.039860839843750995,0.7017365026168525,-0.7399059281438589,-3.949133347097039,-0.5851031541824341,-0.3370383977890014,-1.0183734893798828
0.04982568359374895,1.3471351780705154,-1.2085375853717326,-7.042573993965983,-0.5346252918243408,-0.164254605770111,-0.7622160911560059
0.05979077148437639,1.6028411468461154,-1.4833958522543311,-9.857086055773497,-0.2856874167919159,-0.0748320519924163,-0.3872629702091217
0.06975561523437435,1.5111137341327965,-1.4019722452819348,-12.458632827770709,-0.0158244762569665,-0.1285421252250671,-0.049996942281723
0.07972167968749844,0.7964839207384735,-1.5138982502847909,-14.104321474957466,0.1686484366655349,-0.2953145802021026,0.1383340805768966
0.08968676757812943,-0.2329827168466523,-1.7316513588935136,-14.859570518183707,0.1447649300098419,-0.4801420569419861,0.1618692725896835
0.09965185546874977,-1.0328379041165112,-2.29259538911581,-15.107454561161994,-0.0924665257334709,-0.5759000182151794,0.1679740399122238
0.10961669921875128,-1.862321081202477,-2.649115747901797,-14.71459739910364,-0.4048226177692413,-0.4262354075908661,0.2352028489112854
0.11958178710937517,-2.3476456606864926,-2.913859740266204,-13.854036216056349,-0.6948829293251038,-0.096565380692482,0.4004448056221008
0.12954760742187332,-2.283393114876002,-2.9968524962514635,-13.12492582269311,-0.93927001953125,0.1865629404783249,0.5908274054527283
0.13951269531250077,-1.961387458501756,-2.975958761304617,-12.445492775690555,-1.1309715509414673,0.3182367980480194,0.7498988509178162
0.14947778320312466,-1.7404466597676276,-2.8241347534164785,-11.432422817361354,-1.2412233352661133,0.3624544739723205,0.8634613752365112
0.15944287109374855,-1.612808414109051,-2.656417303086817,-9.976067824506758,-1.2940412759780884,0.4086707234382629,0.9472995400428772
0.16940771484375006,-1.4292434063062072,-2.6155250284671783,-8.038067963594198,-1.33650004863739,0.4377976357936859,0.9740238785743712
0.17937377929687415,-1.040194039032981,-2.719374694520235,-6.015506489944458,-1.3749761581420898,0.4021019339561462,0.9417847394943236
0.1893388671875016,-0.5228891709856689,-2.7843463483855126,-4.101828584861755,-1.39900803565979,0.2661895453929901,0.8394829630851746
0.1993034667968736,-0.058620823533833,-2.715331556609273,-2.337330018377304,-1.4303667545318604,0.0658439248800277,0.7085548043251038
0.20926855468750105,0.2040767759610898,-2.504203126837313,-0.5973240881145,-1.4715741872787476,-0.1050633043050766,0.5951477885246277
0.21923364257812494,0.1997063788571395,-2.232184467294812,0.9769260472804308,-1.512857437133789,-0.2109327316284179,0.5252752304077148
0.22919970703124903,0.0915981055115349,-2.0068854733511805,2.360082532933354,-1.5242784023284912,-0.2166254073381424,0.4991044104099273
0.23916455078125054,-0.0138135674275457,-1.8140479025512928,3.48556598752141,-1.4822124242782593,-0.1653662174940109,0.5009347796440125
0.24912988281250037,-0.2538509885586798,-1.5640361998945471,4.351626352506876,-1.419910907745361,-0.0972532853484153,0.5164452791213989
0.2590947265624983,-0.5673876899363473,-1.319801327073574,5.054872821295261,-1.3279178142547607,-0.0233854539692401,0.5327062606811523
0.2690598144531293,-0.7739563009794801,-1.2659803050369025,5.573174810621142,-1.179661750793457,0.0543022081255912,0.5537694096565247
0.27902563476562037,-0.9312614436924456,-1.1275925556965172,6.05244827337265,-0.9922888875007628,0.1040247529745101,0.5386754274368286
0.28899096679687375,-0.9644052961423992,-0.924537688395381,6.346756798395514,-0.7847936153411865,0.0819726735353469,0.4748037159442901
0.2989555664062493,-0.886448488497734,-0.786993258011341,6.550326483350992,-0.5609773397445679,0.0350547023117542,0.3905895054340362
0.3089206542968732,-0.6956915233641863,-0.6938257294923067,6.878584039726853,-0.2997642159461975,0.0587295405566692,0.2968562245368957
0.3188854980468747,-0.3895010565634816,-0.5572602271430194,7.089045822283625,-0.0001298319548368,0.0871260315179824,0.2107240259647369
0.3288518066406212,-0.1703087819971144,-0.3532762622982263,7.107282320719957,0.3086325228214264,0.0691003575921058,0.130863144993782
0.33881665039062625,-0.0695652652658522,-0.107317926685512,7.299959440261125,0.6248224377632141,0.0397153012454509,0.0184982623904943
0.34878173828125014,0.1484483574425801,0.0679310881927609,7.425504220771789,0.9323598742485046,-0.0558748953044414,-0.1015996932983398
0.35874682617187403,0.5156456661308184,0.116599111380428,7.494232304561137,1.1910338401794434,-0.1849005222320556,-0.2050533890724182
0.3687119140625015,0.7672342261828482,0.1723594309166073,7.76028971761167,1.3740514516830444,-0.2978312075138092,-0.2823854982852936
0.37867773437499963,0.9207765822961926,0.295851370550692,8.02978295032978,1.4739298820495603,-0.3744141161441803,-0.3438240885734558
0.3886428222656235,0.9950078666117042,0.4619420964613556,8.238110058945416,1.491075873374939,-0.4032045900821686,-0.3897454738616943
0.3986076660156215,0.9496597085617482,0.7482531929895281,8.442945233792067,1.4341223239898682,-0.3655504286289215,-0.4259317219257355
0.4085727539062489,0.7487697642095387,1.1129042512610554,8.457964523747563,1.3198481798171997,-0.2797244489192962,-0.4581285417079925
0.4185375976562504,0.4986183242885396,1.4856611668378117,8.10924987027645,1.182477355003357,-0.1539984792470932,-0.4874656498432159
0.4285036621093745,0.4034799706205725,1.6819059157326817,7.567230905276537,1.071679949760437,-0.0132743986323475,-0.519912838935852
0.4384687499999984,0.3143280344184488,2.031325794863701,6.7415551576495165,0.9897715449333192,0.1446798145771026,-0.5309484004974365
0.44843383789062585,0.1897222883235663,2.34570300218612,5.81378272511661,0.9495652318000792,0.3114868998527527,-0.4909082055091858
0.45839868164062025,0.1434152221135795,2.530574416412413,4.580794004577398,0.975231945514679,0.4735474288463592,-0.4341527819633484
0.46836401367187364,0.0993136665912345,2.470664722111821,3.2424984049141403,1.0944583415985107,0.5788028240203857,-0.3881869614124298
0.47832983398437534,-0.0065207070056349,2.4285800228372216,1.7518974435865875,1.254940390586853,0.5609766840934753,-0.3759422898292541
0.4882946777343733,-0.2383201323518529,2.4443463317677376,0.3796913910150528,1.4015594720840454,0.4429453015327453,-0.4139378070831299
0.49825976562500074,-0.4252495385538786,2.327216328381002,-0.7184890461057424,1.541447401046753,0.2893543839454651,-0.5290367603302002
0.5082246093749987,-0.4959965609502047,1.959642076139152,-1.6814637249231337,1.6440396308898926,0.1146695166826248,-0.6830724477767944
0.5181896972656261,-0.5986797405071557,1.6508590355619788,-2.4124013337135315,1.629489541053772,-0.0933827459812164,-0.8298681974411011
0.5281555175781243,-0.8973230067986995,1.6483803704887627,-3.2712048594385386,1.486883521080017,-0.2355307936668396,-0.9702244997024536
0.5381208496093741,-0.9924446650601922,1.402777424184978,-3.801207807952165,1.3295098543167114,-0.1742765009403228,-1.0398824214935305
0.5480856933593792,-0.5800209615381434,0.4833826516360044,-4.371146461012959,1.1321367025375366,-0.0040192790329456,-0.9910723567008972
0.5580507812499995,-0.1268084255046211,-0.4449874545291066,-5.4101241830587385,0.8734907507896423,0.2292470037937164,-0.8995339274406433
0.568015625000001,0.1270486092023551,-1.1096531405106187,-6.590711100709438,0.692511796951294,0.4837119281291961,-0.790679931640625
0.577981933593751,0.2019977777299471,-1.7323153757601977,-7.952132724416256,0.6115932464599609,0.6090485453605652,-0.6884941458702087
0.587946777343749,0.4325618708612397,-2.347923893105984,-9.410710654017327,0.5979771018028259,0.5501874685287476,-0.6702691316604614
0.5979116210937505,0.6593194295827299,-2.914039773008227,-10.431839415639638,0.585430383682251,0.2974782288074493,-0.7261355519294739
0.6078767089843744,0.7311001058757305,-3.4130566316276787,-11.005226163327691,0.4892251789569855,-0.0446309596300125,-0.794752299785614
0.6178417968749983,0.7803567426063119,-4.0763159579426045,-10.941978556776046,0.2688691318035126,-0.3338856697082519,-0.7894883155822754
0.6278076171875,0.6693117582216859,-4.586650913912058,-10.427561884450911,-0.0628877803683281,-0.5310512185096741,-0.7233606576919556
0.6377727050781274,0.6529094894751906,-5.078836465206742,-9.58060895551741,-0.4805673062801361,-0.5743784308433533,-0.5822182297706604
0.6477377929687513,0.6860684664290398,-5.440413522860408,-8.56548732535541,-0.960425853729248,-0.4736565053462982,-0.3844046592712402
0.6577028808593752,0.6284976634047925,-5.344836595112085,-7.754112490281463,-1.4450340270996094,-0.3369585871696472,-0.157180830836296
0.6676677246093732,0.4555948097938671,-5.035428116112947,-7.300874801540374,-1.8027864694595337,-0.2002845704555511,0.0764644369482994
0.6776340332031268,0.172099391740933,-4.518221228547394,-6.863906110554933,-1.974926710128784,-0.0790260508656501,0.2482737600803375
0.6875986328124988,-0.0355318800976499,-3.8245015897780656,-6.279042275562882,-1.987270474433899,0.0007255310192704,0.3485216796398163
0.6975637207031298,-0.1888870796084404,-3.1058377716273067,-5.254828991928696,-1.923939228057861,0.0474632121622562,0.3857361674308777
0.7075285644531242,-0.1735916395926847,-2.311530975732208,-4.03296313842833,-1.8305821418762207,0.0501076616346836,0.3821380734443664
0.717493896484374,0.1775355914454907,-1.7870307162880896,-2.743862070044875,-1.7070977687835691,0.0205460377037525,0.3817471265792846
0.7274597167968722,0.5610025554765016,-1.3751131721898913,-1.523978330272436,-1.5634069442749023,-0.061440285295248,0.3822134435176849
0.7374248046874996,0.7110952095273881,-0.7603671168923377,-0.3730827865302562,-1.405561923980713,-0.1815797388553619,0.3641127347946167
0.7473896484375011,0.70489080192931,-0.211791862116754,0.7859498864382505,-1.247487187385559,-0.3037621080875397,0.3524016737937927
0.7573549804687509,0.7044912081524729,0.1726996226564049,1.8162345989406108,-1.0907553434371948,-0.4015280902385711,0.3638229072093963
0.7673198242187489,0.7029359415344894,0.441467463709414,2.832861957490444,-0.9041224122047424,-0.4437902569770813,0.3956609070301056
0.7772856445312506,0.6733722856588661,0.7015303125202655,3.6534079410135742,-0.7030609250068665,-0.4716586172580719,0.4460196793079376
0.7872507324218745,0.5292769723266363,0.9747986798629164,4.254317486399412,-0.4841386079788208,-0.4782581627368927,0.513154923915863
0.7972155761718724,0.3894149126499891,1.2504843374803662,4.873181206148862,-0.2540247142314911,-0.4528167247772217,0.5811206698417664
0.8071806640624999,0.2484843652253039,1.480805543500185,5.439157385319471,-0.0124931912869215,-0.3695628941059112,0.6144391298294067
0.8171457519531273,-0.0492929044872056,1.703442332497239,5.941419509470462,0.2142693698406219,-0.2578249275684356,0.6001696586608887
0.8271118164062514,-0.3173676943752914,1.8643883889958264,6.304664792597293,0.4585638344287872,-0.1455501019954681,0.5279289484024048
0.8370766601562494,-0.2167387439344078,1.9246353524267672,6.538342615568637,0.699510931968689,-0.0738759189844131,0.4289704263210296
0.8470417480468733,0.1009107082580216,1.958112966875732,6.653363079455494,0.9413380026817322,-0.0869613587856292,0.3357516825199127
0.8570065917968748,0.4889841614374891,1.999549431374669,6.754867059165239,1.17168390750885,-0.1695763319730758,0.2665981650352478
0.8669719238281246,0.803832822196558,2.0227266010835767,6.946806512081623,1.3903071880340576,-0.2575744092464447,0.2246846556663513
0.8769377441406263,1.12639158240892,2.0283970479354263,7.260875968629121,1.5680183172225952,-0.3135790824890136,0.1980162858963012
0.8869025878906207,1.2638126056089996,2.052119868828356,7.50263889837861,1.686880111694336,-0.3558854758739471,0.1821905970573425
0.8968676757812482,1.251956163598597,2.1349311307668684,7.816317894303798,1.7240397930145264,-0.3317670822143554,0.162131667137146
0.9068327636718756,1.209864376996085,2.265302893042564,8.030611217847467,1.6749320030212402,-0.2929128408432007,0.1518602520227432
0.9167976074218736,1.0376662010557949,2.452285308073461,7.784034750336408,1.5631541013717651,-0.2305946052074432,0.1407157182693481
0.9267639160156236,0.7872042704135179,2.595612705773115,7.599708110511303,1.4376749992370603,-0.0859313383698463,0.1431922018527984
0.9367287597656215,0.4934125358063727,2.777480554269254,7.1691598079621786,1.3007237911224363,0.0953034311532974,0.1428396105766296
0.946693847656249,0.1769846064992249,2.9507299197629093,6.417374641454219,1.1988365650177002,0.2668304145336151,0.1193406954407692
0.9566586914062505,0.0115528924865648,2.8405609875604507,5.419913755667209,1.1650983095169067,0.3526134788990021,0.0707265511155128
0.9666240234375003,0.0337443756263703,2.5989932881221174,4.278434859567881,1.1898581981658936,0.3351388275623321,-0.0211016628891229
0.9765886230468723,0.2966263735111802,2.1600845689848063,3.206594732362032,1.2761203050613403,0.2406093776226043,-0.1290299892425537
0.9865546875,0.6839774124339223,1.5250474208086728,2.312213112777471,1.3869417905807495,0.0688611194491386,-0.2554014325141907
0.9965195312500015,1.0200441812559962,0.9718307699680327,1.4055992036074398,1.4427590370178225,-0.2310017645359039,-0.4086849987506866
1.0064848632812513,1.0846822923179715,0.5937678569376468,0.7323918992519378,1.381153583526611,-0.5763705372810364,-0.5770621299743652
1.0164497070312493,0.4156309020655229,0.5386906973600387,0.2233937448441982,1.1706013679504397,-0.8249116539955139,-0.7208073139190674
1.0264147949218732,-0.638380321124196,0.6102022743880748,-0.1844686786442995,0.8307307362556458,-0.7567670345306396,-0.8376619815826416
1.0363808593750008,-1.3879323217526078,0.3137994074344635,-0.9847241538107394,0.4528428018093109,-0.3964647948741913,-0.9070833921432496
1.0463459472656211,-1.630699460108578,-0.2260223397821187,-2.5419763926535843,0.2181341797113418,0.1983057260513305,-0.8907332420349121
1.0563107910156262,-0.9897411782551556,-1.0698445694744587,-4.304906686908007,0.1964214146137237,0.817762017250061,-0.7620671391487122
1.0662756347656206,0.1798497136067599,-2.144195802718401,-6.37134588072896,0.3004952073097229,1.156515121459961,-0.559167206287384
1.0762407226562516,1.279280223853886,-2.6742127797573803,-8.475043084320426,0.4085298180580139,1.0975662469863892,-0.3843825757503509
1.0862065429687497,2.297622715758532,-3.3350697211056946,-9.51029915549457,0.5697389245033264,0.8620381951332092,-0.2514825165271759
1.0961716308593736,3.044717532493174,-4.303386345472932,-9.844047710502148,0.7533175349235535,0.4321027994155884,-0.1259437650442123
1.106136718750001,3.282246185673773,-4.9332951908499,-9.766549460279942,0.825198233127594,-0.1746734827756881,0.0338288284838199
1.1161018066406214,3.060055094617605,-5.456050067931414,-9.30442411620617,0.6575170755386353,-0.8577558994293213,0.2191920280456543
1.1260668945312489,1.9467871246106925,-5.7093906227499245,-8.308596384578943,0.1994867026805877,-1.343263030052185,0.3625882565975189
1.1360327148437506,0.4418154734294861,-5.796608302953839,-6.911911139789224,-0.4547257423400879,-1.4457862377166748,0.4305665194988251
1.1459978027343745,-0.7665391565907747,-5.769197733458876,-5.837309731176495,-1.2048641443252563,-1.2457013130187988,0.5496164560317993
1.1559628906249984,-1.4227297866284847,-5.511553343966603,-5.245390716975927,-1.910378098487854,-0.7978862524032593,0.7576737999916077
1.165927490234374,-1.513176365751028,-5.04435668797791,-4.840952422717213,-2.4042887687683105,-0.1559547781944275,1.030387282371521
1.1758925781250014,-1.2726400551870465,-4.183777384752035,-4.572777871382236,-2.6787109375,0.4168285727500915,1.2676693201065063
1.185858642578129,-0.6358611779101193,-3.293480988654494,-4.498838774946332,-2.825292587280273,0.6825071573257446,1.4024263620376587
1.1958237304687493,-0.0920829116201028,-2.40329360588938,-4.089577006053925,-2.860835552215576,0.6438643932342529,1.4292795658111572
1.2057885742187509,0.2158646645136177,-1.6535770623490214,-3.4902801565617323,-2.8054966926574707,0.3501436710357666,1.3757333755493164
1.2157536621093747,0.23130035325028,-1.1374164689660071,-2.8365730869680643,-2.6410229206085205,-0.0926809161901474,1.2377434968948364
1.2257187499999986,-0.1308714554261416,-0.6854679432526231,-1.9033184236317875,-2.385783195495605,-0.5525623559951782,1.065016269683838
1.235683837890626,-0.5281884464375675,-0.4495844269305467,-0.7207932313948869,-2.104755401611328,-0.9036508798599244,0.8834776282310486
1.2456496582031242,-0.9488217964328824,-0.4376780082985758,0.6050029521793127,-1.8265037536621092,-1.0182510614395142,0.7126911878585815
1.255614990234374,-1.101087045282498,-0.4537327787816524,2.015901431238651,-1.5814064741134644,-0.9143341779708862,0.5623544454574585
1.2655795898437496,-1.0743337706524878,-0.3432277464926243,3.133043173938989,-1.363506317138672,-0.6691094636917114,0.4618600308895111
1.2755446777343735,-0.994440149726346,0.0706274876698851,4.153976120728254,-1.1704926490783691,-0.3344675898551941,0.4081917405128479
1.285509521484375,-0.6989002562776208,0.4255442106515169,4.878332597562671,-0.9590806365013124,-0.0032466128468513,0.3884596824645996
1.295475830078125,-0.1221506810929626,0.5249851203516125,5.289078467532992,-0.6928103566169739,0.2453344464302063,0.3864271640777588
1.3054406738281301,0.5826132795862853,0.7401537654250859,5.574091340944171,-0.3895814120769501,0.3469164669513702,0.3550314605236053
1.3154057617187505,1.1603547884177416,1.0046958054766058,5.78797140751183,-0.0736242309212684,0.3367884755134582,0.3007445037364959
1.3253706054687484,1.538244609903544,1.2730322693750262,6.064296532076597,0.2400398254394531,0.2552142143249511,0.2415290772914886
1.3353359374999982,1.7862991871431468,1.3512462666511535,6.3657788942515845,0.5397480130195618,0.1311862915754318,0.1669456511735916
1.3453017578125,1.7888538400620222,1.515149419389665,6.736319595083594,0.7902060747146606,0.0276209060102701,0.0561228357255458
1.3552666015625014,1.739154428000003,1.579800170737505,7.115727492982149,0.9894784092903136,-0.0321494825184345,-0.0616594552993774
1.3652316894531253,1.690512123775482,1.6636229478061195,7.326865567365289,1.125295877456665,-0.092421106994152,-0.1823221147060394
1.3751967773437492,1.6584072589844463,1.6885548522278666,7.417704945197701,1.2031110525131226,-0.1105774715542793,-0.2772427499294281
1.3851616210937507,1.5770242762833833,1.6122817598864436,7.586371659076214,1.2089701890945437,-0.0742987021803855,-0.3236033916473388
1.3951267089843746,1.380126908698678,1.6138918254315853,7.668420996731519,1.130732178688049,0.0377269051969051,-0.3289861679077148
1.4050927734374987,1.125231306457892,1.7361016163006424,7.553549585926532,0.9870253205299376,0.1952683478593826,-0.3247092068195343
1.4150578613281297,0.7293170949164778,1.8358046840682625,7.0543579552620646,0.837873637676239,0.384245753288269,-0.2986096739768982
1.4250227050781241,0.2586400494661182,1.8043986151963471,6.447132650858164,0.7201162576675415,0.5695252418518066,-0.3080796599388122
1.4349877929687516,-0.2275988683838397,1.8639862379357215,5.618786807239055,0.6404022574424744,0.6944975852966309,-0.3744557499885559
1.4449526367187495,-0.67245590146631,1.9930042475149037,4.690647294959426,0.6024875044822693,0.7473667860031128,-0.4709524512290954
1.4549184570312512,-0.981272478986904,2.0032126300573347,3.6014392688453194,0.6466118097305298,0.7616139054298401,-0.6109399199485779
1.4648835449218751,-1.237847558747232,1.861057783268392,2.5835604489296675,0.8007957935333252,0.7201734781265259,-0.7978448867797852
1.474848876953125,-1.2287801629334687,1.861094900408387,1.6530454396903511,0.9603079557418824,0.5989362597465515,-1.0084635019302368
1.48481372070313,-0.8600521375466138,1.7168509723857044,0.7239788756936788,1.1084561347961426,0.3947327733039856,-1.1653499603271484
1.4947788085937503,-0.4197308481976389,1.1865014023914933,0.1549006388545036,1.1718236207962036,0.211804524064064,-1.2419030666351318
1.5047436523437483,-0.1537624286048114,0.5847480996578931,-0.3219721924960613,1.0764248371124268,0.0634871125221252,-1.277523159980774
1.5147097167968724,-0.0538702862721867,-0.023303134176135,-1.0504951413601635,0.8476473689079285,0.0027891467325389,-1.2902491092681885
1.5246748046874998,-0.149990910709463,-0.5426806437790394,-1.8158739489346745,0.5750099420547485,0.0542359016835689,-1.2461566925048828
1.5346398925781273,-0.0859759547808207,-1.137034776172042,-3.0250095001995563,0.2811053395271301,0.1785437315702438,-1.138159155845642
1.5446047363281252,-0.1227945045549888,-1.4523840433970092,-4.259995532035828,0.0562283582985401,0.3436248004436493,-1.0308877229690552
1.5545698242187491,-0.4329137895714491,-1.2074427758723496,-5.653246710723638,-0.0108912913128733,0.427964985370636,-0.9313902854919434
1.5645356445312508,-0.9653612816929816,-0.749152479916811,-7.259048168680072,0.095656432211399,0.3866787850856781,-0.8689769506454468
1.5745004882812488,-0.6429232252508401,-0.5684171425819396,-9.285668562331796,0.3644897639751434,0.1509528160095214,-0.8829864859580994
1.5844658203124986,0.5688304726231843,-1.5809762287795543,-11.534369280141592,0.7718331813812256,-0.2964760959148407,-0.869797945022583
1.5944306640625001,1.851312634323537,-2.929223021353781,-12.548536970579624,1.081818461418152,-0.7883403301239014,-0.7607777118682861
1.6043957519531276,2.296635750547797,-3.7080206979498262,-12.200117500662802,1.122704029083252,-1.1719629764556885,-0.545788586139679
1.6143608398437514,1.627354095203429,-4.075887503397465,-10.934709442555905,0.8303388953208923,-1.2951005697250366,-0.2531242668628692
1.6243269042968755,0.607931954835914,-4.191950754335522,-9.343219418546555,0.2209698557853698,-1.1960296630859375,0.0321311131119728
1.634291503906251,-0.1151160332158207,-4.154005931344628,-8.224380224278569,-0.5880534648895264,-0.9728668928146362,0.2280004769563675
1.644256591796875,-0.5105667919639497,-4.247891837266088,-7.632685081961751,-1.3753148317337036,-0.7305458784103394,0.3797219395637512
1.654221679687499,-0.5535694098010658,-4.163241377201676,-7.539706354013085,-1.958131432533264,-0.4661941230297088,0.5351397395133972
1.6641867675781299,-0.1832639790296554,-3.6575554160818458,-7.4139809562385075,-2.233269453048706,-0.2140832692384719,0.6991332173347473
1.674152587890621,0.1825099823245778,-2.942807602331042,-6.940334685719013,-2.261184930801392,0.0064256684854626,0.8939749002456665
1.6841176757812484,0.5051248566383496,-2.0553116506069897,-6.270964183047414,-2.1787333488464355,0.0399187989532947,1.0464953184127808
1.6940827636718723,0.7837871554464101,-1.337341659939289,-5.40570052139759,-2.014918804168701,-0.0538268685340881,1.1216059923171997
1.7040478515624997,0.6344556950263679,-0.617078297637403,-4.039496924111247,-1.7975934743881226,-0.1624208092689514,1.1407649517059326
1.7140126953125012,0.3991737247940152,-0.0605930003896355,-2.7368209193617106,-1.5267961025238037,-0.3228805065155029,1.095162272453308
1.7239790039062513,-0.1772390927169471,0.4270160367697477,-1.373513628038764,-1.2125775814056396,-0.4923367202281952,0.9750153422355652
1.7339436035156233,-0.737145523519814,0.8012666980355978,0.4849585226505994,-0.8891905546188354,-0.4912221729755401,0.8496249318122864
1.7439086914062507,-0.9061034023646264,0.8404726270034909,2.5181968731373545,-0.5937383770942688,-0.3199660181999206,0.758910596370697
1.7538735351562487,-0.7408813490472733,0.7468085471391678,4.077772586491704,-0.3516157269477844,-0.0770740211009979,0.7085859179496765
1.7638388671874985,-0.269038182426989,0.597006984989345,5.454954089388251,-0.1777331084012985,0.1626221686601638,0.7113806009292603
1.7738037109375,0.2720904826696962,0.6092816524118184,6.507765106475353,-0.0699219554662704,0.3394214510917663,0.7380899786949158
1.7837697753906205,0.7989032568398863,0.7657388730585575,7.423312263685465,-0.0291818082332611,0.4812823534011841,0.7625406384468079
1.7937346191406256,1.1306663371186705,0.9362184815779327,7.978950004193186,-0.0133535768836736,0.5614948868751526,0.8001492619514465
1.8036999511718754,1.3653228689290582,1.0429533476784825,8.33383603977561,0.0073935128748416,0.637733519077301,0.8221299052238464
1.8136647949218734,1.5093341572396457,1.007617538142204,8.545110892280936,0.0588521733880043,0.6896419525146484,0.8165175914764404
1.8236296386718749,1.4219187625065446,0.9644017890110612,8.37579535910487,0.1423951536417007,0.6663811206817627,0.7497190237045288
1.8335944824218764,1.206961787422374,1.001842169611156,8.30451759083271,0.2511988878250122,0.585361897945404,0.6326196193695068
1.8435607910156264,1.133484536344558,1.108210540486872,8.310565054303407,0.3551852107048034,0.4439002573490143,0.4909031689167022
1.8535256347656208,1.186097936157137,1.2006319268137216,8.183587610641121,0.4383024573326111,0.2554459273815155,0.3505844175815582
1.8634907226562483,1.1134452262699603,1.2461121137455105,8.00061472351253,0.4981571435928345,0.0785626247525215,0.2539896965026855
1.8734558105468722,0.89465736778602,1.39014765971452,7.902765759178996,0.5410870313644409,-0.0269371699541807,0.1853571087121963
1.8834208984374996,0.6683372871663421,1.4806787022501229,7.667746458470821,0.5742962956428528,-0.0603921934962272,0.1544934511184692
1.8933867187500013,0.383649334860593,1.5331833809912203,7.335898184126615,0.6086060404777527,-0.0499797686934471,0.1477964073419571
1.9033518066406216,-0.0616105799343436,1.5678864455819128,7.069861813864112,0.6368145942687988,-0.0149438325315713,0.1380179077386856
1.9133166503906232,-0.4483516702651977,1.5727809396252035,6.776183987960219,0.6503932476043701,0.0281264055520296,0.0896799266338348
1.9232817382812506,-0.7126408315341919,1.697123943130672,6.385996337372064,0.6612081527709961,0.0497012957930564,-0.0090947272256016
1.9332465820312486,-0.905436462888494,1.8324661872953176,5.741053588992357,0.7235990762710571,0.0643380284309387,-0.0999282300472259
1.9432116699218724,-1.1616598796669393,1.7653543065309525,5.316684851861,0.8431487083435059,0.099217377603054,-0.1668717563152313
1.953177734375,-1.352881174376607,1.788240676599741,4.747673835039138,0.979943573474884,0.0778058320283889,-0.2405276000499725
1.9631428222656204,-1.4257003268718718,1.58605689304471,4.448125655797123,1.0890272855758667,0.1065918505191803,-0.2992823421955108
1.9731076660156255,-1.527334070441127,1.0504381504759193,4.378800190636516,1.1354587078094482,0.1840895861387252,-0.3519647121429443
1.9830729980468753,-1.423385620188713,0.649277562713623,3.901999255478382,1.1073042154312134,0.2523552179336548,-0.4482666850090027
1.9930373535156214,-1.2232349498964843,0.0674132017984986,2.8947254162073133,1.03252375125885,0.2379640042781829,-0.5468845367431641
2.003002441406249,-0.9424472929649056,-0.4409665284499526,1.7944225801050662,0.9284183382987976,0.2127934843301773,-0.6279090046882629
2.0129685058593765,-0.7485553177412599,-0.7348094817876816,0.850136819666624,0.7433329224586487,0.1660891026258468,-0.6588773131370544
2.0229335937500004,-1.2642030662313104,-0.6526642825424671,-0.2512345224499702,0.4180024862289428,0.1063251048326492,-0.6908901333808899
2.0328984374999983,-1.6684300558269023,-0.8500430039033293,-1.3232283789128063,0.0102213891223073,0.2007685154676437,-0.7361249923706055
2.042863769531248,-1.2916668272182346,-1.60986359282881,-2.759064315351844,-0.3381134271621704,0.4489366412162781,-0.7720212340354919
2.0528286132812497,-0.6921455213204026,-2.3022981602236627,-5.117970205721258,-0.4839270710945129,0.7291115522384644,-0.7656035423278809
2.0627944335937514,-0.4177814676955342,-2.277360410583019,-7.186601356628537,-0.3140746653079986,0.9693925380706788,-0.695724606513977
2.0727595214843753,-0.1214546159870456,-2.281363508744538,-9.398011915963888,0.0587694905698299,0.8428862690925598,-0.6076893210411072
2.082724609374999,0.8334490850422531,-2.658362884196639,-11.324946777504682,0.4168319702148437,0.4159975945949554,-0.5672639012336731
2.0926894531250007,1.609692035654187,-3.061341042774916,-11.991193010675907,0.5940232872962952,-0.0754738748073577,-0.5267545580863953
2.102654541015621,2.3985100248746574,-3.7966511675611136,-11.667802768075466,0.5802366137504578,-0.4822429716587066,-0.4390364587306976
2.112619384765626,2.981161298383772,-4.718597962680459,-11.447124711930751,0.3438389897346496,-0.8772798180580139,-0.23773954808712
2.12258544921875,2.6771760134771463,-5.387541764372587,-11.014655670452118,-0.075176902115345,-1.0667208433151243,0.0309083648025989
2.132550537109374,1.579009751012176,-5.633429080575704,-10.02519338220358,-0.6448976397514343,-1.0052175521850586,0.2838878929615021
2.142515380859379,0.2951983682683669,-5.208274161502719,-9.60203986608088,-1.3100717067718506,-0.8649784326553345,0.4318235218524933
2.1524807128906254,-0.8537818981707096,-4.305839583843946,-9.65897697431147,-1.9220112562179563,-0.6580092906951904,0.511094868183136
2.1624458007812493,-1.683280857347697,-3.522594280189276,-9.663589436542988,-2.304240703582764,-0.3524198830127716,0.6244955062866211
2.1724106445312508,-2.405240502173453,-2.866005517679453,-9.30958895162344,-2.3651747703552246,0.0935935676097869,0.7950254678726196
2.182376464843749,-2.6055185982376337,-2.240469188298285,-8.308643730852008,-2.1828057765960693,0.5640016198158264,0.9259054064750672
2.1923415527343764,-2.140703138297051,-1.639133234193921,-7.2462950700908895,-1.928740620613098,0.7590715289115906,0.9183958172798156
2.2023063964843743,-1.4067039499789475,-1.0784995850950478,-5.794317561668157,-1.6440061330795288,0.7671383023262024,0.7935810089111328
2.212271484374998,-0.8691654183287173,-0.7479200155124068,-3.879818403330445,-1.3434622287750244,0.629387617111206,0.6686263084411621
2.2222365722656257,-0.4407844498813152,-0.4526332931071519,-2.3357605771034957,-1.0617977380752563,0.390494555234909,0.5610104203224182
2.2322016601562495,-0.1191305295541882,-0.156041333322227,-0.600630728444457,-0.7959564328193665,0.17221599817276,0.4599253237247467
2.2421674804687513,0.0180083157036453,0.0742427555575966,0.9111714263439178,-0.5615503787994385,-0.006666135508567,0.3944516479969024
2.252132568359375,-0.1163118188716471,0.282956817664206,2.3876713816046715,-0.3563738167285919,-0.0362088456749916,0.3756257593631744
2.262097656249999,-0.3535534352717921,0.5813873910531401,3.9582425362259146,-0.1915257722139358,0.0735689774155616,0.3874660432338714
2.2720627441406265,-0.6246988556437194,0.8954644463852047,5.066783039319515,-0.0580438748002052,0.2548719346523285,0.4065372049808502
2.2820273437499985,-0.6656957596816122,1.1972326397642492,5.899585277825594,0.0706072971224784,0.4318543672561645,0.4150390923023224
2.2919934082031297,-0.5430496962871402,1.4135034008607268,6.521133706614375,0.2062322497367859,0.5732349157333374,0.4293588995933532
2.30195849609375,-0.2683501636302098,1.5636659052774309,7.047050847119093,0.3640372157096863,0.6750625371932983,0.4467404782772064
2.311923583984374,0.1817938151455484,1.606400300632417,7.472477568870782,0.5336642861366272,0.7068300843238831,0.4585872888565063
2.321888427734379,0.6238640853200107,1.6083225008666515,7.707039188939333,0.7040478587150574,0.6064819693565369,0.4428610801696777
2.3318535156249993,0.980007135226205,1.6611913367450235,7.924458535549044,0.8443626761436462,0.4366016089916229,0.38490030169487
2.341818603515623,0.9796506499387324,1.6560437447234988,8.088096607610582,0.9856958389282228,0.2378028184175491,0.2989031672477722
2.351784667968751,0.8080548238057643,1.6511553881600498,8.225356960356235,1.1362757682800293,0.0660089403390884,0.193826824426651
2.361749511718749,0.6069271251749246,1.6697089897215365,8.487185942056774,1.251049280166626,-0.044326227158308,0.0853767395019531
2.3717148437499986,0.3866355110645293,1.709406793859601,8.730238911616802,1.2937945127487185,-0.072232961654663,-0.0140936616808176
2.381679443359374,0.1831924846960231,1.8198852304026485,8.87472161683142,1.2634930610656738,-0.0673317909240722,-0.1278589963912964
2.391644531249998,0.0083223404669668,2.083243029105663,8.680098039397597,1.166256308555603,-0.0803432017564773,-0.2591190338134765
2.4016093749999996,-0.136609451088868,2.315272208087146,8.507351362729072,1.0718257427215576,-0.0255715027451515,-0.3933565020561218
2.4115756835937496,-0.3069853435054421,2.377576688569784,8.256485673591493,1.0009325742721558,0.0797908678650856,-0.5061213970184326
2.421540527343751,-0.4348099055163562,2.5234566933616995,7.647600911542771,0.9575288891792296,0.1736669987440109,-0.5932906866073608
2.431505615234375,-0.4017517220558598,2.502214583368599,6.991800084540247,0.9741392731666564,0.219029426574707,-0.6450644135475159
2.4414704589843765,-0.158152662920393,2.308265544195473,6.099675303971767,1.0750466585159302,0.1965949535369873,-0.6894189715385437
2.4514357910156264,0.0092661332562565,1.9999018980741496,5.301829228034615,1.2384052276611328,0.1153072863817215,-0.7060719728469849
2.4614003906249984,-0.0745351261002943,1.5508894258126615,4.379114663413167,1.4225126504898071,-0.0415831431746482,-0.6597674489021301
2.4713664550781296,-0.1152915176468901,0.8956944557487964,3.70089976002872,1.5499199628829956,-0.1435345411300659,-0.59866863489151
2.48133154296875,-0.2741380628492683,0.3621373218849301,3.179781544238329,1.5105412006378174,-0.2299296110868454,-0.5960204601287842
2.491296630859374,-0.8197076330028474,-0.0366147434309124,2.0781495053589345,1.2868186235427856,-0.3482938110828399,-0.6794200539588928
2.5012614746093753,-1.3345830088809132,-0.2243152436032891,1.0207336248248815,0.9200876951217652,-0.3605495095252991,-0.861426055431366
2.511226562499999,-1.6168950989007949,-0.3802601308137178,0.1241045185744762,0.512819766998291,-0.1859236061573028,-1.0718296766281128
2.521191650390623,-1.6800271162487566,-0.6923743616402149,-1.0659750345647334,0.1508940905332565,0.0957095175981521,-1.20875346660614
2.5311577148437507,-1.2231859961882232,-1.0616735379785298,-2.6544413268387315,-0.1486934125423431,0.3470456302165985,-1.2568200826644895
2.5411225585937487,-0.2822476830141618,-1.225109365466237,-5.071561505767702,-0.3480857610702514,0.4770526885986328,-1.2119719982147217
2.55108740234375,0.7379456609215587,-1.686628852601349,-7.382524910745024,-0.3739453256130218,0.540550172328949,-1.0464890003204346
2.561052490234374,1.4438292732805014,-1.971182876329124,-9.10609466999173,-0.2287636697292328,0.5781918168067932,-0.8289567828178406
2.5710175781250015,2.309525773389637,-2.262918043732643,-10.549733973658084,0.0778311565518379,0.4846751689910888,-0.6181931495666504
2.5809824218749995,3.278082636253536,-2.8738109307333826,-11.529756233388184,0.4677242040634155,0.2562858760356903,-0.4433987736701965
2.5909487304687495,4.074759668411314,-3.601897534006834,-11.46449202631712,0.7943180203437805,-0.1219410747289657,-0.3133614063262939
2.600913574218751,4.296158147785067,-3.944682797428965,-11.371768149912358,0.8784238696098328,-0.7415525913238525,-0.2622816562652588
2.610878662109375,3.560402325057983,-3.9222617067843673,-10.79288105124235,0.6903104186058044,-1.284337282180786,-0.240037053823471
2.6208435058593764,2.217005310602486,-4.046972959080338,-9.459656763494014,0.2256608009338379,-1.5128008127212524,-0.1557815372943878
2.6308088378906263,0.9953061189059168,-4.224342034852505,-8.262782727909087,-0.4516798853874206,-1.3965593576431274,-0.0261771921068429
2.6407734374999983,0.2581962146887555,-4.110660710614919,-7.595380894961953,-1.1932406425476074,-1.0982813835144043,0.1436099112033844
2.6507385253906257,-0.3947521820247173,-3.89959687051177,-7.228061494264006,-1.801485657691956,-0.7008577585220337,0.3761062622070312
2.66070458984375,-0.6564662321086973,-3.5032392991170287,-6.901506650152802,-2.1455039978027344,-0.2522130310535431,0.6318647861480713
2.6706696777343737,-0.6110394558645784,-2.940463961814344,-6.428584017732739,-2.2326722145080566,0.1517373770475387,0.8261450529098511
2.680634521484375,-0.3549132889155298,-2.318349131314456,-5.700381386864185,-2.153570413589477,0.4421164989471435,0.914749264717102
2.690599609374999,0.0221903140960261,-1.8785799959555267,-4.773935234498977,-1.9689812660217283,0.5438383221626282,0.9256998896598816
2.7005644531250006,0.2834875270074233,-1.4540449623465537,-3.758443601980805,-1.7344825267791748,0.4113895893096924,0.8784874677658081
2.7105305175781247,0.4638858509402722,-1.0134875992193817,-2.814894923645258,-1.4882996082305908,0.1298362016677856,0.79787278175354
2.7204956054687486,0.5145218132000416,-0.6063491060912609,-1.4120616776198147,-1.227399826049805,-0.1754428148269653,0.6899345517158508
2.7304606933593796,0.4002541039092466,-0.2120285934820771,0.1346294197201728,-0.9751446843147278,-0.3996274769306183,0.5628479719161987
2.740425537109374,0.3930889249876141,0.1252215399056672,1.671550233674049,-0.7482327222824097,-0.5267343521118164,0.4526938199996948
2.7503906250000014,0.4582818934533745,0.3146498867839574,2.9709383027940985,-0.5641140341758728,-0.5765242576599121,0.409710943698883
2.7603554687499994,0.545561240716651,0.5371253477394581,4.163075957506895,-0.4241991341114044,-0.5452936887741089,0.4315848648548126
2.770321533203127,0.4947439305406063,0.8134463806509972,5.113671047222614,-0.3198202848434448,-0.4761766493320465,0.4900034368038177
2.780286621093751,0.3976398662902414,1.071904716874659,5.826399045583606,-0.2385158091783523,-0.3694183230400085,0.5460692644119263
2.790251708984375,0.2329649619942531,1.355325352658331,6.45167263237536,-0.1526035517454147,-0.2187989801168441,0.5762495398521423
2.8002165527343763,0.0626607100417837,1.4194322063878178,7.099930788913369,-0.0595720037817955,-0.0327998809516429,0.5822741389274597
2.810181640625,0.0458942293590866,1.5257634601235388,7.3731778212070465,0.0265913754701614,0.0905524119734764,0.5399386882781982
2.820146484374998,0.1896589772963896,1.768829581426084,7.304628601115941,0.1158413589000701,0.1460255235433578,0.4577343761920929
2.8301115722656256,0.3453166085306555,1.8773276578068727,7.3011974576234815,0.238687127828598,0.1841081827878952,0.3627130389213562
2.8400773925781273,0.5846512151546776,1.814449176828563,7.362422618436813,0.4009370505809784,0.1890522241592407,0.2876706123352051
2.850042480468751,1.0516166927359998,1.802380553372204,7.381183433008194,0.585094153881073,0.1612586826086044,0.2186459898948669
2.860007568359375,1.4031993028588592,1.7280606409251689,7.413457809147238,0.7740057110786438,0.1555168777704239,0.190111830830574
2.869972656249999,1.4761267380341887,1.644661057704687,7.566451153075694,0.948234498500824,0.1788477599620819,0.2228284925222396
2.8799375000000005,1.5211919144243,1.678228980785608,7.8095169821172945,1.0217089653015137,0.2243115603923797,0.2785657048225403
2.8899028320312503,1.390801301317662,1.6491493090346454,7.714772998061775,0.9599950909614564,0.2459002137184143,0.3187173902988434
2.8998686523437485,0.914738398110494,1.5818611949205397,7.494222952210903,0.790415346622467,0.2740307152271271,0.2980020344257355
2.90983349609375,0.1409938401855528,1.56595226264894,6.878204100498556,0.5940322875976562,0.2918078303337097,0.2096682041883468
2.919798583984374,-0.6065526658393442,1.6066028374671937,6.098931792128086,0.459494411945343,0.3632434010505676,0.066646859049797
2.9297636718750013,-0.987991485043615,1.6708683888897298,5.223445427149534,0.4181107580661773,0.476597398519516,-0.1131828278303146
2.9397285156249993,-0.9934276116829364,1.472868028499186,4.376510033872723,0.5371883511543274,0.6984586119651794,-0.2931598722934723
2.949693603515623,-0.4707512797303497,1.1663944339081644,3.722335931289196,0.8313264846801758,0.927801787853241,-0.4398017823696136
2.959659667968751,-0.1286981299750506,0.9323507002338768,2.510471831843257,1.185720920562744,1.006047010421753,-0.5084986090660095
2.9696245117187487,-0.0470241832370869,0.8375371580734848,1.9377157832741736,1.5222896337509155,0.9797121286392212,-0.5201243758201599
2.979589599609376,0.1032788804277777,0.6120014327645301,1.217049393129349,1.751695156097412,0.8325484395027161,-0.554317057132721
2.9895546875,-0.0138028268378227,0.3713853349626064,0.4070055143982172,1.8218272924423216,0.5887211561203003,-0.6475250124931335
2.99952001953125,-0.4418155099621042,0.4029059701249003,-0.9323831411987542,1.7107532024383545,0.2243839651346206,-0.8290032744407654
3.0094846191406255,-0.791053639318049,0.4570759517297148,-2.411104279640317,1.5482828617095947,-0.0104045746847987,-1.0538671016693115
3.019450927734379,-0.7525954599775373,0.1349731185913086,-3.4333220055431126,1.439094066619873,0.0657884255051612,-1.1825063228607178
3.0294157714843735,-0.4828543169129639,-0.6604536212444305,-4.525378406825661,1.334129810333252,0.2859732508659363,-1.1324721574783323
3.039380859375001,-0.5432403234884142,-1.0387386525928974,-5.671971869459748,1.1828420162200928,0.5565614104270935,-0.9277583360671996
3.0493459472656212,-0.5726349794726818,-1.022243444865942,-5.9903059977144,1.0341790914535522,0.8807893395423889,-0.6699100136756897
3.0593110351562487,-0.045233810955286,-1.62371120865643,-6.47300651230514,0.9005473256111145,0.9992267489433287,-0.4439696669578552
3.06927587890625,0.5967206423286349,-2.383463408520817,-7.502101722761989,0.7666324377059937,0.7710601687431335,-0.3291256427764892
3.0792421875000002,1.279474577382207,-2.958455253317952,-8.293072652232647,0.634998619556427,0.312448114156723,-0.2959913313388824
3.089207031249998,1.9693088991507888,-3.800530931603909,-8.67927327901125,0.4678716957569122,-0.2354557663202285,-0.2864782512187958
3.0991721191406256,2.3287203032031654,-4.733394549795985,-8.70030963729918,0.1785191297531128,-0.7315753698348999,-0.2670356631278991
3.109136718750001,2.017767955762893,-5.226774279311299,-8.432895548942685,-0.2304382771253585,-1.035364866256714,-0.2210007905960083
3.1191018066406215,1.066131540300697,-5.088890241709351,-8.004218885484338,-0.7659522891044617,-1.0756068229675293,-0.1535272449254989
3.129066894531249,0.1580290000081062,-4.900739659681916,-7.812970921963453,-1.3666828870773315,-0.8892837166786194,-0.0925331190228462
3.1390329589843766,-0.221151007418707,-4.80142003827393,-8.044178555428982,-1.8707406520843504,-0.5925101637840271,0.0228945910930633
3.1489978027343746,-0.3484801871281117,-4.753043837639689,-8.45546803075671,-2.1918506622314453,-0.3015300035476684,0.2155362069606781
3.158963134765621,-0.5260886246141045,-4.4318753627419465,-8.282290561455488,-2.3129377365112305,-0.0088060740381479,0.4094782173633575
3.168927978515626,-0.7625573934782296,-3.979516502662003,-7.714532759565114,-2.240909576416016,0.1884737163782119,0.5224303007125854
3.17889306640625,-0.8515525316834449,-3.34903774844259,-6.762184688702225,-2.008053064346313,0.3441857695579529,0.5014574527740479
3.1888576660156254,-0.5345695988420397,-2.636074187760055,-5.143024567478895,-1.6485791206359863,0.4803143143653869,0.4045175611972809
3.1988242187500013,-0.2191517233602702,-2.06440301181823,-3.735452602493763,-1.2640761137008667,0.3990965187549591,0.283106118440628
3.2087888183593734,-0.1010808589268475,-1.5707199154421687,-2.273276356139779,-0.9291050434112548,0.1469191610813141,0.1396048814058303
3.218753906250001,-0.2304750083420425,-0.8835203260913491,-0.4071265104293823,-0.671177089214325,-0.0758453384041786,-0.0462099350988864
3.2287187499999987,-0.289296322884038,-0.3209501559719443,1.5469108775705098,-0.5144471526145935,-0.2033915817737579,-0.1859262883663177
3.2386840820312486,-0.260453236367926,-0.0227262110710144,2.9997289284706112,-0.4609085917472839,-0.2614831030368805,-0.2182831466197967
3.24864892578125,-0.1299490798842162,0.2132227717027068,4.3525791231870645,-0.4761791527271271,-0.2309084087610244,-0.1682697832584381
3.258614990234374,-0.111253585634008,0.6171390879139304,5.501325964462756,-0.5472031831741333,-0.1316168904304504,-0.0813387557864189
3.2685800781250016,-0.1586057769827544,0.9982546665132044,6.320679523330926,-0.6535317301750183,0.0339065641164779,0.0137478066608309
3.2785451660156255,-0.2578943456653505,1.210032792365551,6.779624483802914,-0.7592154145240784,0.2322644740343094,0.1050314083695411
3.288509765625001,-0.3218285462416708,1.4901950108751654,6.598313976928592,-0.824397087097168,0.3667226731777191,0.1616145223379135
3.2984748535156214,-0.2834310841124504,1.7793638349220156,6.297806597265601,-0.7581306099891663,0.5363600254058838,0.2060030251741409
3.308440917968749,-0.2331830982569604,1.9456024448707696,6.22386048656702,-0.5500916242599487,0.6916475892066956,0.25308558344841
3.3184060058593765,-0.1593154596220702,2.122561478537321,6.039964639374613,-0.2117788195610046,0.7763984203338623,0.2626691460609436
3.3283708496093745,-0.2971234363131225,2.224991633181274,5.844789273276925,0.2119330316781997,0.7557114958763123,0.2114216685295105
3.3383361816406207,-0.3353861661467701,2.424951310946047,6.023733635541796,0.6596760153770447,0.66058349609375,0.0988183692097663
3.348301025390626,-0.1739613862205296,2.5006048100844023,6.268368321335315,1.063899040222168,0.4552101492881775,-0.0319186076521873
3.3582661132812497,-0.0473262531898915,2.436467561216652,6.6629211813956495,1.3807412385940552,0.1852359473705291,-0.1517858207225799
3.3682319335937514,0.0545686255335807,2.472289400704205,7.172913607537746,1.5519177913665771,-0.0514942966401577,-0.2467008829116821
3.3781967773437493,0.0082896163742989,2.46035258693397,7.497681568232179,1.5265482664108276,-0.2246248424053192,-0.2931698560714721
3.3881618652343732,-0.318131372224167,2.5581618037790057,7.555628145766258,1.3236993551254272,-0.3065764307975769,-0.3106455206871032
3.3981269531250007,-0.5074371887013316,2.505728144447505,7.563285382521152,1.0538784265518188,-0.251492440700531,-0.3024353981018066
3.4080917968749986,-0.5398821721669286,2.540457220262289,7.408689864093064,0.786662220954895,-0.096705250442028,-0.2807828485965729
3.4180571289062485,-0.5734226957842707,2.5191452599033712,6.74945614003241,0.5733592510223389,0.0787425339221954,-0.2229899615049362
3.42802294921875,-0.7589640451613813,2.4636273708209395,5.9055415558815,0.4515377879142761,0.2632932066917419,-0.1440663933753967
3.437987792968748,-0.7827185763668268,2.3626824862986804,4.971297881507874,0.4609070718288421,0.36818927526474,-0.1049513295292854
3.4479531250000015,-0.781538207475841,2.168951473790407,3.5260651711702344,0.6071130037307739,0.2849705517292022,-0.1391798704862594
3.4579182128906254,-0.7974074653241783,1.8476923979997637,2.1275234848588704,0.8774517178535461,0.0795326754450798,-0.2456621378660202
3.467882812500001,-0.9637702131092548,1.5031825027421115,0.9967693963915109,1.1478866338729858,-0.1967130303382873,-0.4118138551712036
3.4778479003906213,-1.1213317417360842,0.9145444099083544,-0.1088175175935029,1.327962040901184,-0.4369650185108185,-0.6048541069030762
3.487813964843749,-1.1068563493989407,0.1985454270526766,-0.7862111677229404,1.35638427734375,-0.5011876821517944,-0.7996073365211487
3.4977788085937505,-0.7911455553852021,-0.820195854911208,-1.3469716580718756,1.147679090499878,-0.456729382276535,-0.9833452701568604
3.5077438964843743,-0.57616103470698,-1.6296797616720198,-3.1654660186380146,0.6892572641372681,-0.5492582321166992,-1.1510642766952517
3.5177089843749982,0.0580304564252495,-2.119172420620918,-5.8407876364201305,0.1247353255748748,-0.5951598286628723,-1.2562593221664429
3.5276740722656257,1.4034510856628415,-2.818715943238139,-8.156388638070226,-0.3406946659088135,-0.4111103415489197,-1.1829211711883545
3.5376398925781274,2.54570535004884,-3.1666578587710856,-9.829579624688623,-0.569092333316803,0.0534537285566329,-0.8742851614952087
3.5476049804687513,3.0961855616629124,-3.0718039846003053,-10.351879159218072,-0.4733354449272156,0.6915386319160461,-0.3991818130016327
3.557570068359375,3.5673335856258865,-3.0998148580759763,-10.574349359476566,-0.1238183230161666,1.1442524194717407,0.0843065679073333
3.567534912109373,4.5375084050804375,-3.656719257518649,-11.12961008336544,0.319563090801239,1.086112141609192,0.4451387822628021
3.5774997558593746,5.590817434817552,-4.424929489126801,-10.965276430255177,0.7324091792106628,0.6376925110816956,0.6404346227645874
3.5874648437499985,5.994514555320143,-4.936829794716835,-9.50093686838746,0.99376118183136,0.0632950216531753,0.7291919589042664
3.5974309082031297,5.184686949688196,-5.0255970424503085,-8.02933696012795,0.965460240840912,-0.5941570997238159,0.7947402596473694
3.60739599609375,3.676326459786296,-4.958467626029253,-6.20845599668622,0.601804256439209,-1.086256980895996,0.8567311763763428
3.6173608398437516,1.7864178450867532,-4.492833981573582,-4.511270971018075,-0.0885098502039909,-1.325519561767578,0.8541944026947021
3.627325927734379,-0.0256112649880349,-3.987290351533889,-3.6642040603160857,-0.983270227909088,-1.2823814153671265,0.8308882713317871
3.6372910156249993,-1.1937936052262783,-3.847057120457291,-3.312939137840271,-1.874103546142578,-0.9182420372962952,0.8812973499298096
3.647255859375001,-1.8974743737787008,-3.64558411552012,-2.232587787398696,-2.5487451553344727,-0.1212956383824348,1.0067425966262815
3.657221679687499,-2.090545899464935,-2.870228688332438,-1.2958558033406733,-2.975928544998169,0.7032241225242615,1.099073886871338
3.667187011718749,-1.5552143032744523,-1.769537729695439,-1.7591887696385382,-3.158703088760376,1.1131125688552856,1.0658432245254517
3.6771518554687503,-1.0004152786131948,-0.7879223555549979,-2.262101466652751,-3.0412697792053223,1.244288682937622,0.9965895414352416
3.6871169433593742,-0.9937335358269512,-0.0194561033591628,-1.934016928756237,-2.6231112480163574,1.2294479608535769,0.9644763469696044
3.6970817871093793,-1.111787083799392,0.6658455434158445,-1.2276590499490498,-1.983837008476257,1.053452968597412,0.8947564959526062
3.7070480957031293,-1.403005095461011,1.044361168649793,-0.4982593182504177,-1.2614905834197998,0.6510077714920044,0.7409515380859375
3.7170129394531273,-1.7318197011977434,1.174069498580694,0.2818967872172594,-0.5628044605255127,0.0485720857977867,0.4845032393932342
3.726978027343751,-2.213397349238396,1.178076980656385,1.2502730328172444,0.0156085509806871,-0.5421183705329895,0.1756934523582458
3.736942871093749,-2.6636311799883843,1.297426998180151,2.572633981245756,0.4111337065696716,-0.8929756283760071,-0.114234447479248
3.7469079589843766,-2.802297892400622,1.6125751898750662,3.8027205506026736,0.5879798531532288,-0.997357189655304,-0.3134689629077911
3.7568728027343745,-2.534576637791097,1.9277777421057225,4.369247349393367,0.6300129294395447,-0.939683735370636,-0.4134395718574524
3.7668388671874986,-1.9203624974131583,2.00337951105684,4.941926825594901,0.6467183828353882,-0.6432336568832397,-0.4126366376876831
3.7768039550781296,-1.1595527513198554,2.0135484383717177,5.50924623606801,0.6448723077774048,-0.1941244155168533,-0.3223732709884643
3.78676904296875,-0.6104375444486737,1.912185036176443,5.752179378640651,0.6451376080513,0.2407596707344055,-0.1656316071748733
3.7967338867187514,-0.3223419756565243,1.9195581952929492,5.855203115263581,0.6700257658958435,0.5379334688186646,-0.022791750729084
3.8066989746093753,-0.2612744165576994,1.973967538611591,5.8365650502890345,0.7377395629882812,0.6590292453765869,0.0438727661967277
3.8166640624999992,-0.3905477891374379,2.140066155567765,6.121276894927025,0.8802284598350525,0.6740034818649292,0.022094689309597
3.826630126953127,-0.5300945723198354,2.186873499450088,6.157938692370057,1.0542010068893433,0.5564416646957397,-0.0442688874900341
3.836594970703125,-0.6378438761599362,2.288042548117041,6.136975399318337,1.1822773218154907,0.3405410647392273,-0.1386884897947311
3.84655981445313,-0.8025801187217235,2.386988660037517,6.161836868852377,1.2312629222869873,0.107289433479309,-0.2178783863782882
3.8565249023437502,-0.949616307811439,2.458854165069759,6.154746618330479,1.203039050102234,-0.0245645307004451,-0.2585542500019073
3.866489990234374,-1.0347641960039735,2.611845755432546,6.089443248292803,1.1404273509979248,0.0366319790482521,-0.2519879639148712
3.8764558105468723,-1.0654764373928307,2.6946251609280703,6.242389830470085,1.1312201023101809,0.3455734252929687,-0.1973819732666015
3.886421142578129,-1.1168255894232542,2.7736288472771644,5.866398463016748,1.1506407260894775,0.6415063142776489,-0.11946452409029
3.896385986328127,-1.2491082268215714,2.888575369144976,5.285415268850326,1.1954220533370972,0.8932017683982849,-0.0674426183104515
3.906351074218751,-1.321110363845527,3.091887864468992,4.894489367115497,1.2661240100860596,1.0337687730789185,-0.0577252730727195
3.916315917968749,-1.392143948098272,3.1324703424870965,4.271583093976974,1.3731032609939575,0.9903320670127868,-0.088865578174591
3.9262810058593764,-1.325054279165715,3.0034400579482314,3.966722195279598,1.5223156213760376,0.8023874759674072,-0.1713740229606628
3.9362468261718746,-1.0964965756870806,2.8353128577739,3.957983593028784,1.6662276983261108,0.4844105541706085,-0.2842167615890503
3.9462119140624985,-0.9550967850491404,2.565609197175503,3.7018513616651294,1.7233922481536863,0.0871526822447776,-0.4218835234642029
3.9561767578125,-0.9297336496032774,2.3220512007027865,3.3998937831938263,1.666507363319397,-0.2395170480012893,-0.5490550994873047
3.96614208984375,-1.0702733162805438,1.9410113176882269,3.205602214193344,1.543988823890686,-0.3658179938793182,-0.6491531729698181
3.9761069335937513,-1.2312211263448,1.8759663063257928,2.054580998244881,1.3353523015975952,-0.4848407804965973,-0.7690311074256897
3.9860727539062495,-1.0280549076236785,1.8698294110059737,-0.2321551434487104,1.1236693859100342,-0.6166949272155762,-0.8993092179298401
3.9960378417968734,-1.0580711295723917,1.4942957241922616,-2.306234622889757,0.9757355451583862,-0.5848198533058167,-0.9983385801315308
4.006002929687501,-0.7659566074624657,0.5675596489697694,-4.0805525725990535,0.8799059391021729,-0.2002780884504318,-1.026513934135437
4.015967529296876,0.0897251329801976,-0.8063917859643698,-5.7199231226801865,0.8433084487915039,0.356960117816925,-1.003517985343933
4.0259326171875,0.9961386972725392,-1.7440572514802215,-8.011251268339157,0.8972938656806946,0.7865570187568665,-1.0216314792633057
4.035898681640621,2.157387292724848,-2.0942928309082984,-9.636436056679488,1.0783591270446775,1.0399059057235718,-1.0769506692886353
4.045863525390626,3.2485265791624784,-2.588177002814412,-9.39250688880682,1.242106318473816,1.2277556657791138,-1.0349299907684326
4.05582861328125,4.752988892582058,-3.967667951697111,-8.038144535961747,1.29930317401886,1.227869749069214,-0.8569027781486511
4.065793701171874,6.477585072267055,-4.9820495771467685,-6.5719947098016736,1.2245453596115112,0.9142960906028748,-0.6217200756072998
4.075758789062501,7.852118106481432,-5.957032673665881,-4.838952188810706,1.006838321685791,0.2747610509395599,-0.4354504942893982
4.085723876953125,7.802913638329505,-6.816508984085917,-3.965166198009253,0.419327437877655,-0.7777801156044006,-0.3454734683036804
4.095689697265623,6.084643739056587,-7.193146832749247,-3.426858947008848,-0.5809364318847656,-1.6238576173782349,-0.2137892246246338
4.105654785156251,4.339036043263971,-7.284784082961082,-2.1862153278023,-1.7893555164337158,-1.8756115436553955,-0.0023821745999157
4.1156196289062486,2.831795789563656,-6.8520286257565015,-2.379917698737979,-2.969734907150269,-1.64089834690094,0.1634110957384109
4.12558447265625,1.7769867305271327,-5.589484724909067,-4.069744762858748,-3.833235263824463,-1.1447199583053589,0.3380995392799377
4.135549560546874,1.2201733703687787,-4.742450547432899,-5.741593102696537,-4.13219690322876,-0.3047282695770263,0.6331356763839722
4.145515625000002,0.7532027782209217,-4.009752358710766,-6.330401291400194,-3.948166608810425,0.5424909591674805,0.9782701134681702
4.1554807128906255,0.2152615840539336,-2.6843279310584065,-7.004839598855376,-3.489572763442993,0.9388685822486876,1.192491888999939
4.165445556640623,-0.2179309493936598,-1.248595162732899,-7.387257199963927,-2.824019193649292,0.7790501117706299,1.1522904634475708
4.175410644531251,-0.3166898681789636,-0.2407362170502543,-6.564238104325533,-2.030555725097656,0.3003712594509125,0.9327903985977172
4.185375732421875,-0.3841615221664309,0.3512690141290426,-4.887143680527806,-1.2879098653793335,-0.3430266082286834,0.6955461502075195
4.195340820312499,-0.553175734308362,0.6333452495664358,-3.130688719767332,-0.6856324672698975,-0.9762482047080994,0.546475887298584
4.205306640625,-0.8564740598641335,0.973188029795885,-0.8100070538520813,-0.2648346424102783,-1.3664127588272097,0.4737566709518432
4.215271728515621,-1.1617976076371967,1.234626258613169,1.5120289492815733,-0.0472214631736278,-1.4757287502288818,0.458040714263916
4.225236572265626,-1.3266188981339335,1.3264213297352194,3.479460071861744,0.0098071973770856,-1.314469814300537,0.4671330153942108
4.23520166015625,-1.4442520287372171,1.3859288729757069,5.284002479442954,-0.0718554705381393,-0.922128975391388,0.4887129962444305
4.245166503906251,-1.74385500690639,1.440692728820443,6.671141312730312,-0.2886085510253906,-0.3947263658046722,0.5611456632614136
4.255132812500001,-2.02602096645385,1.5050126407787203,7.5505901515990494,-0.5525372624397278,0.1701622307300567,0.6255138516426086
4.265097656249999,-2.1081050831615924,1.5358163598433137,7.628976290571689,-0.7825427651405334,0.6040300130844116,0.6181120872497559
4.275062744140627,-2.172784183821082,1.661119732813537,6.963270740148425,-0.8791865706443787,0.8691482543945312,0.5412929654121399
4.285027587890621,-2.030461871510744,1.6348481042206289,6.127134973305464,-0.7331015467643738,1.0529779195785522,0.4079426229000091
4.294992919921874,-1.8699433927744624,1.841682051669061,5.690590060690045,-0.3465365469455719,1.0800213813781738,0.2175104171037674
4.30495874023438,-1.8735640674896537,2.0681267085164783,5.284947066816687,0.2068816423416137,0.9439445734024048,-0.0226710308343172
4.314923583984374,-1.894612700737268,2.3199434147685767,5.369466009455919,0.8215218186378479,0.7344789505004883,-0.2727303206920624
4.3248886718750015,-1.7152942444629966,2.6657845586299893,5.81020194402039,1.4051865339279177,0.5054427981376648,-0.4385978579521179
4.334853759765625,-1.1348429652161895,2.624166015562415,6.200843768116831,1.7951737642288208,0.2032163888216018,-0.4359452724456787
4.344818603515623,-0.4689226029984653,2.5108994096055626,6.565670767477155,1.9152185916900637,-0.0719709694385528,-0.3323389887809753
4.354784667968751,-0.3093124712787568,2.607015558797121,7.139247484779357,1.8080798387527464,-0.2112140655517578,-0.2062498182058334
4.364749755859375,-0.6190270936176181,2.6528566879957918,7.630190927058458,1.5255274772644043,-0.1496377885341644,-0.1166168674826622
4.374714843749999,-1.1943953705117103,2.636748141498864,7.747474659702181,1.1575915813446045,0.070435918867588,-0.0839070379734039
4.3846796875,-1.908752577509731,2.7277596610277888,7.62509448070228,0.8028441071510315,0.379796952009201,-0.1239894852042198
4.39464501953125,-2.2886840608909726,2.8026252246588466,6.873357244989276,0.5085192918777466,0.542084276676178,-0.2138870954513549
4.404609619140626,-2.4225920344688,2.723268779349327,5.219003060787916,0.3110890090465545,0.4644853770732879,-0.3418107032775879
4.414575439453127,-2.263661409445852,2.387054711011052,4.2012300393342965,0.299097329378128,0.4139554798603058,-0.4688516855239868
4.424540527343751,-1.8888640740826723,1.9963672942072157,3.646773617565632,0.4293828904628753,0.398283302783966,-0.5620639324188232
4.434505859375001,-1.420732621461898,1.4705559521645306,2.840866400247812,0.6634235978126526,0.3242344260215759,-0.6316246390342712
4.444470703124999,-1.028553504795581,0.9581979659348726,2.193089889746904,0.902195692062378,0.1665792763233184,-0.7101101279258728
4.4544357910156265,-0.3684647713407873,0.1905991442233324,1.5965537371397018,1.0403876304626465,-0.0719244331121444,-0.775443971157074
4.464401855468751,0.3831526373848319,-0.3712678460627794,0.7366366972148418,1.0453402996063232,-0.3731239438056946,-0.8355648517608643
4.4743666992187485,0.281766000444442,-0.3995651352643966,-0.122025374212861,0.8942723274230957,-0.5442822575569153,-0.9092179536819458
4.4843317871093795,-0.3278929608471691,-0.3961223013341426,-0.7657610848903655,0.6544785499572754,-0.4478963017463684,-0.9746278524398804
4.494296630859374,-0.5061738907672465,-0.7707377042591571,-1.5728735863447187,0.3830919861793518,-0.1890208721160888,-0.9784718751907348
4.504261718750001,-0.0411596933841705,-1.4497633395045997,-3.2409231184214358,0.1531794071197509,0.009184081107378,-0.9190372824668884
4.5142275390624995,0.7044815635412931,-2.0965321342676875,-4.876033672970533,0.1084058433771133,0.2258114069700241,-0.8338103890419006
4.524192626953127,1.3603937419638037,-2.6425071434170007,-6.164919637298584,0.2460007071495056,0.3610600531101227,-0.7417752742767334
4.534157470703125,2.1358802481852472,-3.2110131333261727,-7.659733832406997,0.5110364556312561,0.2973220646381378,-0.6543611288070679
4.544122802734375,3.0971319026023147,-3.91002181841433,-8.524025434154272,0.806025505065918,0.0285910125821828,-0.584125816822052
4.554087646484376,4.001652054363489,-4.393513191121817,-8.85461932452321,1.015332818031311,-0.4665609300136566,-0.5216756463050842
4.5640537109375,4.8707116011649365,-5.001396082651615,-8.886737048795819,1.0510433912277222,-1.0833053588867188,-0.4176464378833771
4.574018798828124,5.144758843925595,-5.655523423483968,-8.602641290229558,0.8173840045928955,-1.5982991456985474,-0.2596724331378937
4.583983886718748,4.4322146776989095,-6.05776391543746,-8.025161720269917,0.2924323976039886,-1.7689812183380127,-0.063039556145668
4.593948486328127,3.60669762776494,-6.414494702103734,-6.95975484098196,-0.4017052352428436,-1.5448518991470337,0.1602276712656021
4.603913574218751,3.109007633835077,-6.600839696013927,-6.7955445219904185,-1.1253069639205933,-1.1820260286331177,0.3570392727851867
4.613879638671875,2.467148822945356,-6.328744171842932,-7.319533909302949,-1.7127907276153564,-0.8169488310813904,0.5046756863594055
4.623844726562499,1.4496958272263407,-5.55824086086154,-7.819199587219953,-2.078131675720215,-0.519086480140686,0.6228030920028687
4.633809570312501,0.535203585896641,-4.65716237398684,-8.009850169369578,-2.190804243087769,-0.267864853143692,0.6997523903846741
4.6437746582031245,0.1230794133104383,-3.8100469479680057,-7.464886967611313,-2.0708556175231934,-0.0612607896327972,0.6769826412200928
4.653739746093748,0.1806926672369241,-3.0027462304651737,-6.367341321262717,-1.7539467811584473,0.0191996991634368,0.5808938145637512
4.663704833984379,0.5512609867282211,-2.2402473622411487,-4.942226685324311,-1.333904266357422,-0.090854100883007,0.4696820378303528
4.673670654296874,0.8495148883759975,-1.477163387605548,-3.3056180011719465,-0.9372406005859376,-0.3687610924243927,0.3651584684848785
4.683635986328127,0.9464388468191028,-0.838825444318354,-1.6313386347949503,-0.6850725412368774,-0.7038387060165405,0.2837685346603393
4.693600585937499,0.8499787064954638,-0.3945756564140319,0.3651449792683124,-0.5647708773612976,-0.9085330367088318,0.2412385493516922
4.703565673828127,0.6162284028097987,0.0163294957712292,2.3139789534062145,-0.5349982976913452,-0.949401080608368,0.2242417335510254
4.713530517578125,0.4405122088111937,0.3323231983795762,3.868443022835255,-0.5862411856651306,-0.8501346111297607,0.2283777445554733
4.723496826171875,0.1825925095088779,0.8939823911339044,5.043930571520328,-0.6780986189842224,-0.6643754243850708,0.2315077632665634
4.733461669921873,-0.0072900839429348,1.5361536289736628,5.845909801739454,-0.7784625291824341,-0.4320942759513855,0.2363739013671875
4.7434267578125,-0.0966441916536539,2.042929138895869,6.174583537700772,-0.8414303064346313,-0.2476935386657714,0.2431495189666748
4.753391601562498,-0.2857833463270217,2.537659406237304,6.145303082680702,-0.8388156890869141,-0.1052485182881355,0.2441783994436264
4.763356933593752,-0.356062239754945,2.8395459652990103,6.093587508490681,-0.7523524165153503,0.0313394218683242,0.2547839283943176
4.77332275390625,-0.1476093858677893,2.9111504813075064,6.092945703455805,-0.5804948210716248,0.1439789235591888,0.3103542923927307
4.783287597656251,0.0965013491168618,2.924839691703021,5.990442775836587,-0.309219092130661,0.1900798380374908,0.3915319740772247
4.793252685546875,0.3170923115000129,2.920657145321369,5.8242637871205805,0.0375276692211627,0.1360250562429428,0.4516266286373138
4.803217773437499,0.4542222427990287,2.8989421571195124,5.878675760787725,0.4138174057006836,0.0031879169400781,0.4699257612228393
4.8131826171875005,0.4423318985190242,2.862928302191197,6.0764873206079,0.7690763473510742,-0.2050761282444,0.4466978907585144
4.823148681640621,0.2916187744822353,2.84223184338212,6.363398721116781,0.9971763491630554,-0.4233586490154266,0.3892061114311218
4.8331137695312485,0.0220677471622824,2.8681489594489333,6.866321355003118,1.0785595178604126,-0.5367990732192993,0.3230322897434234
4.84307861328125,-0.3676591540463269,2.868338636802137,7.295580786785483,1.0305230617523191,-0.5349822640419006,0.2486174553632736
4.853043701171874,-0.6628595864076167,2.931355649468302,7.204177345329523,0.8735422492027283,-0.4857340157032013,0.1511257737874984
4.863008789062501,-0.8633316706739366,3.014961276654899,6.856306741467118,0.6792260408401489,-0.4069073796272278,0.0323392078280448
4.872974853515625,-0.9175368697226048,3.0896447617173197,6.2176528640985484,0.5446361303329468,-0.2912275195121765,-0.0882743000984191
4.882939453125001,-0.9925986865781248,3.0247476343929764,5.564670017126202,0.4887091815471649,-0.1326194703578949,-0.1648266017436981
4.892904541015621,-1.020948363554105,3.048852148079872,4.665824988391996,0.4917819499969482,0.0281831286847591,-0.2077849358320236
4.902869628906249,-0.9549418867483734,2.851637677370012,3.9642449915111055,0.5852664113044739,0.1860222965478897,-0.2035318613052368
4.912834716796873,-0.9181977447841316,2.6058678500667214,2.9839912611126898,0.7342498898506165,0.3091814815998077,-0.1714136600494384
4.922800537109374,-0.8750932009425014,2.1981138553887605,2.414515549388528,0.9264454245567322,0.4274734854698181,-0.148395150899887
4.932765869140621,-0.8498730541639029,1.7332576250463725,1.8095009067714212,1.1235804557800293,0.4578427374362945,-0.1728308349847793
4.942730712890626,-0.7350381029117852,1.165654721456766,1.0788567279696464,1.2815719842910769,0.3658954799175262,-0.2537608444690704
4.95269580078125,-0.6281419818349182,0.4763876781821251,0.3800046947479248,1.361253023147583,0.1847661286592483,-0.3536830842494964
4.962660400390622,-0.5897925966311246,-0.2049965028882026,-0.0989689082741737,1.3181902170181274,0.0017909915186464,-0.4591669142246246
4.972626953125001,-0.9379100879266856,-0.4501368001163006,-0.7159492984950542,1.127907156944275,-0.1717721372842788,-0.588607132434845
4.982591552734373,-1.4091995661869643,-0.3637532326489687,-1.782086245623231,0.8429478406906128,-0.2798884809017181,-0.7551654577255249
4.992556640625001,-1.5279270678982138,-0.4299672877907752,-3.218356481826305,0.5788758397102356,-0.1960797607898712,-0.8801830410957336
