time,ax,ay,az,gx,gy,gz
0.0,-0.5954034587828442,3.4611072535693643,4.800497662732004,0.9996423721313475,0.554619312286377,-0.6554299592971802
0.009966064453120538,-0.2296436355518177,3.080344433930516,4.4036803648710245,1.175566792488098,0.4697990119457245,-0.5957221388816833
0.01993212890624463,0.2287808447100222,2.3457851275116206,3.881678351983428,1.3505959510803225,0.2677413821220398,-0.532508134841919
0.02989794921874278,0.5400103285912424,1.5023194561719893,3.2804064030259847,1.4731866121292114,-0.0149768628180027,-0.4946936070919037
0.039864013671870424,0.6401546373203396,0.7107850475996732,2.836640306985378,1.5111923217773438,-0.342002123594284,-0.523165762424469
0.049830078124994515,0.5663663109993562,-0.1319610772937536,2.2733523439854384,1.4663734436035156,-0.7299655675888062,-0.628741979598999
0.05979589843749622,0.2502099651752039,-0.699158907213807,1.3515613239496946,1.3300554752349854,-1.1020606756210327,-0.8076187372207642
0.06976293945312051,-0.4111568253913894,-0.8309493041157722,0.47676995549798,1.085772156715393,-1.37498676776886,-1.0143479108810425
0.07972875976561866,-0.9514522910669444,-0.9888245748668908,-0.4013187009334564,0.815697193145752,-1.4283820390701294,-1.1734565496444702
0.08969482421874275,-0.2214738461649045,-2.4809341871917248,-1.31208797621727,0.6422936916351318,-1.1751974821090698,-1.2044613361358645
0.0996608886718704,0.979790204539895,-4.323127987775206,-2.0449480775028466,0.4776118397712707,-0.7979958653450012,-1.086196780204773
0.10962695312499449,1.6345060127846895,-5.681597191417217,-3.1159225277900693,0.2343789637088775,-0.4884401261806488,-0.9388485550880432
0.11959277343749619,1.875639412458986,-6.044415773564577,-4.513308614325523,-0.0432295203208923,-0.2577210664749145,-0.8053388595581055
0.12956005859374287,2.2695789629265666,-6.420490727648138,-5.927465218397975,-0.2522154748439789,-0.0664009004831314,-0.6119385361671448
0.13952587890624457,2.7857597223147748,-7.272414430731534,-6.878084273511171,-0.4529742896556854,-0.0018899622373282,-0.3588142991065979
0.1494921874999946,3.5770734738737344,-8.120524128484725,-7.758626752835512,-0.7163521647453308,-0.2565632462501526,-0.090550884604454
0.1594580078124963,4.596999581708014,-9.049281480401756,-8.653529765945672,-1.064347267150879,-0.7426944375038147,0.1927098929882049
0.1694240722656204,5.28292754368782,-9.696552379468082,-9.014045331847669,-1.505484104156494,-1.3045108318328855,0.5131824612617493
0.17938989257811855,5.055561388081312,-9.869207870721816,-9.083373719617724,-1.9486563205718996,-1.7755109071731567,0.8479434847831726
0.18935693359374284,3.7793402595371006,-9.161839938089251,-8.865271651440858,-2.360426425933838,-2.109118223190308,1.0860573053359983
0.19932299804687048,1.7203116342335938,-7.495022578155994,-8.571368784609437,-2.6795525550842285,-2.1927735805511475,1.1486281156539917
0.20928906249999457,-0.3961543404402211,-5.524659493777156,-7.9299103712141505,-2.8158562183380127,-1.96531343460083,1.0211002826690674
0.21925488281249628,-2.136637934684753,-3.8120302307397127,-7.113629643920064,-2.742614269256592,-1.3790241479873655,0.80678790807724
0.22922070312499443,-2.930741901484132,-2.594357445015013,-5.675947202831506,-2.573434829711914,-0.6412513256072998,0.6242783069610596
0.23918701171874446,-2.400203969310969,-1.795416559578478,-4.0207232500582935,-2.448012590408325,-0.0034854863770306,0.4988814890384674
0.24915283203124972,-1.1818834602672603,-1.1602759510278702,-2.4099855047434566,-2.345263957977295,0.4641051590442657,0.4682008028030395
0.2591201171874964,0.0040997634690254,-0.5835463226526976,-0.7530208457827567,-2.214268445968628,0.689734697341919,0.4774303138256073
0.26908593749999454,1.07877065712139,-0.2639189397171139,0.4792097498655319,-2.0344700813293457,0.6338179111480713,0.4901306629180908
0.27905200195311863,1.639090271835029,-0.005979074409604,1.2786124075949192,-1.799965739250183,0.3657232522964477,0.5284278392791748
0.2890180664062463,1.4810644866973162,0.3650824354261159,1.873475074031949,-1.475187063217163,0.0276511888951063,0.5752792358398438
0.29898413085937037,0.8921635782089083,0.7090124849691987,2.550828392150998,-1.0949753522872925,-0.2954238653182983,0.591041088104248
0.3089499511718685,0.2962609011996537,0.985159622618556,3.141204268562793,-0.7087469696998596,-0.5357677340507507,0.5559888482093811
0.31891699218749636,-0.4964051417510956,1.5096610511064528,3.77133990843296,-0.3389443159103393,-0.6352726221084595,0.471192866563797
0.3288828124999945,-1.0108495058007538,1.8493197069406508,4.372414873513579,0.0251361690461635,-0.5711386203765869,0.3487215340137481
0.33884912109374454,-1.1970784721158445,2.001076494811475,4.902610714250803,0.3796492516994476,-0.4127822518348694,0.203344389796257
0.34881494140624625,-1.2378402522236107,2.0626292801439763,5.149484118881821,0.7267230749130249,-0.161050409078598,0.0537437200546264
0.3587807617187444,-1.092382199170813,1.9773510435700412,5.565976423549651,1.056172251701355,0.1079821959137916,-0.1069899350404739
0.3687468261718685,-0.7715905216962099,2.140342926682532,5.890030683016777,1.3709696531295776,0.2748481631278991,-0.2674576342105865
0.3787131347656185,-0.2049943839963525,2.392103226572275,5.923515603989363,1.6752371788024902,0.3207688629627228,-0.381866842508316
0.38868017578124636,0.4915538292624056,2.5538480322331187,6.1333864349156615,1.9190770387649536,0.261906087398529,-0.4303755164146423
0.3986459960937445,1.11181411793679,2.8709856441795822,6.345110784754157,2.090158700942993,0.1479187458753585,-0.4414919316768646
0.4086120605468686,1.6208198711290955,3.245655115379393,6.586950286871194,2.190458059310913,0.0350760780274868,-0.443101018667221
0.4185778808593703,1.9201853872805832,3.5024759135290977,6.952928209832311,2.1680586338043213,-0.0986194908618927,-0.4433158338069916
0.42854418945312034,2.018388571879268,3.752432378867269,6.996142497658729,2.059743404388428,-0.2553284168243408,-0.46540167927742
0.4385100097656185,2.0132526702955365,3.92565134922266,6.834974615103006,1.929570555686951,-0.3319402635097503,-0.5190092325210571
0.44847705078124633,1.916823217371106,3.8577392579913137,6.891901201939582,1.7620209455490112,-0.3282001316547394,-0.578496515750885
0.4584428710937445,1.7190556428231298,3.7704590339452015,6.787716020321845,1.5301711559295654,-0.2350914627313614,-0.6403388381004333
0.4684089355468686,1.5542632861599326,3.721841425770521,6.601677900403738,1.290979504585266,-0.055605586618185,-0.7179675698280334
0.4783749999999998,1.81481947144568,3.4900597918093204,6.098609136044979,1.1432026624679563,0.1957744657993316,-0.7135964035987854
0.4883408203124908,2.304167607357353,2.8305396520227197,5.492652828663587,1.0750327110290527,0.4251703917980194,-0.5943389534950256
0.49830688476561846,2.7683973763644696,2.355407526859641,4.535089068979024,1.0499716997146606,0.5939748883247375,-0.4261240661144256
0.5082741699218687,3.075464552934468,1.946630326613784,3.568604920735955,1.0449734926223757,0.662017285823822,-0.2476198524236679
0.5182399902343704,3.3689623460963367,1.1909113277882335,2.53918646967411,1.0510149002075195,0.6081743240356445,-0.1111488118767738
0.5282060546874909,3.63582902970314,0.3242290315121412,1.6325228761434554,1.0019989013671875,0.4711194932460785,-0.0394328162074089
0.5381721191406186,3.738754858909547,-0.4915402391284704,0.7563748323857784,0.8593548536300659,0.2014777213335037,-0.060194831341505
0.5481379394531203,3.6143303146004673,-1.215612638324499,-0.7497551219850778,0.686524510383606,-0.0776617676019668,-0.1509835869073867
0.5581040039062444,3.3215339477062225,-1.9566817650288344,-2.101602277138829,0.5083585381507874,-0.2123717218637466,-0.2410563230514526
0.5680700683593685,3.1104712766468525,-2.397357493838668,-3.2622283567786217,0.2697238326072693,-0.250469297170639,-0.2565793395042419
0.5780368652343704,3.183309718364477,-2.823443556281924,-4.908346043032408,0.0317379049956798,-0.1086141020059585,-0.1233268231153488
0.5880029296874909,3.3109614080265164,-3.6165620191752903,-6.299116510820388,-0.2140865176916122,0.1911158859729766,0.1944423615932464
0.5979689941406185,3.2305230126991864,-4.559242682504654,-7.98243083204627,-0.4120324850082397,0.6600563526153564,0.6173935532569885
0.6079348144531203,3.2154277348980305,-5.563655287125706,-9.507599833407998,-0.5146721005439758,1.220634937286377,0.9866525530815125
0.6179008789062443,3.565660099455714,-6.507774458825588,-11.051143864893913,-0.5165703892707825,1.728545904159546,1.241413950920105
0.6278669433593684,4.063505283947289,-7.230417117479443,-12.380891416442394,-0.4354587197303772,2.040687322616577,1.4230018854141235
0.6378342285156187,4.498859817734361,-7.693488217970728,-13.294430156439542,-0.3453181385993957,2.0206546783447266,1.5679253339767456
0.6478000488281204,4.447231629566848,-7.631899484542012,-13.95013395280838,-0.2652184963226318,1.740653157234192,1.6466691493988037
0.6577658691406185,3.2993273765951394,-6.51193099398315,-13.757559709119796,-0.2264025807380676,1.3538522720336914,1.6847543716430664
0.6677319335937426,1.8730451581820844,-5.158859265470505,-12.944732921671866,-0.2107229530811309,0.9179716110229492,1.6584410667419434
0.6776979980468703,0.8659571238067001,-4.441684224572778,-11.880034482914208,-0.210556223988533,0.5016423463821411,1.5705945491790771
0.6876640624999943,0.1922433495000935,-3.929475875946879,-10.261742376697065,-0.2439144551753997,0.3146801888942718,1.4888688325881958
0.697629882812496,-0.1588715700457803,-3.3933249261975287,-7.810635172492265,-0.3395960628986358,0.3996193706989288,1.41758394241333
0.7075969238281203,-0.2294615021842531,-2.8162013300687074,-5.093012290075421,-0.5170581936836243,0.6186544895172119,1.3503552675247192
0.7175627441406185,-0.1711292680671438,-2.0057237360954283,-2.665588159275055,-0.7505892515182495,0.933946430683136,1.26771342754364
0.7275290527343685,-0.1045246244388632,-0.9461825339704752,-0.4163303921043872,-1.004209041595459,1.2453240156173706,1.216604232788086
0.7374948730468702,0.1443071111856959,-0.0514870261311531,1.2351496979653835,-1.2044047117233276,1.4890520572662354,1.2027256488800049
0.7474606933593684,0.533336257654801,0.789623021993041,2.540190093758702,-1.2828761339187622,1.5813511610031128,1.2529714107513428
0.757426757812496,0.8916317363545299,1.4938912350445983,3.4119974779635664,-1.2327125072479248,1.4477542638778689,1.3537203073501587
0.7673940429687427,0.8973398848682641,2.168044880339503,4.006952498859167,-1.09932279586792,1.0580099821090698,1.4334540367126465
0.7773601074218703,0.5477858579635619,2.845152699264884,4.527476255887747,-0.9011161923408508,0.5314396023750305,1.4701563119888306
0.7873259277343685,-0.0392559603883884,3.470660094812512,5.206354007095098,-0.6773329377174377,-0.0208989698439836,1.4509727954864502
0.7972919921874961,-0.7983407275862991,3.94146675799191,5.889529747757315,-0.4520764946937561,-0.4484246671199798,1.371972918510437
0.8072592773437428,-1.5079726596280931,4.261011723341047,6.7076908819705245,-0.2664656043052673,-0.6116460561752319,1.2718119621276855
0.8172250976562445,-2.1451054649092254,4.386429954862594,7.6535975216090675,-0.1646346300840377,-0.5543577075004578,1.1591861248016355
0.8271911621093686,-2.6521885794758795,4.503712810723483,8.283813825500012,-0.1469738781452179,-0.3147346973419189,1.026308536529541
0.837158203125,-3.054306321832537,4.752571543952822,8.707212840816378,-0.1648828089237213,0.0313084349036216,0.886254608631134
0.8471242675781205,-3.0268069050103423,4.851860185700655,8.826340740022063,-0.1540205776691436,0.3525013923645019,0.8127686977386475
0.8570903320312446,-2.4555688597887757,4.669836562120914,8.53816618770957,-0.0940634533762931,0.576670229434967,0.8271454572677612
0.8670561523437428,-1.7073185894086955,4.290654581932723,8.11149034267962,0.0022657439112663,0.6659228801727295,0.880739688873291
0.8770224609374964,-1.0679203234136103,3.920684082204103,7.55517572582364,0.1686504632234573,0.6505209803581238,0.925439178943634
0.8869882812499945,-0.596718596502021,3.4853967684343456,7.12206546383202,0.3881101012229919,0.5382184386253357,0.9356590509414672
0.8969553222656188,-0.2508263069752603,3.0468294100806115,6.739900960701704,0.6419528126716614,0.3122941851615906,0.8919335007667542
0.9069211425781205,-0.2159329074442386,2.7193919379159808,6.447211561313271,0.851118803024292,0.0131477052345871,0.7917746901512146
0.9168872070312446,-0.6768727680604905,2.6357693595945832,6.445242891588807,0.9789056777954102,-0.2881110608577728,0.6073610782623291
0.9268532714843687,-1.1536631087593734,2.5862235306590797,6.3959004762709135,1.04547917842865,-0.5429108738899231,0.3841349482536316
0.9368193359374963,-1.6225398267894982,2.356738483202457,6.289810337814688,1.0659526586532593,-0.6335797905921936,0.1377299129962921
0.9467851562499945,-1.9302200206913052,1.97975985827744,6.257938697257638,1.0687817335128784,-0.5389776825904846,-0.0875559374690055
0.9567509765624962,-1.8415432277202608,1.3483838629573583,6.009450258645415,1.0795658826828003,-0.3728002607822418,-0.2484886795282364
0.9667180175781205,-1.311430973613262,0.4677992980569601,5.4812716029495,1.0731234550476074,-0.25293830037117,-0.3880087435245514
0.9766843261718705,-0.8439571811836213,-0.1420253751903772,4.5452229249805205,1.0241577625274658,-0.1754328608512878,-0.4648541212081909
0.9866503906249946,-0.8405416736517101,-0.5830471409589052,3.63075596422255,0.9179083108901978,-0.1206516325473785,-0.4844437837600708
0.9966162109374945,-0.9177928172450512,-1.0991536660671233,2.6853648728907107,0.7481127381324768,-0.1384937018156051,-0.5445689558982849
1.0065822753906186,-0.9585770283803344,-1.7121628145694732,1.1960054360568522,0.5362934470176697,-0.2917141318321228,-0.6826701164245605
1.0165483398437427,-0.8764314638089388,-2.4989742862731217,-0.7824421705782413,0.2991630136966705,-0.5942490696907043,-0.8116351962089539
1.026515380859367,-0.935560090734437,-3.7848610687851902,-3.095471860435605,0.0065985373221337,-1.0943033695220947,-0.9665781259536744
1.0364812011718687,-1.2117859196431937,-5.036684253653884,-5.971269873332977,-0.3820370137691498,-1.592773199081421,-1.115889549255371
1.0464472656249928,-1.8953123734392223,-6.008543080672621,-8.466519001603126,-0.863071858882904,-1.7923166751861572,-1.1975079774856567
1.0564130859374945,-3.400843923525512,-6.0297945430159565,-10.16027288377881,-1.3404461145401,-1.5537961721420288,-1.1291993856430054
1.0663793945312445,-5.494485304787755,-5.085902750331163,-11.34949435878396,-1.6836642026901243,-0.7959081530570984,-0.9580020308494568
1.0763452148437427,-6.804894534137845,-4.07308121380508,-12.144410226488112,-1.6669875383377075,0.3157578706741333,-0.7933403253555298
1.086311035156248,-6.707039140063523,-3.2795950866430994,-12.839416105675696,-1.287160038948059,1.2498862743377686,-0.6190223097801208
1.0962780761718687,-5.085245163205266,-3.0486458118528126,-14.21722187795043,-0.6768425703048706,1.543410062789917,-0.3645484447479248
1.1062443847656187,-2.627320972461998,-3.600592881149053,-15.49295843784809,-0.032092060893774,1.2053472995758057,-0.0597861595451831
1.1162104492187428,-1.0307887165017426,-3.6628479695320126,-15.305441477549076,0.5434247255325317,0.3950398564338684,0.1855679601430893
1.1261762695312445,-0.7589720823373645,-2.9809470711112023,-13.700114066845178,0.918706476688385,-0.63813316822052,0.2854671478271484
1.1361423339843686,-1.0915274820376186,-2.537152333498001,-11.067910290777682,1.0362344980239868,-1.5769526958465576,0.2269063889980316
1.1461081542968667,-1.257486032935977,-2.479862758567929,-7.8892077739477156,0.9886951446533204,-2.223496198654175,0.0952527597546577
1.1560751953124946,-1.1443096625458449,-2.5530934144735333,-4.838877954530716,0.8788200616836548,-2.3805596828460693,0.0454739481210708
1.1660412597656187,-0.6302319398514926,-2.8149948768883943,-1.8058149117350577,0.703509509563446,-2.0353124141693115,0.1453550159931183
1.1760073242187428,0.2829680697105824,-2.828938646566868,1.0804811143010855,0.3991042077541351,-1.3627805709838867,0.3501131534576416
1.1859731445312445,1.3682340802006423,-2.399627192336321,3.3228204803854227,-0.0148069597780704,-0.6619383096694946,0.5967782735824585
1.1959392089843686,2.6439731243163345,-1.7027736394554376,4.576829777121544,-0.4408578872680664,-0.1215469092130661,0.8581553101539612
1.205905273437489,3.694677524513006,-0.7635065839618445,5.024302326464653,-0.7518964409828186,0.3053436875343323,1.1197341680526731
1.2158720703124946,4.302482382370531,0.2343780801951885,5.468170129314065,-0.9168070554733276,0.5869992971420288,1.3683979511260986
1.2258383789062446,4.708912434968352,0.96006785145998,5.585892253375053,-0.9473199844360352,0.7202273607254028,1.5722492933273315
1.2358044433593687,4.913576929423213,1.7154554263740778,5.695999810779094,-0.8742700219154358,0.7382684350013733,1.7046163082122805
1.2457702636718668,4.878607322850823,2.437137715563178,5.983793254819512,-0.7394948601722717,0.65467369556427,1.7631261348724363
1.255736328124998,4.655343926388025,3.013940993696451,6.265614638713002,-0.5437360405921936,0.4915713369846344,1.7559819221496582
1.2657023925781186,4.355508162376284,3.316126535704732,6.541399080529809,-0.3056704998016357,0.3050009310245514,1.7145589590072632
1.2756682128906167,4.044240319246054,3.500774662569165,6.892460004866122,-0.068590372800827,0.1622089594602584,1.632665991783142
1.2856352539062446,3.919000074639916,3.585873450922966,7.344981654292344,0.133080169558525,0.0146213602274656,1.5569944381713867
1.2956010742187427,3.975300638532638,3.464270686036348,7.490417130187153,0.3314141631126404,-0.1152169331908226,1.512529730796814
1.3055671386718668,3.983800171330571,3.146245185339451,7.642388145330548,0.5155384540557861,-0.2006316930055618,1.4852157831192017
1.315533203124998,3.8780028783410794,2.976292523303628,7.780788315761089,0.6552393436431885,-0.205225333571434,1.4888720512390137
1.3254992675781185,3.727348791015148,2.7256881154507395,7.910003893738985,0.7448450922966003,-0.0740510672330856,1.4815536737442017
1.3354650878906167,3.5581045695096254,2.470823712065816,8.100381504166126,0.7757705450057983,0.1122482120990753,1.480512619018555
1.3454321289062445,3.398775300557911,2.2060142532497644,7.951465784940123,0.7779743075370789,0.3062006533145904,1.4849276542663574
1.3553979492187427,3.2016134368181226,1.846795741420984,7.656116810953617,0.78690105676651,0.5291941165924072,1.464972734451294
1.3653645019531186,2.947981790098548,1.543622357419133,7.298534960415959,0.7804709076881409,0.6996942162513733,1.3970082998275757
1.3753303222656168,2.791581852596998,1.3809908320516346,6.525754352152347,0.797030508518219,0.7897338271141052,1.3151527643203735
1.3852961425781185,2.5844801941230893,1.1677759513944386,5.533842332664132,0.8632334470748901,0.8302565217018127,1.214565992355347
1.3952622070312426,2.287070195953548,1.1684089886009692,4.56661701066494,0.9857043027877808,0.8627307415008545,1.1179823875427246
1.4052282714843667,2.1308000223115084,1.1799977195858955,3.582237724769115,1.1667227745056152,0.8732308149337769,1.0398273468017578
1.415195312499998,2.0520462190702555,1.0599942065894603,2.5547049413233998,1.393526554107666,0.8948346972465515,0.9494162797927856
1.4251611328124891,2.0498525084182617,0.8851017500638961,1.840956952264905,1.607804775238037,0.8906333446502686,0.8116986751556396
1.4351271972656168,2.238571391852945,0.5834679967194796,1.050441949868202,1.7647340297698977,0.8358978629112244,0.649749755859375
1.4450930175781185,2.4647815092921257,0.06081774905622,0.1661170293956995,1.847833633422852,0.7755777835845947,0.4744162857532501
1.4550593261718685,2.42218593788594,-0.5638806681960821,-0.714144294899702,1.8546898365020752,0.724420428276062,0.2659967839717865
1.4650251464843667,2.3885852815791964,-1.3993354670375584,-1.921672410967946,1.7680065631866455,0.6708778142929077,0.0624820031225681
1.474992187499998,2.440385903704166,-2.5124960311472413,-3.268245425111055,1.58734929561615,0.6337032914161682,-0.0562482364475727
1.4849582519531186,2.2542452001944184,-3.5463586021363733,-4.627901792711019,1.3140140771865845,0.5904154777526855,-0.1029089540243148
1.4949243164062427,1.8531163227446377,-4.452646348091959,-6.171764388626814,0.972347617149353,0.6333450078964233,-0.1133414208889007
1.5048903808593668,1.3260662326872348,-5.484119393596052,-7.653145686188339,0.5357325077056885,0.8715669512748718,-0.1089740991592407
1.5148562011718685,0.1130908109985291,-5.984498188218474,-9.10951120043695,0.0867672115564346,1.4729011058807373,-0.0974868834018707
1.5248222656249926,-2.216835945384949,-5.094926014742255,-10.599707088094949,-0.1126548200845718,2.492964506149292,-0.0468743070960044
1.5347893066406169,-4.440156868875026,-3.83997271515429,-12.186962251013515,0.0576944760978221,3.5178706645965576,0.0023139163386076
1.5447551269531186,-4.753960367962717,-3.184965668877959,-14.574934076869487,0.5784633755683899,4.057209491729736,0.0001338524743914
1.5547211914062427,-3.0541999388486145,-2.7494974455833434,-17.030680046790838,1.2947832345962524,3.951780319213867,0.0085172895342111
1.5646872558593667,-0.6420045760359615,-2.9828058507204056,-18.40694034318924,2.0530574321746826,3.229025363922119,0.0685904771089553
1.5746530761718684,1.729764083842188,-3.573006370565295,-18.620957187879085,2.641395092010498,2.19844913482666,0.1697330325841903
1.5846191406249925,3.148000796835124,-4.146030130159855,-17.465062812936306,2.926488161087036,1.2119189500808716,0.2992998361587524
1.5945852050781166,3.299747355572879,-4.329596307006479,-15.34750367273092,2.9621775150299072,0.4507929980754852,0.4735409915447235
1.6045524902343669,2.539097622346878,-4.257448770162463,-13.071422196042535,2.78411865234375,-0.053779873996973,0.7041252255439758
1.6145183105468686,0.9781053932581096,-3.942434726241231,-10.638362689703705,2.3495066165924072,-0.1957379728555679,0.8695966005325317
1.6244843749999927,-1.6375862970128654,-3.032615299028158,-7.654985761097073,1.6557765007019043,0.3087449073791504,0.8537105917930603
1.6344501953124944,-4.54986753591597,-1.8665619336426256,-4.156598285925388,0.7997012734413147,1.2891706228256226,0.6825487017631531
1.6444162597656184,-6.1896361454039805,-0.5311076948851347,-1.3978788384884595,-0.0218570008873939,2.3349454402923584,0.5386075377464294
1.6543823242187425,-5.715152255016565,0.4042769662171602,0.1484872646808624,-0.6617370843887329,3.047183990478516,0.5097033977508545
1.6643493652343668,-3.8899855770796536,1.2534826425135135,0.8403694588899612,-1.065814733505249,3.3385109901428223,0.6037635803222656
1.6743151855468685,-1.9345798233360048,2.032546861091256,1.385768129456043,-1.278604507446289,3.165180921554565,0.7457684874534607
1.6842810058593667,-0.4578154815180227,2.8338556447029117,1.706491783195734,-1.343610405921936,2.6583821773529053,0.8734702467918396
1.6942473144531167,0.2273471951777115,3.654299921417236,2.3274480913102624,-1.3205382823944092,2.018974781036377,0.98847895860672
1.7042131347656184,0.242934402947966,4.338318542644381,3.177636348903179,-1.28685200214386,1.385414958000183,1.064972162246704
1.7141791992187425,-0.2804222211526707,4.996640997079014,4.171005581462383,-1.290396809577942,0.8611220717430115,1.1233328580856323
1.7241459960937409,-1.2104507255166768,5.624387695986032,5.267910007297992,-1.3508018255233765,0.5198571681976318,1.1643128395080566
1.7341120605468685,-2.3052349443279208,6.285671338313818,6.319933673399686,-1.4506911039352417,0.3906171321868896,1.1600416898727417
1.7440783691406185,-3.5414202689513563,6.866305572912097,7.071230179607868,-1.5444886684417725,0.4777893126010895,1.083859086036682
1.7540444335937426,-4.654697737438976,7.371760355624556,7.56504187079966,-1.581086039543152,0.7938718199729919,0.9936004877090454
1.7640102539062479,-5.080550867909193,7.58283530164361,7.97103499328494,-1.5532066822052002,1.162460207939148,0.9468939304351808
1.7739763183593684,-4.67205511495322,7.4433601954579345,7.729467878368497,-1.4201196432113647,1.3753012418746948,0.9776859283447266
1.783942382812489,-4.058045264975727,7.208610943862795,7.096095740795136,-1.2043410539627075,1.3734716176986694,1.0026568174362185
1.7939094238281168,-3.721130354891717,7.225426469585299,6.548606235429644,-0.9193143844604492,1.2076584100723269,0.9737409353256226
1.8038749999999926,-3.585566869191825,7.463827229425311,6.177694363197684,-0.5762217044830322,0.8151798844337463,0.8795416951179504
1.8138408203124943,-3.398462873607874,7.381109783250093,5.690420549342036,-0.177790030837059,0.2792529463768005,0.7401533722877502
1.8238068847656184,-3.5210619560554623,7.164334579762816,5.521552759933472,0.2446080893278122,-0.314933180809021,0.5493019223213196
1.8337729492187425,-3.566401857733726,6.826959650951624,5.535498867699504,0.6649680733680725,-0.9450988173484802,0.3529232740402221
1.8437390136718665,-3.4203105482786893,6.219619780257344,5.486522363084554,1.0349836349487305,-1.5847573280334473,0.1655680537223816
1.8537058105468684,-3.273275820493698,5.671695975127816,5.423730099084973,1.3303297758102417,-2.1133100986480717,-0.020434383302927
1.8636718749999925,-3.017510084354877,4.849284782254696,5.624769973301887,1.512135624885559,-2.4288341999053955,-0.1895547062158584
1.8736376953124942,-2.8874548406824467,3.9823219154715535,6.009619769993424,1.5458178520202637,-2.457582473754883,-0.3086447417736053
1.8836040039062478,-2.8123481617718933,3.197525290721655,6.343000660732388,1.4567924737930298,-2.283816337585449,-0.3481255769729614
1.8935700683593684,-2.783943905064464,2.276409977990389,6.215678349155187,1.2869406938552856,-2.059864282608032,-0.4047760367393493
1.9035358886718665,-3.044489276695251,1.578701269584894,5.722480990469456,1.1101754903793335,-1.8311071395874023,-0.4800614714622497
1.9135019531249977,-2.971630961233377,0.6834124720275402,5.14241841827929,0.8657196164131165,-1.7721867561340332,-0.533470869064331
1.9234687499999925,-2.8156512949705124,-0.437621601936221,4.090803917500376,0.4739614725112915,-1.830038070678711,-0.5751730799674988
1.9334350585937425,-2.7734558287978173,-1.370551855623722,2.9848440785497425,-0.0097430311143398,-1.9079010486602783,-0.6823951601982117
1.9434008789062478,-2.876093196451664,-2.1915116806447505,1.59484108800292,-0.4516051411628723,-1.9521340131759644,-0.8199807405471802
1.9533669433593683,-3.0666619455367323,-3.1980086903244254,-0.4095376632243395,-0.7853910326957703,-1.9031928777694704,-0.9612175226211548
1.9633327636718665,-3.5185619559332726,-4.03318817935586,-2.653058932569623,-0.9718064665794371,-1.6997219324111938,-1.065492033958435
1.9732990722656165,-3.986474358975887,-4.770347439140081,-4.626844977134466,-1.0235918760299685,-1.390708327293396,-1.0707138776779177
1.9832658691406184,-4.634195339897275,-5.422279315754771,-6.514548483005166,-1.0372121334075928,-1.1062099933624268,-1.0654834508895874
1.9932319335937425,-5.3193455955028535,-5.454129913523793,-8.322927107748388,-1.0455647706985474,-0.8736537098884583,-1.1020960807800293
2.0031979980468666,-5.712271731144189,-5.210125926849246,-9.778606977820395,-0.9355403184890748,-0.609843909740448,-1.147597312927246
2.0131638183593683,-5.319893877035379,-5.1275294767051935,-10.80800730870366,-0.6434089541435242,-0.3975200951099396,-1.1281557083129885
2.0231301269531183,-3.82852134681344,-5.62396274857223,-11.901207034802436,-0.1767482906579971,-0.3798412084579468,-1.026651382446289
2.0330959472656165,-1.738133122128248,-6.269433320218324,-12.664895405071974,0.3422803580760956,-0.5795683264732361,-0.8593259453773499
2.0430620117187406,0.2147169557832181,-6.867877936795353,-12.54925125632882,0.805596113204956,-0.9637090563774108,-0.6491543054580688
2.0530288085937425,1.4303773787721992,-7.289705172750353,-11.769689609622954,1.1333026885986328,-1.487942099571228,-0.4603376686573028
2.0629948730468666,1.698357430448383,-7.309801035317778,-10.666628999245166,1.3303691148757937,-1.8966501951217647,-0.3289458155632019
2.0729609374999978,0.9387884781964124,-6.946631155514717,-8.756375807914138,1.378606200218201,-2.0880086421966557,-0.2840004861354828
2.0829270019531183,-0.2281768874675035,-6.348544266334176,-6.58552346893847,1.2924838066101074,-2.031579971313477,-0.3193118572235107
2.0928928222656165,-1.1846844160974026,-5.716535233807563,-4.443908330363035,1.1692416667938232,-1.8232797384262085,-0.4238111972808838
2.1028588867187405,-1.6827917586565018,-5.061026083227992,-2.6330589315921067,1.0603407621383667,-1.457955837249756,-0.5852152705192566
2.1128256835937425,-1.6158115414477885,-4.006423506549001,-0.6122632985711097,0.9373320937156676,-1.1667113304138184,-0.777740478515625
2.1227922363281184,-0.4792180793024599,-2.189440719589591,0.5722744025319815,0.8594929575920105,-1.1602212190628052,-0.8722819089889526
2.1327580566406166,1.3579694374263285,-0.5246762005329132,1.1655553527355194,0.8318310976028442,-1.3433189392089844,-0.8134700059890747
2.1427241210937407,3.056644117130339,0.8017471750289201,2.034922942572832,0.7223508954048157,-1.4610726833343506,-0.6386933922767639
2.1526899414062424,4.167973666420579,1.8927783249169587,3.519970945948362,0.3928809762001037,-1.345403790473938,-0.423360675573349
2.1626560058593665,4.622414885732531,2.8242507810115813,5.1513884911984205,-0.1542294919490814,-1.1036639213562012,-0.2208922356367111
2.172623046874998,4.589088077931105,3.844425602909922,6.011797698554396,-0.777134358882904,-0.7362940907478333,-0.0430865213274955
2.182588867187489,4.514790377315879,4.852274611720443,6.608333851161599,-1.3252449035644531,-0.2958087921142578,0.1453491747379303
2.1925549316406165,4.708068385359645,5.520054630330205,6.636374535253643,-1.6535238027572632,0.0379263721406459,0.3562167882919311
2.2025207519531182,4.850194882836938,5.9664773783594365,6.014124680197239,-1.694640874862671,0.1790294349193573,0.5225210785865784
2.2124870605468683,4.896524964596331,6.258865748974681,5.312791936075687,-1.51862895488739,0.1507623344659805,0.6316807866096497
2.2224528808593664,4.843014615944028,6.512029778182506,4.759150337821245,-1.222452163696289,-0.0058216885663568,0.7004569172859192
2.232418945312494,4.507255305635929,6.6365300180763,4.425414642295241,-0.887218177318573,-0.2198794931173324,0.7017280459403992
2.242385742187489,3.7775124595880505,6.726468647676706,4.189149725440144,-0.5651221871376038,-0.4554134607315063,0.6056936383247375
2.2523518066406165,2.965766453114152,6.704885176900029,3.9934307539850473,-0.2982549667358398,-0.6203824877738953,0.4603610634803772
2.2623181152343665,2.3339997049108145,6.4299804405272,3.985297131890058,-0.1288414150476455,-0.6629571318626404,0.3282815814018249
2.272284179687494,2.137028395307064,5.974726735788583,4.090234008657932,-0.038154412060976,-0.5252871513366699,0.2768172025680542
2.282249999999996,2.166771207141876,5.425079760128259,4.242867871624231,0.0006113601848483,-0.2519389688968658,0.310005784034729
2.292215820312494,2.196171196888387,4.864229253408313,4.300868809694052,2.00625509023e-05,0.1268840581178665,0.3775928318500519
2.3021828613281183,2.218422191663086,4.422407861694693,4.348791421341896,-0.0231214761734008,0.4921994507312774,0.4676678478717804
2.3121489257812424,2.218764136968553,4.14495694797039,4.153398028579354,-0.0761031210422515,0.7835223078727722,0.5540419220924377
2.3221149902343665,1.8435583669349551,4.055197766590118,3.864873932176828,-0.1404432356357574,0.9989693760871888,0.5623840093612671
2.332080810546868,1.1158899890735745,4.065411117568612,3.3774984115123745,-0.1854506582021713,1.1138863563537598,0.4872935116291046
2.342046874999996,0.6266290930539369,3.780494690269232,2.73326001200974,-0.2400811463594436,1.2560709714889526,0.3899754881858825
2.3520129394531164,-0.1137967673107981,3.378184055688977,2.338860881206393,-0.3230451941490173,1.5047075748443604,0.2312945574522018
2.3619799804687407,-0.940723684042692,3.023885464605689,2.076344501763582,-0.4421025812625885,1.825728416442871,0.0468144565820694
2.3719458007812424,-1.5866187647111714,2.449246671029925,1.7836738070756195,-0.5880177021026611,2.128293037414551,-0.1455480754375457
2.3819121093749924,-2.035636789930612,1.722331157362461,1.2964356490552424,-0.6822237968444824,2.2796459197998047,-0.3482702970504761
2.391877929687494,-1.81813356442973,0.7114058098465204,0.5529430945962667,-0.7510599493980408,2.157059907913208,-0.5424269437789917
2.4018442382812477,-1.2700398095607757,-0.4937082308173179,-0.4829974517107009,-0.7992623448371887,1.829580903053284,-0.6899170875549316
2.4118100585937423,-0.914564429783076,-1.841865299281478,-1.3242425243914129,-0.8214150071144104,1.3966175317764282,-0.8228216171264648
2.4217770996093666,-0.8348413431182503,-3.119702046328783,-2.2400199832260608,-0.8805073499679565,0.8474017977714539,-1.005667209625244
2.4317429199218683,-1.1382939824528993,-3.9568396836906663,-3.832583189424872,-0.9283987879753112,0.4326420724391937,-1.1574835777282717
2.4417087402343665,-1.6961095053911208,-4.73633294133544,-4.87258908547461,-0.9844855070114136,0.2554784715175628,-1.1854959726333618
2.4516750488281165,-2.721778833052516,-5.196613534325361,-5.698883841782808,-1.1484150886535645,0.3099345266819,-1.18204665184021
2.461640869140618,-3.875573313106597,-4.83152174654901,-6.514051054877043,-1.4745756387710571,0.4883175790309906,-1.1797406673431396
2.4716069335937423,-4.780985737532377,-4.658013437858224,-7.673090742108226,-1.823613166809082,0.8329514265060425,-1.208328127861023
2.4815727539062475,-4.937455817660689,-4.779567687427997,-8.811990143108368,-1.976397156715393,1.3703980445861816,-1.2236253023147583
2.4915397949218683,-4.1424888042911885,-5.121727512428164,-9.84126538630724,-1.8286807537078855,1.901978135108948,-1.1285847425460815
2.501505859374996,-2.540686937364936,-5.454200640672445,-10.861773970204592,-1.4919801950454712,2.106394052505493,-0.931894600391388
2.5114721679687424,-0.2714101357227191,-6.132799574938416,-11.69826804896593,-1.1266217231750488,1.921175479888916,-0.7336182594299316
2.5214379882812477,1.6571235027842222,-6.656345894658565,-11.618843214595318,-0.8566812872886658,1.341512680053711,-0.5766949653625488
2.531404052734368,2.334342526999116,-6.378584015288949,-11.143571973222494,-0.7651408910751343,0.383360207080841,-0.4537729918956756
2.5413701171874887,2.359273262377083,-6.028671091943979,-10.682421611660718,-0.8388984799385071,-0.5818159580230713,-0.3430001437664032
2.5513371582031166,2.148465150600672,-5.868793833720684,-9.732712657129763,-1.0295639038085938,-1.1574468612670898,-0.167406216263771
2.5613029785156183,1.3651704548463224,-5.6460454010427,-8.38293997016251,-1.2099361419677734,-1.2326611280441284,-0.0025813146494328
2.5712690429687424,0.4198916282499209,-5.158716057607531,-7.091464573863148,-1.3621386289596558,-0.8737289905548096,0.0908209085464477
2.5812348632812476,-0.4196819675546139,-4.308837012094259,-5.789488241815567,-1.4701287746429443,-0.2933798432350158,0.1838051676750183
2.591200927734368,-0.6887928498916328,-3.347278629815578,-4.556916285383701,-1.4802368879318235,0.2571263313293457,0.2912035882472992
2.6011669921874887,-0.2097659275134094,-2.562327983547747,-3.375582933279872,-1.401986002922058,0.623286247253418,0.3961582481861114
2.611133789062494,0.5711584771793335,-1.8139695766180752,-1.9543723190426825,-1.3282403945922852,0.7490360736846924,0.5222282409667969
2.6210998535156182,1.208559870268777,-1.026448787601292,-0.4979442609518766,-1.2538535594940186,0.7671716809272766,0.6424742341041565
2.6310656738281164,1.4789758438549936,-0.3087625823110342,1.1547305918604134,-1.1550134420394895,0.6949103474617004,0.7635756731033325
2.641032226562489,1.3519674205325545,0.4150163868963718,2.4632839642107487,-1.0257420539855957,0.636138916015625,0.8853172659873962
2.6509980468749976,0.9638814183987676,1.0734753271922468,3.7661283112645143,-0.8667265176773071,0.6396275162696838,0.9910494685173036
2.6609650878906184,0.2880789647172205,1.7124845938697455,4.863461191645264,-0.675462007522583,0.6674184203147888,1.0671008825302124
2.6709309082031165,-0.6227089239355176,2.3508333508118984,5.681992912736535,-0.4964495003223419,0.7143042683601379,1.047996997833252
2.6808969726562477,-1.363255122744292,2.79694951710999,6.339077934330701,-0.3069440126419067,0.8102587461471558,0.9162280559539796
2.6908630371093682,-1.6808162207998334,3.10093567879945,6.9754159359723324,-0.0852401256561279,0.9639722108840942,0.7601223587989807
2.700829101562489,-1.3718890955768526,2.9603645940706134,7.433319278436898,0.1921925544738769,1.0765860080718994,0.6554502844810486
2.7107949218749976,-0.6167368637885898,2.609371766534448,7.725452212986349,0.4747381508350372,1.0913546085357666,0.5765286684036255
2.7207619628906183,0.1367788893716409,2.399339607566595,7.850746818128227,0.7343872785568237,0.8845773935317993,0.488034188747406
2.7307277832031165,0.5585471251484007,2.402782733757794,7.827633653566241,0.989398717880249,0.5114414095878601,0.4084392488002777
2.7406938476562477,0.8773845267500728,2.212455392213166,8.003789846417307,1.2074644565582275,0.0378847979009151,0.2986533641815185
2.750659912109368,0.8938847759783267,2.2737954115778205,8.100976547449827,1.3748114109039309,-0.3282985687255859,0.1167667582631111
2.76062573242187,0.8746374930642544,2.4791899738729,8.461675653225184,1.487326979637146,-0.5192506909370422,-0.1767356991767883
2.7705920410156164,0.5444377896446735,2.755117331291735,8.2379013846308,1.519119381904602,-0.7041321396827698,-0.6767316460609436
2.7805588378906183,0.0324169629475101,3.5387153939068314,7.376897718513011,1.5571796894073486,-0.815808892250061,-1.428131341934204
2.7905249023437424,-0.7781678542599082,4.572600176727772,7.171162379956245,1.8985183238983157,-0.2822729647159576,-2.281144142150879
2.8004909667968665,-2.0949911884360013,5.155834949213266,8.848218225309251,2.365551233291626,0.4490321278572082,-2.956983089447021
2.8104570312499977,-3.38872561570853,4.042385046768188,7.136916996005177,2.7688181400299072,0.9881644248962402,-3.204669952392578
2.8204228515624887,-4.560519278311729,2.417735680478811,5.330498857679963,3.188434600830078,1.3186334371566772,-3.176504373550415
2.83038891601562,-5.480680651319027,1.5918974357664584,3.475834282580018,3.28065037727356,0.8224107027053833,-2.843304395675659
2.8403557128906183,-4.717938621988893,1.3964607883840798,-0.6531038430035114,3.0308823585510254,-0.0165683701634407,-2.3492186069488525
2.8503220214843683,-3.1140999885380265,2.469370590648055,-1.1797136419475078,2.705607891082764,-0.3327646851539612,-1.824597716331482
2.8602878417968665,-2.463809741650522,2.9192963783621786,0.6763263131588697,2.435457468032837,-0.2960178554058075,-1.364938259124756
2.870253662109368,-2.443796881191432,2.675885096883773,1.2492115410655735,2.1761224269866943,-0.2189772576093673,-1.0627050399780271
2.8802197265624887,-2.788385686904192,1.9183716158568855,0.9059329411685466,1.9459567070007324,-0.1611051708459854,-1.1360557079315186
2.89018579101562,-3.349488122558593,1.593431221204996,0.560708467900753,1.7994028329849243,0.2738939523696899,-1.5291310548782349
2.9001530761718666,-4.099460102164745,1.1490946318000554,1.5726865393400191,1.539850115776062,0.3983274698257446,-1.7634285688400269
2.9101188964843683,-2.7541876492261883,0.0521732548296451,-1.424905377101898,1.1601487398147583,-0.1426651775836944,-1.6844699382781982
2.920084960937489,-0.6690379097163677,-1.282618720626831,-4.648984328228235,0.8031719923019409,-0.2179338335990905,-1.4277284145355225
2.9300507812499976,0.3949614408612251,-2.453905310490727,-3.3407822535336016,0.4576255679130554,-0.0295657981187105,-1.146230697631836
2.9400170898437405,1.1346668779969216,-2.9491292065680024,-4.369985016018152,0.2163847088813781,-0.004457514733076,-0.8470355272293091
2.9499838867187425,1.496498348803073,-2.7846938466489317,-6.263489901643991,0.1871499568223953,0.0787576586008071,-0.5644940733909607
2.9599499511718665,1.9810944678820668,-2.4595634823828934,-6.820460936582088,0.407533198595047,0.1743837893009185,-0.3330156207084656
2.9699157714843682,2.9949153907090422,-2.685892111635208,-7.211648119601607,0.8439100980758667,0.1121540516614914,-0.1335821002721786
2.979881835937489,4.617442065756023,-3.0139748959660526,-6.9670876680880784,1.363148808479309,-0.2072300612926483,0.0581689588725566
2.9898479003906164,6.47524581566453,-3.5865211011767384,-5.960982288074493,1.7310783863067627,-0.7663490176200867,0.2321446388959884
2.9998139648437405,7.058610352009534,-4.83693091211617,-4.870181439810991,1.796397686004639,-1.479556918144226,0.2806152403354645
3.0097810058593684,6.500892298096418,-5.895290795502066,-3.962655676493049,1.5279710292816162,-2.073452949523926,0.1320580095052719
3.019747070312489,5.351152354130148,-6.345861895382404,-3.1752246115863323,0.9356054067611694,-2.592276334762573,-0.1276816874742508
3.0297128906249977,4.169210514739156,-6.378916023722291,-3.4622201832473274,0.1926628798246383,-2.7096471786499023,-0.2934707403182983
3.0396789550781182,2.77789001185298,-6.041031391823291,-3.1180893504351377,-0.5074965357780457,-2.269967555999756,-0.3455890715122223
3.0496450195312423,1.388532333472371,-5.092875511953235,-2.404992518761754,-0.9982020854949952,-1.3773552179336548,-0.2832959592342376
3.0596108398437405,0.3002516513362526,-3.669046239650249,-1.4626111306399106,-1.3009320497512815,-0.3297557532787323,-0.1345070302486419
3.0695778808593683,0.0720950760044157,-2.1695155374139548,-0.8601350665897131,-1.4547441005706787,0.4935395419597626,0.0959350913763046
3.0795437011718665,0.5480747579075396,-1.214534779959917,-0.6718465373963117,-1.4815373420715332,0.9819576740264891,0.3975610136985779
3.0895100097656165,1.242040480392426,-0.5920908636361361,-0.1696007798582315,-1.4132039546966553,1.167389154434204,0.6302549839019775
3.099475830078118,1.4963437427632509,-0.0883458074510097,0.5955664307922125,-1.2531322240829468,1.3180204629898071,0.6754280924797058
3.1094418945312423,1.3351042562760411,0.2925122892558574,2.4171961667746302,-1.3526357412338257,0.3772301077842712,0.5941715836524963
3.1194089355468666,0.8108543183311819,0.2410726093977689,-0.1980056210875511,-1.4532833099365234,-0.2956923842430115,0.4701849222183227
3.129374999999998,-0.3496319144465029,0.8705173443943262,1.5891057592213154,-1.5652521848678589,-0.6719673871994019,0.3580850660800934
3.1393410644531183,-1.8989251571089028,1.5428420206964015,1.7705635656118393,-1.5781551599502563,-0.6061420440673828,0.2514075934886932
3.1493071289062424,-2.6555793909579517,2.3584008634567257,2.2595102811157703,-1.5058562755584717,-0.2237160503864288,0.165086954832077
3.1592729492187406,-2.76635418009907,2.7759721955329177,2.5765181292027237,-1.4729856252670288,0.1087079644203186,0.1200446486473083
3.1692399902343684,-2.6120745957523583,2.592888833767176,1.5875784035235645,-1.4047439098358154,0.4190006852149963,0.1377661526203155
3.1792058105468666,-2.337335279074311,2.526314128619432,1.2283809344828127,-1.215751886367798,0.8354343771934509,0.2077076733112335
3.1891721191406166,-2.1299017582975326,2.712974179828167,1.7223264811873435,-0.9671368598937988,1.1295117139816284,0.2981151342391968
3.1991379394531183,-1.813907763428241,2.720594591704011,1.7409335665017365,-0.6608781218528748,1.1626888513565063,0.2912998497486114
3.2091037597656165,-1.4836479273192584,2.7349785063654184,1.7703759340852498,-0.2587999701499939,1.097637176513672,0.1828619539737701
3.2190698242187405,-1.6198799599304794,2.6428070031464097,2.685897956854105,0.080157846212387,0.8126327991485596,0.0287560131400823
3.2290366210937425,-1.825457331446558,2.7413801901012658,2.6308441781520844,0.3664644658565521,0.3819094002246856,-0.1010757684707641
3.2390031738281184,-1.6192818479068576,2.876601145973801,2.899373534274101,0.6417924165725708,0.0541166327893734,-0.1691243350505828
3.2489689941406166,-1.6429717894434928,2.69349791046381,3.757071729105711,0.789323091506958,-0.1990667283535003,-0.205635130405426
3.2589350585937407,-1.8471375405959785,2.588400874698162,3.98982659201324,0.8022212982177734,-0.4194997549057007,-0.2688023746013641
3.2689008789062424,-2.059091461406648,2.6889608515560623,3.803786718529463,0.7193422317504883,-0.5721423625946045,-0.3579401969909668
3.2788679199218667,-2.274836591193825,2.875077881929278,3.5924598435759543,0.5637867450714111,-0.6550692319869995,-0.439173012971878
3.288833984374998,-2.362530364476889,2.831319988745451,3.1393121712058782,0.4144903421401977,-0.7275102734565735,-0.5327831506729126
3.2988000488281184,-2.300369968640059,2.680104175883532,2.4300363591253755,0.3634812235832214,-0.6971608996391296,-0.6520988941192627
3.3087658691406165,-2.267294943642616,2.729146146950125,2.102713453251124,0.3987772464752197,-0.6728505492210388,-0.7866342067718506
3.3187319335937406,-2.0896388676226136,3.046610506632924,1.2951339188069104,0.5342075228691101,-0.6513910889625549,-0.8980933427810669
3.3286987304687425,-2.0575902630634606,3.0421517736583947,0.6411901178479195,0.7342789173126221,-0.6763585805892944,-1.0066242218017578
3.338665039062489,-1.877883099732548,2.682857273983956,-0.047318800535798,0.9320905804634094,-0.9400296211242676,-1.1110267639160156
3.348630859374998,-1.4351054302074011,1.7804454926788806,-1.4283143087625505,1.1225601434707642,-1.5661097764968872,-1.227973222732544
3.358596679687489,-0.952997766943276,0.288234758067131,-3.4878993989050384,1.3885942697525024,-2.5973360538482666,-1.4165992736816406
3.3685629882812425,-0.5168323551647365,-1.0542875193804502,-5.916986494481563,1.7476996183395386,-3.705564260482788,-1.6951255798339844
3.3785290527343665,-0.4445920254707336,-1.9754232903778552,-7.839584788122773,2.070386409759521,-4.588846206665039,-2.123981475830078
3.388496093749998,-0.617188187752664,-2.318845098137855,-8.92105140632987,2.1639366149902344,-5.008824825286865,-2.727154016494751
3.398461914062489,-0.7503129019983112,-2.047377934998274,-8.592344937142729,1.7624516487121582,-5.051522731781006,-3.316849708557129
3.4084279785156166,-0.9489528024014084,-2.173972516822815,-7.821537090256809,0.8595623970031738,-4.600154399871826,-3.613738536834717
3.4183937988281183,-1.3837405691511928,-3.288417860046029,-6.384674148857593,-0.2668437361717224,-3.718028068542481,-3.5656630992889404
3.4283601074218684,-1.523851489022374,-4.405450297152996,-5.398579875737428,-1.2475074529647827,-2.877369165420532,-3.281048059463501
3.4383269042968667,-1.4072995777845383,-4.826483167859911,-5.679971051520109,-1.836181402206421,-2.2491674423217773,-2.965453624725342
3.448292968749998,-0.8082395327229053,-5.117420755144954,-6.34553280955851,-1.9554777145385744,-1.5988452434539795,-2.726232051849365
3.458258789062489,0.071558338779211,-5.111726927417516,-5.790137061113119,-1.586471676826477,-1.1106436252593994,-2.592297077178955
3.4682248535156166,1.150901827352494,-5.073354234403372,-5.389080225986242,-0.7140249609947205,-1.0955792665481567,-2.54899525642395
3.4781909179687407,2.2786352528244254,-5.461206720042228,-5.873070195865631,0.3159008920192718,-1.3794001340866089,-2.562204599380493
3.488158203124998,2.7518229659214613,-5.188586879736185,-4.959277773368358,1.2139968872070312,-1.6771128177642822,-2.588420391082764
3.498124023437489,2.7861308937147258,-4.432759744361043,-2.7987270481765267,1.8031601905822756,-1.7075012922286987,-2.463342666625977
3.5080900878906167,2.8329847070872782,-4.088475766813755,-0.7262398063629866,2.033707857131958,-1.3610738515853882,-2.1867971420288086
3.5180559082031184,3.695595516140759,-4.123617807343602,0.1138005667030811,1.878009915351868,-1.3021042346954346,-1.7240148782730105
3.5280219726562425,5.13380139658153,-4.920033558216691,-2.083178147175908,1.4109351634979248,-1.7528704404830933,-1.0886801481246948
3.537989013671867,5.600433988946676,-5.918525540617108,-3.127662065422535,0.927093267440796,-1.744056224822998,-0.5109356045722961
3.547955078124998,3.935361426854133,-5.037145441424847,1.106019460183382,0.4623000025749206,-1.337303638458252,0.1546333581209182
3.557920898437489,4.70843984902054,-6.854201293620466,3.029631314781308,-0.0963430404663086,-1.6500957012176514,0.8971759080886841
3.567886718749998,4.5627369543612,-6.158769882497191,0.8159393665105104,-0.6517729163169861,-1.2662209272384644,0.9927145838737488
3.5778530273437408,0.6019098084695637,0.509331331884861,4.77148842586875,-1.157912254333496,-0.6435694098472595,1.034407377243042
3.5878188476562425,-0.1929146546240895,1.3550211090147497,5.632715963870287,-1.6777458190917969,-0.1637863963842392,1.1204173564910889
3.597786132812489,0.0689454528670757,2.032899327790737,4.781785947999358,-2.039083480834961,0.1993494629859924,1.2078615427017212
3.607751953124998,0.1250184916142374,3.4762989774823185,5.124577056640386,-2.199850559234619,0.5964533686637878,1.2449740171432495
3.6177180175781185,-0.0316455767162144,4.294758802381158,5.929675880184769,-2.2148637771606445,1.0583323240280151,1.2019448280334473
3.6276840820312426,-0.3768317638002336,4.726884729510545,6.4351651496887206,-2.056753158569336,1.3985322713851929,1.067149996757507
3.6376501464843667,-0.6164276517089456,5.09838521528542,6.527911237925291,-1.7352420091629028,1.5410473346710205,0.8446183800697327
3.6476169433593686,-0.5896576451398432,5.27826598161757,6.647845777338743,-1.3186004161834717,1.4864522218704224,0.5623471736907959
3.657583007812489,-0.3980843221221118,5.245792283514142,6.686375706741213,-0.8791231513023376,1.2217364311218262,0.2746179699897766
3.667548828124998,-0.1497279854569584,5.05782231875062,6.641569181287288,-0.4658176302909851,0.8673478364944458,0.0005285274237394
3.6775148925781185,-0.0287863148275762,4.833451253306865,7.042182364299893,-0.1352338343858719,0.4781830012798309,-0.2516051828861236
3.6874809570312426,-0.0084494831111282,4.849498717266321,7.1017854768693445,0.1118432730436325,0.0599581077694892,-0.4598218500614166
3.697447998046867,0.0555501839168369,4.944463650596141,6.830972393724322,0.337319552898407,-0.3617915213108063,-0.5683475732803345
3.707414062499998,-0.1098808359760791,4.949563019561768,6.583764058050513,0.5460091829299927,-0.5964257121086121,-0.5800729990005493
3.717379882812489,-0.2079888165719807,4.690072709941863,6.891788973736762,0.731442928314209,-0.5401504635810852,-0.5060027837753296
3.7273459472656167,-0.4112884524144232,4.340431004753708,7.366614224907756,0.8782981634140015,-0.4491443336009979,-0.4281111657619476
3.737312011718741,-0.8543667853865772,4.230920244199037,6.706278092563152,0.9492442011833192,-0.5004032850265503,-0.3922905921936035
3.7472790527343687,-1.241212066744268,4.151380259016156,5.421472091025114,0.9405862092971802,-0.6231141686439514,-0.410262793302536
3.757244873046867,-1.6073123009108006,3.9874358974844215,4.688573995816707,0.8772117495536804,-0.7185312509536743,-0.4826832115650177
3.767210937499998,-2.0020751504600045,3.8258985970944166,4.276781247141957,0.7734876275062561,-0.8564881682395935,-0.6286759972572327
3.777176757812489,-2.2720929915741084,3.691226507276296,3.348859177005291,0.6384832262992859,-1.045691728591919,-0.8363562226295471
3.7871430664062427,-2.430478403804451,3.428610759112239,2.2344331230044365,0.5040039420127869,-1.1020108461380005,-1.0723328590393066
3.7971098632812446,-2.212952235819399,3.012023761898279,1.5997732837080954,0.4436838626861572,-0.9757348895072936,-1.233185648918152
3.8070793457031176,-2.0162360700204967,2.433136078706384,1.1164718806147576,0.4995333254337311,-0.8403971195220947,-1.3095290660858154
3.8170451660156193,-1.9035937334418296,2.202659682124853,0.2988052519202232,0.6585555076599121,-0.8014159202575684,-1.3596962690353394
3.8270112304687434,-1.3708879557102918,2.24313723846376,-0.5306412464171648,0.8419846296310425,-0.8290389180183411,-1.360390067100525
3.8369772949218675,-0.7933399236243218,1.768517738997936,-1.0467957023203371,0.9787781834602356,-0.8901214599609375,-1.314980149269104
3.8469440917968694,-0.3957025415521115,0.9766045602411032,-1.444510241281986,1.0161569118499756,-1.008417010307312,-1.2654892206192017
3.8569101562499934,-0.1801177168931812,0.2779027491450309,-1.8614988050341603,0.9301820993423462,-1.1559313535690308,-1.24954354763031
3.8668759765624916,-0.1282652915157377,-0.0189396782696247,-2.3250240790337324,0.6909822821617126,-1.3894331455230713,-1.2333295345306396
3.8768422851562416,-0.6205874017369002,-0.1023889458507299,-3.509952825281024,0.3517160415649414,-1.6601762771606443,-1.2020155191421509
3.8868083496093693,-0.9477663690958172,-0.3156517573028802,-5.331662640762329,0.0514592789113521,-1.8112558126449585,-1.1589820384979248
3.8967753906249936,-0.6901204452335834,-0.9975941567778588,-7.102599131339788,0.0157697238028049,-1.609627604484558,-1.0392473936080933
3.9067412109374917,0.1232215982601046,-2.329323237532377,-7.7600202530205244,0.2635984718799591,-1.114137053489685,-0.8740197420120239
3.9167072753906194,1.4271074171908198,-3.6643455146133896,-7.712896098273992,0.6085492372512817,-0.6140595078468323,-0.7122801542282104
3.9266730957031175,2.977898497195542,-4.944022336569428,-7.488254983717202,0.8563025593757629,-0.3929023742675781,-0.5644978880882263
3.9366394042968675,4.386100284516811,-6.057423139175772,-7.247531333887577,0.927436113357544,-0.4822932183742523,-0.4021752476692199
3.9466062011718694,5.166800579863787,-7.03429950209558,-6.637685033330321,0.7621842622756958,-0.7972550988197327,-0.2504734098911285
3.9565722656249935,4.831078678956628,-7.764589460632204,-5.632520149037242,0.3269430696964264,-1.2405606508255005,-0.205472931265831
3.9665380859374917,3.8717809350863095,-8.06792300363183,-4.662542313459515,-0.3288764655590057,-1.6949974298477173,-0.2674508690834045
3.9765041503906193,2.7213655760765074,-7.848868749296665,-3.953787310382724,-1.1288838386535645,-2.0989186763763428,-0.3312282562255859
3.9864702148437434,1.6620042605631054,-7.227857496124505,-3.854344939377904,-1.9029549360275269,-2.307279586791992,-0.2996600568294525
3.9964374999999936,0.7264553488098084,-6.325336993747949,-3.816440448397398,-2.4636363983154297,-2.069352865219116,-0.1975515335798263
4.006403320312492,0.1464596495770849,-5.260121837639808,-3.262823984584212,-2.722038507461548,-1.5011825561523438,-0.0901599377393722
4.0163691406249935,0.1088431908908765,-3.9960745464921,-2.803285149872303,-2.7416746616363525,-0.8002417087554932,-0.0412166379392147
4.026335205078118,0.3327069735327735,-2.4887211878061293,-2.1939695951908824,-2.604920625686645,-0.1932778805494308,0.0030443214345723
4.036302246093742,0.7595812272116541,-1.326757722082734,-1.5755875214785338,-2.3221275806427,0.1929995268583297,0.0403946228325367
4.0462683105468695,1.4297269520394502,-0.5113461788386107,-0.7963450237244367,-1.9020193815231323,0.2941124439239502,0.0412247106432914
4.056234130859368,1.8293024625673888,0.2484744100868701,0.2363642855763435,-1.4424611330032349,0.1723284721374511,0.0088875433430075
4.066200195312492,1.8866585268624123,0.8495663263022899,1.4492361007601022,-1.053418517112732,-0.1379947066307068,0.0086200097575783
4.0761660156249935,1.548552507297695,1.2221557763576507,2.581868258059025,-0.7819164991378784,-0.4717604219913482,0.0317761972546577
4.086133056640618,1.0523065016310662,1.568516560178995,3.752176942801476,-0.6350787281990051,-0.7292436957359314,0.048541571944952
4.096099365234368,0.5306522792678326,1.782826250335574,4.783343114313483,-0.6053370237350464,-0.8269942402839661,0.0458997189998626
4.106065429687492,0.0850599724470637,1.911502314609289,5.518121616441011,-0.6634689569473267,-0.7674506306648254,0.0243213810026645
4.116031249999994,-0.3726380749700591,2.170385598246753,5.874137532836198,-0.7551195025444031,-0.616337239742279,-0.0046189245767891
4.125997314453118,-0.7371861477911472,2.458232818301022,5.927848080235719,-0.8164010047912598,-0.3832426965236664,-0.0401723869144916
4.13596411132812,-0.8134916810974478,2.77787861367613,5.830905124831199,-0.7949473857879639,-0.1103283464908599,-0.0723119527101516
4.14593041992187,-0.7249574384022504,3.0397052572891115,5.547590287509561,-0.6632328033447266,0.2359542548656463,-0.0698767080903053
4.155896240234368,-0.4672299006711691,3.164397220362723,5.5158098323673,-0.4279212355613708,0.5529561638832092,-0.0468006879091262
4.165862304687492,-0.093077311218623,3.302766703394055,5.408715485304594,-0.1222973689436912,0.7333911657333374,-0.0431885160505771
4.175828124999994,0.2653122024401091,3.476591530688107,5.316668485248089,0.1954275965690612,0.7533206343650818,-0.0784088224172592
4.185795166015618,0.3664023223856464,3.791659058362245,5.416338819789886,0.4319265782833099,0.5908825993537903,-0.148271843791008
4.195761230468742,0.230572221638821,4.021897262273729,5.51592206057012,0.5805906057357788,0.2847914099693298,-0.2412182986736297
4.205727050781244,-0.1679453956003301,4.178462911731004,5.487349461558461,0.6731622219085693,-0.0565415807068347,-0.3258240818977356
4.215693115234368,-0.5509529436923564,4.161961858785152,5.51349863281548,0.7408696413040161,-0.3543154597282409,-0.4066632688045501
4.225660400390618,-0.911780790413916,4.208223551483452,5.386391425293684,0.7770004272460938,-0.602230429649353,-0.4937975704669952
4.23562622070312,-1.217606661685929,4.500062763783335,4.926621119913459,0.7810657620429993,-0.7313846945762634,-0.5404710173606873
4.245592285156247,-1.3631474245861173,4.345636756703257,4.329057962346076,0.7855074405670166,-0.6385660767555237,-0.5218510031700134
4.255558349609368,-1.314356067279726,3.6055952194809913,4.03255338858366,0.8157969117164612,-0.4004325866699219,-0.4922834932804107
4.26552416992187,-1.338735598515719,2.8877082309216258,3.871187937629223,0.858705997467041,-0.1008443087339401,-0.5177150964736938
4.275491210937494,-1.5659228904239832,2.365090716484189,3.756510588091611,0.8732130527496338,0.1040894016623497,-0.6058108806610107
4.2854570312499956,-1.977705409965664,1.9012556458830832,3.338905353745818,0.826721727848053,0.0837084650993347,-0.7108395099639893
4.295423339843742,-2.146159796267748,1.2911778746575115,2.276362631717324,0.7396880388259888,-0.2211358547210693,-0.8771845102310181
4.305389160156247,-1.840986470620334,0.669104545211792,0.5145090267837047,0.6808059811592102,-0.738893985748291,-1.0656927824020386
4.315355224609368,-1.4769127738453447,-0.3342120808660984,-1.3709773875594138,0.6867133975028992,-1.2576464414596558,-1.2474164962768557
4.325322265624996,-1.4580575589887796,-1.1817279043793678,-2.59648013625741,0.6992165446281433,-1.6253973245620728,-1.414661169052124
4.33528833007812,-1.6400515180826185,-1.6428718362003565,-3.7677941986501216,0.6668329834938049,-1.8008437156677246,-1.5168949365615845
4.345254394531247,-1.96790780018121,-2.246554937952757,-5.497057201102376,0.6082218289375305,-1.783667802810669,-1.5023808479309082
4.355220458984368,-2.045917214795947,-3.0743548381268977,-7.825955491220951,0.5488064289093018,-1.517812967300415,-1.389111876487732
4.36518627929687,-1.9105008824817835,-3.612708850878477,-9.78697148606181,0.5992271900177002,-1.0330291986465454,-1.2832587957382202
4.375153320312494,-1.5726910693846643,-4.022361080393195,-10.4958796338737,0.8024154305458069,-0.4122388362884521,-1.2436802387237549
4.385119140624996,-0.3559070491932332,-5.16494881451726,-10.38151558806896,1.0374977588653564,0.1577121615409851,-1.2404930591583252
4.39508520507812,1.8834626534305512,-6.628105888602137,-9.668047000473738,1.1619532108306885,0.4138352870941162,-1.1949522495269775
4.405051269531247,4.111019607055187,-7.567147318646311,-9.014870676755905,1.089107632637024,0.095051534473896,-1.027304768562317
4.415018310546868,5.7199944343507285,-8.449742054325341,-8.942583439180254,0.840205729007721,-0.6578148007392883,-0.7344481348991394
4.42498413085937,6.413275389441847,-9.002183044618368,-8.510348790979386,0.4458156824111938,-1.5576778650283811,-0.378456562757492
4.434949951171868,5.496860217225551,-8.458975746616721,-8.182896121245623,-0.0186105966567993,-2.2785236835479736,-0.0304527692496776
4.444916259765618,3.8922289720922714,-7.757088875743746,-8.20712572261691,-0.4039293825626373,-2.6206459999084477,0.2435869723558426
4.454882324218742,2.342823501227051,-6.980459190836548,-8.468997374415396,-0.616334855556488,-2.4539835453033447,0.3891846239566803
4.46484936523437,1.0449803965266793,-6.201153564718365,-8.220004493412375,-0.6898325085639954,-1.734065055847168,0.4695401787757873
4.474815185546868,0.3947255132135003,-5.767892496079206,-6.8888383072376245,-0.7249630689620972,-0.8172076344490051,0.5234460234642029
4.484781249999996,0.4955602884247899,-5.28016801584661,-5.5401575071603055,-0.7542872428894043,-0.0954344347119331,0.5465160012245178
4.494747070312494,0.9415773782625794,-4.48474361409843,-4.205971680903435,-0.740250825881958,0.2576916515827179,0.5555015206336975
4.5047133789062475,1.539863004885614,-3.4913293733537194,-2.726280820646882,-0.6171666383743286,0.2695491015911102,0.5606839060783386
4.514680175781242,1.996840172415972,-2.680840088942647,-1.0302204150944947,-0.3859869539737701,0.1051036939024925,0.5535452961921692
4.52464624023437,1.902514998294413,-2.0164690019935367,0.9837041631132364,-0.0701580941677093,-0.301554411649704,0.4701180458068847
4.534612060546868,1.354047441677004,-1.234943361738324,2.472165774324536,0.2955567538738251,-0.8713433146476746,0.2579743862152099
4.544578124999996,1.03296423390992,-0.161662388074398,3.745257957193256,0.5773690938949585,-1.3767632246017456,0.0036662949714809
4.554545166015616,0.8571705176956951,1.1790560548216105,5.170482483246922,0.7169605493545532,-1.5811376571655271,-0.1834817677736282
4.5645114746093665,0.5880177689783275,2.3800509697288272,6.689443277618288,0.7280935645103455,-1.4342447519302368,-0.2777695059776306
4.574477294921868,0.5125225291416049,3.537681374683976,8.08189073870778,0.6651761531829834,-1.0851056575775146,-0.2832247316837311
4.58444311523437,0.8931539774857461,4.262883070170879,8.884549183362722,0.6001335978507996,-0.7493591904640198,-0.2349368631839752
4.594409179687494,1.4621768308758736,4.791553893297911,9.102430302265288,0.5589643120765686,-0.5039318799972534,-0.1900119930505752
4.604376220703118,1.8827702872522172,5.195709278962016,9.14695859529972,0.512227475643158,-0.3547386825084686,-0.1679606586694717
4.614342285156242,2.2409879514753817,5.250608743885159,9.119742087072131,0.4684834480285644,-0.2280135154724121,-0.1915000677108764
4.6243081054687405,2.306227754757553,5.2900785844862455,9.195402015951275,0.4068946540355682,-0.0892487093806266,-0.2750817239284515
4.634274169921868,2.127368440427631,5.427787265521288,9.188069188845157,0.3450704514980316,0.039367850869894,-0.409281849861145
4.6442409667968665,1.9418417771629988,5.74513238273859,8.957060292822122,0.3312612473964691,0.0811287835240364,-0.5874683260917664
4.6542072753906165,1.7837211533486843,5.958424420285224,8.286670968496798,0.4161804020404815,0.1271436810493469,-0.7390540838241577
4.664173339843741,1.7076690102815626,5.985350421133637,7.913869921517372,0.5404285192489624,0.2132357507944107,-0.8358938694000244
4.674139404296868,1.7413111676424742,6.104359077873825,7.649976993024349,0.6171339154243469,0.2945790886878967,-0.8775763511657715
4.684105224609366,1.829831016486138,5.981610650083423,7.400363349774479,0.5954711437225342,0.3750836253166199,-0.8915197253227234
4.694072265624998,1.6773457682102917,5.782820016098023,7.1474594328075645,0.4876613318920135,0.4797719717025757,-0.8692706227302551
4.704038085937489,1.291812227038294,5.662238410952687,6.705968295961618,0.3662121891975403,0.5424398183822632,-0.8244490027427673
4.714004394531242,0.8623007932562381,5.569780492007732,5.814463693118095,0.2682739198207855,0.5512010455131531,-0.8087606430053711
4.723970214843741,0.4085461679689586,5.27852726290226,4.868301032891869,0.245685800909996,0.4894167780876159,-0.7799312472343445
4.733937255859368,-0.1678300438586622,4.663494499617815,3.759480543813109,0.3041853308677673,0.321376621723175,-0.7869343161582947
4.743903076171867,-0.4869841832593083,3.883901288729906,2.379611993789673,0.4583335816860199,0.0350711271166801,-0.8556951284408569
4.753869140624998,-0.7301487234350293,2.8974165549874304,0.9194114314228296,0.6765695214271545,-0.2541154026985168,-0.9807355999946594
4.763835205078118,-1.31067474841848,2.042155231913924,-0.2550210552513599,0.8802528977394104,-0.5448575019836426,-1.1724141836166382
4.773801513671868,-1.703564643702656,1.0221721331954,-1.460986159786582,1.0138212442398071,-0.8696361184120178,-1.3841334581375122
4.783768310546867,-1.6786569969393312,-0.2876414683490991,-2.8493752853959795,1.084764003753662,-1.0101922750473022,-1.532182693481445
4.793734374999998,-1.4443302085399627,-1.621461968424916,-3.505606905031204,1.0297789573669434,-0.9722722768783568,-1.5628745555877686
4.8036999511718665,-0.9798311210721732,-3.015164398011565,-4.119550119513273,0.7843834757804871,-0.9560204148292542,-1.4770514965057373
4.813666015624998,-0.2210755310297012,-4.760249823495745,-5.140452086642385,0.3224392831325531,-1.000346302986145,-1.305295467376709
4.8236330566406185,-0.0707602837366983,-5.9797869417876,-6.104857675045729,-0.2474974244832992,-1.0350341796875,-1.0610930919647217
4.833598876953117,-1.4474240829020737,-5.934270806759596,-7.0259618818610905,-0.7624099850654602,-1.0107659101486206,-0.8472558259963989
4.843564941406248,-3.011019845552742,-5.445840808606148,-8.395233050024508,-1.1150107383728027,-0.831134557723999,-0.6898390054702759
4.853530761718742,-2.9855341066405177,-5.922733513700962,-9.783181446129085,-1.2896459102630615,-0.4134755432605743,-0.5169228911399841
4.863497070312489,-2.1370085215628145,-6.610947833052277,-10.540001684194802,-1.3986444473266602,0.1013407409191131,-0.2701186537742615
4.873463867187494,-0.8447410981029272,-7.010217784762382,-10.981029295182228,-1.5318619012832642,0.4568043053150177,0.050265222787857
4.883430175781248,0.6805445884410292,-7.348999073240161,-11.29261102656722,-1.6817888021469116,0.5447064638137817,0.4167807400226593
4.8933959960937425,1.8446265806883573,-7.441714181816577,-11.229366927146913,-1.791148066520691,0.3768868446350097,0.8594343066215515
4.903362060546867,2.4092769180826843,-7.449277895069122,-11.017171452665329,-1.808856010437012,0.0562766678631305,1.3260565996170044
4.9133288574218685,2.0796873824507,-7.166848608410358,-10.581581064295769,-1.7336323261260986,-0.2048643827438354,1.703801512718201
4.923295166015619,1.1552104843318465,-6.705775403738022,-9.676493341779707,-1.5866562128067017,-0.3714875876903534,1.931520700454712
4.933260986328117,0.169018011534214,-6.181787185469269,-8.373792202588916,-1.4117258787155151,-0.4593633711338043,1.9688574075698853
4.943227050781248,-0.7837384209338575,-5.439370735809207,-6.54313218793273,-1.2680563926696775,-0.4322173595428467,1.8446733951568604
4.953193847656243,-1.3408265794456005,-4.690864737102389,-4.156905744439364,-1.2521573305130005,-0.3663629591464996,1.5812151432037354
4.963159912109367,-1.4579868318401277,-3.7790930067777633,-2.0356804829418658,-1.349331617355347,-0.2244439721107483,1.2747292518615725
4.973125976562494,-1.382837775092572,-2.944076599353552,-0.1154740528732538,-1.4518842697143557,0.0056166583672165,1.010404109954834
4.9830920410156185,-1.2104540865175426,-2.230731345877051,1.464018659350276,-1.5458515882492063,0.2718167006969452,0.7943366169929504
