time,ax,ay,az,gx,gy,gz
0.0,0.5177057769984007,1.4770108273923397,2.668131998538971,0.3888053297996521,0.3942148685455322,-0.522631824016571
0.009965087890623892,0.4913667822577059,0.8461813600391149,1.5602560968339445,0.4206311702728271,0.4192006587982178,-0.5435384511947632
0.019930908203122044,0.6395529451001435,-0.2153361105948686,0.4186123655617237,0.4107949435710907,0.379202663898468,-0.5695833563804626
0.02989599609375304,0.5738055576220155,-0.9577502221673726,-1.1630629513978958,0.3207539916038513,0.1779691725969314,-0.6471575498580933
0.03986108398437338,0.1658028488799929,-1.4611229379087685,-2.886961796468496,0.1874931454658508,-0.108621135354042,-0.7424865961074829
0.04982617187499727,-0.3578748421348631,-1.6341718123942612,-4.507477423954009,0.0079966206103563,-0.348111480474472,-0.8518130779266357
0.05979199218749898,-0.7663469950195402,-2.0284581304728984,-5.599777570864558,-0.1827243268489837,-0.283946692943573,-0.9080690145492554
0.06975708007812287,-1.2408829809203743,-3.03042977168262,-6.425434613791108,-0.4148404002189636,0.0089506842195987,-0.9594706892967224
0.07972192382812437,-1.6718351880952715,-3.498864445033669,-7.809000264766812,-0.6674783825874329,0.4034551680088043,-1.0236821174621582
0.08968798828124847,-1.4722855524361134,-4.1504648977369065,-9.535899460697172,-0.8854093551635742,0.6972881555557251,-0.9930599927902222
0.09965283203124642,-0.7277562022753059,-4.962140761584044,-11.344622953355312,-1.0076299905776978,0.8729673027992249,-0.870085597038269
0.10961816406250335,0.3293146276807412,-5.593626647019386,-12.618251727318762,-1.0467520952224731,0.9248736500740052,-0.6462823152542114
0.1195839843749944,1.2453348457626998,-6.0664160084486,-13.41204180586338,-1.0480759143829346,0.8594128489494324,-0.3365761935710907
0.12954882812499946,1.5447862866319717,-6.1892784180074925,-13.494309754705428,-1.049829363822937,0.7150325179100037,0.0186764299869537
0.1395141601562493,1.2032874097585675,-5.801083987063169,-13.03948859616518,-1.1012492179870603,0.4952658414840698,0.3609960377216339
0.14947900390624724,0.6506522120676934,-5.338713728317618,-12.296348508405684,-1.1832479238510132,0.2360353320837021,0.6605414748191833
0.1594450683593749,-0.0300614493299275,-5.0769759320318695,-11.52402090460658,-1.2079527378082275,-0.0436210855841636,0.8993458151817322
0.16940991210937284,-0.8221166669059544,-4.688322651404143,-10.403276168978214,-1.1355160474777222,-0.2650141716003418,1.0119553804397583
0.17937524414062267,-1.4272737136684357,-4.209718466216326,-8.68499574831128,-0.9566314220428468,-0.3564164638519287,1.0567681789398191
0.18934106445312437,-1.5519081013359128,-3.8457021987169977,-6.618634295901656,-0.7556653022766113,-0.3512539267539978,1.053580403327942
0.19930590820312233,-1.3892553870499134,-3.352564461264014,-4.412372789892554,-0.6145857572555542,-0.286022424697876,0.9830153584480286
0.20927099609375333,-1.124953366299346,-2.6830712089955804,-2.066711581021547,-0.5823338031768799,-0.1716614812612533,0.8838880062103271
0.21923608398437366,-0.7540639250949025,-2.0031652837842704,0.0763970109820365,-0.6445780992507935,-0.0501989908516407,0.7914398908615112
0.22920190429687537,-0.2341836536016315,-1.331198334878683,1.815512129884958,-0.7635664939880371,0.0942793637514114,0.7283442616462708
0.23916699218749926,0.3659269964914768,-0.7701277556672692,3.233506704685092,-0.8914068341255188,0.1943301856517791,0.7292574644088745
0.24913208007812315,0.6614516193058342,-0.1481137551933526,4.20887090947628,-0.9958800077438354,0.2063042819499969,0.7495449185371399
0.25909790039062486,0.6884067001182586,0.6475546844437718,4.935726801910996,-1.059966206550598,0.1470791101455688,0.7497895359992981
0.26906298828124875,0.5267429238043725,1.3297183254539966,5.492876116025448,-1.051154375076294,0.0603508688509464,0.729844868183136
0.27902807617187264,0.3250521113980561,1.9562462962210176,5.978406301084161,-0.971686601638794,0.0027968729846179,0.6911033391952515
0.2889941406250003,0.2273926782872527,2.4557664281874896,6.30558599909544,-0.8344613909721375,-0.0484295636415481,0.6506387591362
0.2989589843749947,0.2354977318748831,2.7582734572350978,6.576875467580557,-0.6483041644096375,-0.0517438352108001,0.6082625389099121
0.30892407226562213,0.2304504584226757,2.9721771969392896,6.941380979901552,-0.4267190396785736,1.6298610717e-05,0.5560360550880432
0.31888891601562364,0.1748405802078545,3.25639424379766,7.198584055367112,-0.1879993975162506,0.0761558338999748,0.4942300021648407
0.32885473632812534,0.1153051991123706,3.536609069277346,7.42164228464663,0.0643409863114357,0.1980894654989242,0.4415715932846069
0.33881982421874923,0.1788102144911885,3.647399348248541,7.669287842693924,0.3153480291366577,0.3607580065727234,0.3866654932498932
0.3487851562499955,0.354453124057874,3.68750777901411,7.780258154407143,0.5784715414047241,0.4894946813583374,0.3354566395282745
0.35875097656250077,0.6466088549610227,3.6214316710382697,7.766789016503095,0.8281657695770264,0.5346673727035522,0.2873432338237762
0.3687158203124987,0.8303260576508938,3.621576340205967,7.857628394335508,1.0359365940093994,0.5033968091011047,0.2405600100755691
0.37868115234374855,0.9393042456988244,3.625472763122618,7.957632490876317,1.1971491575241089,0.397892951965332,0.1869140118360519
0.38864599609375006,0.9580351035233586,3.598312953518331,8.028843623653053,1.2900042533874512,0.2408026903867721,0.1170156225562095
0.39861206054687415,0.7872876378480345,3.5667186685979364,8.075973623618482,1.3001375198364258,0.0566406771540641,0.0311482772231102
0.40857714843749804,0.5422573768656701,3.589880640737712,8.141803647878765,1.2385226488113403,-0.0983513072133064,-0.0695040300488472
0.4185419921875031,0.3549777324538677,3.457651560157537,8.114381972467898,1.1053062677383425,-0.2148493826389312,-0.1798334866762161
0.42850805664062364,0.1734175616674125,3.2905034341484307,7.984528681108355,0.9036131501197816,-0.282419353723526,-0.2716939151287079
0.43847290039062514,-0.0928675957243889,3.1203830143302675,7.619247508239746,0.6597855687141418,-0.2958365976810455,-0.3517804443836212
0.44843798828124903,-0.5960930119495839,3.0827602629005906,6.910050606614351,0.4443545043468475,-0.2025554031133651,-0.4626787304878235
0.4584038085937472,-0.8560716896083206,2.650644857165217,5.890891099238395,0.3091712296009063,-0.0550351962447166,-0.5434215664863586
0.46836889648437463,-0.9171164523534476,2.16197111338377,4.402442347508669,0.2552257180213928,0.0888178423047065,-0.6333426833152771
0.47833398437499497,-0.9694043465387076,2.014351863709092,2.741970557209849,0.3093400597572326,0.177589401602745,-0.7459622621536255
0.4882990722656224,-0.9647899115458132,1.689299825376272,0.9884557415544988,0.461435317993164,0.175725981593132,-0.8541423082351685
0.4982648925781241,-0.8441632982149719,1.1370523118287323,-0.3551332883417606,0.6499397158622742,0.0664355307817459,-0.9663482308387756
0.508230224609374,-0.3846107637712732,0.2866016039073467,-1.3644950398027895,0.7869154214859009,-0.1385256052017212,-1.0934689044952393
0.5181950683593755,0.0300745645398274,-0.5764706851780415,-2.136968189552426,0.7555187344551086,-0.4447347223758697,-1.204254984855652
0.5281611328125031,0.1657214907394722,-1.2073287941038608,-2.9163012881994246,0.5191176533699036,-0.8034960627555847,-1.2796176671981812
0.538125976562501,0.2128146658258512,-1.713673219132423,-3.758399762839079,0.1395996212959289,-1.0649662017822266,-1.3401892185211182
0.5480910644531249,0.0593443520354107,-2.0695944429814817,-4.821206688761711,-0.3248143792152405,-1.146737813949585,-1.348933219909668
0.5580559082031229,-0.6276088978715241,-2.474811320397257,-6.335628670659661,-0.7475616335868835,-0.9338133335113524,-1.2728229761123655
0.5680217285156246,-1.6270532125607131,-2.5321587629944085,-7.890643359708785,-1.0303635597229004,-0.4397247731685638,-1.1641830205917358
0.5779870605468744,-2.068881764667481,-2.4642612848103047,-9.884541048932077,-1.1167758703231812,0.1019828468561172,-0.9966827034950256
0.5879521484374983,-1.7835224159061909,-2.68128198749125,-11.596205850851534,-0.9824780225753784,0.5956130623817444,-0.787891149520874
0.59791796875,-0.7054017471261322,-2.9722809495747087,-12.944924644851683,-0.7111667394638062,0.806652843952179,-0.5620503425598145
0.6078828124999944,0.7602920788947493,-3.3461323823899027,-13.969593855559824,-0.4730654954910278,0.6020078063011169,-0.2948125302791595
0.6178481445312478,1.7466653881520031,-3.632060032558441,-13.749114536857604,-0.354104220867157,0.1893368661403656,0.0392408408224582
0.6278139648437531,2.148368558358401,-4.3069343933433295,-12.815825971251725,-0.3983832597732544,-0.3266540765762329,0.3802149295806885
0.6377790527343734,2.1818936652109024,-5.2187715901196,-11.930737080669402,-0.576670229434967,-0.7786588072776794,0.6413733959197998
0.6477441406249973,1.336532097122073,-5.694414587414264,-10.697446162313222,-0.7856529951095581,-1.0233193635940552,0.8163247108459473
0.6577089843749953,0.0680996862253174,-5.528990216457843,-9.47859527271986,-0.9886287450790404,-1.0823098421096802,0.926568865776062
0.6676748046875041,-1.1545839499313384,-4.827953240412473,-7.824957127833366,-1.2121219635009766,-0.9018513560295104,0.9358174800872804
0.6776401367187503,-2.124777693282068,-3.959201152125001,-6.05102905422449,-1.4642869234085083,-0.5538036227226257,0.862016499042511
0.6876049804687483,-2.4899989526569843,-3.253602274991572,-4.565056337219477,-1.7256032228469849,-0.1126003712415695,0.7575111389160156
0.6975708007812464,-2.2527786347731946,-2.602296713581681,-3.234791483798623,-1.9329140186309812,0.3502574563026428,0.6630605459213257
0.7075358886718739,-1.5057225426137446,-1.888167616251111,-2.111834332817793,-2.056671619415283,0.7513819932937622,0.5820208191871643
0.7175009765625013,-0.4109824552051723,-1.2771744837462902,-1.1238485468626025,-2.070960760116577,1.0550870895385742,0.5348231196403503
0.7274670410156254,0.5169638360572979,-0.6648667615115642,-0.3468944523066282,-1.950065851211548,1.1814793348312378,0.5053253769874573
0.7374318847656234,1.1277873476162552,-0.0251478852599859,0.3489548919677734,-1.7145541906356812,1.0989257097244265,0.4734798967838287
0.7473972167968732,1.4442828622668982,0.5105591201141476,1.158908754327893,-1.390953779220581,0.868069589138031,0.4381762444972992
0.7573620605468747,1.6682120291620492,0.8674538651704787,2.125160262858868,-1.0261242389678955,0.5688669085502625,0.4091309309005737
0.7673281249999953,1.6315813575096427,1.117181197927892,3.249112270095944,-0.6628779172897339,0.2443713843822479,0.3883952796459198
0.7772929687500003,1.355974756477773,1.4937974192813035,4.382885414123535,-0.3431603610515594,-0.0738018900156021,0.3318871557712555
0.7872580566406242,1.007111488316208,1.9224205989867449,5.452888973551988,-0.0843716859817504,-0.359546810388565,0.2441732883453369
0.7972238769531224,0.7854783234037458,2.145504839490354,6.287559344017505,0.1439835876226425,-0.5653716921806335,0.1728439331054687
0.8071887207031239,0.6945294938474893,2.2216537209302185,7.13254827940166,0.357622891664505,-0.6049396395683289,0.1425536721944809
0.8171540527343737,0.6421786904938519,2.2279861388221383,7.867035105106234,0.5514155626296997,-0.468664139509201,0.121588684618473
0.827119140624994,0.7479162161201238,2.1772607447132466,8.385650982686876,0.7227998375892639,-0.2596387565135956,0.1282937228679657
0.8370849609375028,1.1415036652144044,2.017684807524085,8.490800040900707,0.8601078391075134,-0.0783985704183578,0.1775824874639511
0.8470500488281232,1.570872475655377,1.8892066039100288,8.500468032956123,0.9996023774147034,0.0779034197330474,0.2468888610601425
0.8570151367187471,1.7972445056580006,1.7930305412247776,8.36770382258594,1.1532871723175049,0.1735618859529495,0.3215820491313934
0.8669809570312488,1.84172179915756,1.6893965637490151,8.023602215868234,1.3066834211349487,0.1770655363798141,0.3786916732788086
0.8769462890624986,1.6232745708048342,1.6676368596225977,7.853032883238792,1.4475476741790771,0.1615192145109176,0.3914374113082886
0.8869108886718742,1.0177511018827556,1.772365354336798,7.802822452914714,1.5517174005508425,0.110080249607563,0.3319860696792602
0.8968769531249947,0.3251789526481181,1.9345617031574247,7.611703668731451,1.594717025756836,-0.0044593065977096,0.1897517442703247
0.9068417968749998,-0.3727566963810473,2.0436033848956225,7.329871763443946,1.5700390338897705,-0.1483253985643386,-0.0249525662511587
0.916807128906246,-0.8657975493308157,2.1374451594144106,7.248343234792351,1.48841655254364,-0.2222448736429214,-0.2700077891349792
0.9267719726562476,-1.0613587729409335,2.0271318503051994,7.117360647141933,1.3693355321884155,-0.2390664666891098,-0.4866053462028503
0.9367377929687493,-0.9396282169561831,1.7830460305660962,6.804579476839304,1.2325797080993652,-0.1692459285259246,-0.6459213495254517
0.9467031249999955,-0.7043516535513102,1.576053385424614,6.45877691142261,1.0993670225143433,-0.0101191215217113,-0.7357156872749329
0.956667968749997,-0.3342239174343645,1.3703808829709887,5.846393785864114,1.011173963546753,0.1764429211616516,-0.7465834617614746
0.9666340332031247,0.1703606217822059,1.0136305148214102,4.930115391770005,0.9588135480880736,0.297604501247406,-0.7043593525886536
0.9765952148437478,0.6881644888602196,0.5969476560175419,3.830596399521828,0.9252575635910034,0.3171936571598053,-0.6593818068504333
0.9865603027343752,0.9005087241627275,0.0013712883532047,2.6923440642535685,0.9069483280181884,0.213895246386528,-0.62675940990448
0.9965251464843732,0.7391526255585252,-0.3471019575774669,1.4491758950054645,0.835888147354126,0.0212342478334903,-0.6797343492507935
1.0064912109375008,0.1409947900336235,-0.4366927966535091,0.0516471851289272,0.7181125283241272,-0.2095515578985214,-0.7946790456771851
1.0164562988281247,-0.8215753265708684,-0.5046615865081548,-1.024574518162012,0.5498796105384827,-0.3445154428482055,-0.936963438987732
1.0264213867187486,-1.58840184873566,-0.400034506341815,-1.9918325733870264,0.3681276440620422,-0.278730034828186,-1.121051549911499
1.0363872070312503,-1.4862278608098625,-0.890635418793559,-3.291217135375738,0.2627034485340118,-0.0722509548068046,-1.2383208274841309
1.0463525390625037,-0.6601176672883331,-1.7375088527500628,-4.818958617573976,0.2383573651313781,0.2139062285423278,-1.2189369201660156
1.0563171386718722,0.1920734362932853,-2.309382273265719,-6.532115703877806,0.2864616513252258,0.4244321286678314,-1.08786940574646
1.0662822265625032,0.8304066486064344,-2.643448223659396,-8.414856618905066,0.3826611638069153,0.5380975008010864,-0.8761503100395203
1.0762482910156237,1.442287304535508,-3.3998639725774527,-10.083594133245944,0.5055652856826782,0.5044249296188354,-0.6515638828277588
1.0862131347656252,2.180533482773602,-4.224608576834202,-11.501985598409176,0.5854467749595642,0.288479596376419,-0.4636171758174896
1.096178222656249,2.8481556804731487,-5.197459337499738,-12.376018841969966,0.5582537651062012,-0.0665245652198791,-0.2633322775363922
1.1061440429687472,3.130660954977572,-6.169265557548403,-12.59209203466773,0.414764255285263,-0.4473550021648407,-0.0071106273680925
1.116109374999997,2.686635915739834,-6.67392422144711,-12.212474293410777,0.1652176678180694,-0.7153321504592896,0.2717318832874298
1.126074218749995,1.6571641270555555,-6.676604254311322,-11.428183864617347,-0.1798334717750549,-0.840157687664032,0.5369800329208374
1.1360393066406225,0.5245192198729143,-6.419796315643191,-10.533110171115398,-0.5999531149864197,-0.8208934664726257,0.7598398327827454
1.1460053710937501,-0.5539996909771114,-5.892012212222814,-9.58012672495842,-0.9990144968032836,-0.698858380317688,0.9742876887321472
1.155970458984374,-1.5088789608180522,-5.248310988336801,-8.541161862394214,-1.2485617399215698,-0.428571492433548,1.197645664215088
1.1659350585937531,-2.1144906925454734,-4.501394304648041,-7.225895256140828,-1.3388330936431885,-0.0843590050935745,1.3687958717346191
1.1759011230468737,-2.360996579038352,-3.5609406697183847,-5.687082929351925,-1.3521076440811155,0.1924715042114257,1.426870584487915
1.185866210937501,-2.06027248788476,-2.9950077451676127,-4.171186198726296,-1.3310590982437134,0.3150046169757843,1.379202127456665
1.195831298828125,-1.5117295279435812,-2.444063715434074,-2.457939680573344,-1.2980220317840576,0.3128738701343536,1.257312536239624
1.2057971191406232,-0.7911560767792165,-1.8404028255134817,-0.9179062875568866,-1.2959961891174316,0.1521291881799698,1.1005502939224243
1.215762207031247,-0.0628315730966627,-1.225424715025723,0.584537671777606,-1.3244915008544922,-0.0771869122982025,0.9463978409767152
1.2257272949218745,0.405716570566222,-0.7100123096615075,1.9516881945252416,-1.3699586391448977,-0.279966652393341,0.8338419795036316
1.2356921386718724,0.4996124133598059,-0.1986401195988059,3.329908977341652,-1.4162664413452148,-0.3736049234867096,0.7425333857536316
1.2456584472656225,0.3921116043880581,0.3476970008611679,4.622765014344454,-1.455047845840454,-0.3403201997280121,0.6770678758621216
1.255623291015624,0.2413624591898173,0.9056260671764612,5.598383486157656,-1.4713259935379028,-0.1989251226186752,0.6379483938217163
1.2655883789062479,0.1425442844979464,1.4863888965904712,6.3527849726438514,-1.4546661376953125,-0.0055655222386121,0.6225491762161255
1.2755529785156234,0.0612529986683279,1.991348589262366,6.75907970842421,-1.389373540878296,0.1752646267414093,0.6104236841201782
1.2855192871093735,0.0799246005862951,2.2989637551039457,6.903831878229975,-1.24082612991333,0.3334388136863708,0.5898558497428894
1.295484130859375,0.3622726387023925,2.2595357078179714,6.773898507371545,-0.9830187559127808,0.4183304011821747,0.5515593886375427
1.3054492187499953,0.7528763958107679,2.1508041149422525,6.546504879236221,-0.6531018018722534,0.408890813589096,0.5079141855239868
1.315415283203123,1.1277960423793645,1.972721337942779,6.386857338115573,-0.2860308885574341,0.3201086521148681,0.4268542528152466
1.3253801269531245,1.3791934272408484,1.963989165432751,6.289069748580455,0.1003152355551719,0.1682693511247635,0.3269367218017578
1.3353452148437484,1.4227835626423355,2.0750734589144586,6.2725552516311405,0.4644277989864349,-0.0059531638398766,0.2284193038940429
1.3453103027343722,1.457161633062363,2.0635943257838485,6.453738917255401,0.7812882661819458,-0.1561764925718307,0.1395866274833679
1.3552763671875034,1.428775788794458,2.059086492970586,6.746085202294588,1.019901156425476,-0.2648129463195801,0.0419253185391426
1.3652412109375014,1.280859455869347,2.185840357010066,7.020044766771793,1.1626436710357666,-0.3292851448059082,-0.0524653643369674
1.3752062988281253,1.223982261132449,2.23501384550184,7.264396543970704,1.219193458557129,-0.3252102136611938,-0.123837262392044
1.3851723632812494,1.1278559558730572,2.218238067267835,7.520427068525552,1.1859151124954224,-0.2326150238513946,-0.1718194335699081
1.3951372070312473,0.9837409149270504,2.223240113338828,7.677511481159925,1.0745298862457275,-0.0842218995094299,-0.2171943038702011
1.4051020507812488,0.752026281787455,2.400909925623238,7.376070035517215,0.9290289282798768,0.06468316167593,-0.2468866854906082
1.4150671386718727,0.5584989020925015,2.3745842287555337,7.068212293091416,0.8169251680374146,0.2306360304355621,-0.2365111112594604
1.4250332031250004,0.3579911619909107,2.463687576575577,6.577569879585504,0.72842937707901,0.3732416331768036,-0.2377036809921264
1.4349982910156243,0.1943153882674873,2.579234110163152,5.9334267571508885,0.6899680495262146,0.476511001586914,-0.2399335205554962
1.4449631347656222,0.2655226485867053,2.4451354363188145,5.116487858209013,0.7305647134780884,0.5519087910652161,-0.2471357583999633
1.4549291992187534,0.4658312859196216,2.08218562900722,4.228487464094162,0.8793710470199585,0.589489758014679,-0.2507100701332092
1.4648942871093737,0.6635566287610679,1.6897957921996711,3.337616482979059,1.0711759328842163,0.5356550216674805,-0.2768924236297607
1.4748591308593753,0.8276726205326617,1.3439616626009343,2.5471716232091186,1.2475264072418213,0.3642087578773498,-0.3389382362365722
1.484824462890625,0.944677974626422,0.8566156602919102,1.768213787615299,1.3715962171554563,0.0737939700484275,-0.4225553870201111
1.4947902832031232,0.7917791040483861,0.1767547432661056,1.2028484338194132,1.385940670967102,-0.2160842567682266,-0.5190128087997437
1.5047551269531247,0.3731793787725269,-0.4939315181791782,0.7121820549160242,1.228824019432068,-0.4718499779701233,-0.6498547196388245
1.5147199707031227,-0.2808551326772198,-0.9070686672002076,-0.1384136144340038,0.8837913870811462,-0.5932784676551819,-0.7985143065452576
1.5246862792968727,-0.9608873511493206,-1.3120324466377495,-1.1629419553667306,0.4404112994670868,-0.4636102318763733,-0.8904082775115967
1.5346511230468742,-1.3477256913095712,-1.7227204489409922,-2.664022225132584,0.0435600876808166,-0.0888224616646766,-0.8990065455436707
1.5446162109374981,-1.487575914417952,-2.1422598662197587,-4.46516037722826,-0.2134099155664444,0.505139946937561,-0.8009406924247742
1.554581298828122,-1.1182668012075123,-2.719957462844252,-6.3648874983698125,-0.2784022390842438,1.1072908639907837,-0.6106106042861938
1.5645471191406237,-0.6438044650647788,-3.056331105658412,-8.734915086734294,-0.1879895180463791,1.434220314025879,-0.4117611646652221
1.5745122070312476,0.0906397544739302,-3.1343992647230623,-10.68003208617568,-0.0726904869079589,1.4281675815582275,-0.2646686136722564
1.584477294921875,0.9100959060668944,-3.3943022467970847,-12.08930267177224,0.0725937336683273,1.108570575714111,-0.2024502456188202
1.594442382812499,1.7815246662177144,-4.000961734011769,-13.253394381695983,0.2643402516841888,0.5527770519256592,-0.1801682114601135
1.604408203124997,2.228743240799755,-4.556443991696835,-13.953251792567968,0.4042281210422516,-0.1255023777484893,-0.0966014042496681
1.614373046874995,1.9534087347075344,-4.737141335108876,-13.548641064351797,0.4073215126991272,-0.6809510588645935,0.0334241949021816
1.6243381347656225,1.1132519687201827,-4.726418865564465,-12.594153058850765,0.2776149213314056,-1.0571917295455933,0.1709048300981521
1.6343041992187501,0.0811290262063033,-4.683581594356895,-11.511658266639708,0.0126016391441226,-1.1836748123168943,0.2545239925384521
1.644269042968748,-1.066768888356164,-4.519178967663645,-9.915955593371391,-0.331880658864975,-0.9507449865341188,0.3228721618652344
1.6542343749999944,-1.9081826686672865,-4.288323800897598,-8.302292315998672,-0.6376216411590576,-0.4393085241317749,0.4340661466121673
1.6641992187499994,-2.1360744555830955,-3.799211665698886,-6.875297273141145,-0.8324518203735352,0.1385702490806579,0.5646334290504456
1.6741652832031235,-1.754073326320946,-2.939997221085429,-5.560412944203615,-0.9219118356704712,0.5853193402290344,0.6582981944084167
1.684130126953125,-0.8720452115487307,-2.144109293478728,-4.330472505319118,-0.9310603141784668,0.7937167286872864,0.7107095122337341
1.6940954589843749,0.0611952405991032,-1.3370517370820043,-2.9426538730740543,-0.9119223356246948,0.80555659532547,0.6970982551574707
1.7040603027343728,0.7780942775670439,-0.5847492687016725,-1.6292144822478294,-0.8745616674423218,0.6237055659294128,0.622734785079956
1.7140261230468745,1.1585101103991269,-0.1187862461611628,-0.4324748866975307,-0.8198938369750977,0.2637171447277069,0.4974454045295715
1.7239912109374984,1.3087198149584234,0.2464171852961182,0.7147972058504819,-0.7644801139831543,-0.1751190721988678,0.3631752133369446
1.7339560546875035,1.2354685546562074,0.526209693710506,1.9602455949902533,-0.6966052055358887,-0.5501161217689514,0.2768996953964233
1.743922119140624,0.9372875721141696,0.7811068303212523,3.114003542426228,-0.6177988052368164,-0.7736650705337524,0.2434591799974441
1.753887207031248,0.4644348996577784,1.1726605085656046,4.323469933080673,-0.5542078614234924,-0.812666118144989,0.2175481468439102
1.7638522949218753,0.0161931925730779,1.6168430764526127,5.348721327590942,-0.5335683822631836,-0.6936763525009155,0.2037481814622879
1.7738171386718733,-0.3427332775065675,1.923096890813112,6.233510942965745,-0.5388895869255066,-0.4568437933921814,0.2087867259979248
1.7837832031249974,-0.4212879414465278,2.1812749487906693,6.989480701681972,-0.5647071003913879,-0.1669749319553375,0.2406581044197082
1.7937482910156248,-0.17026567350775,2.3696479413971305,7.4085764668464655,-0.5835840702056885,0.1259511560201645,0.3138444721698761
1.8037133789062487,0.1226475612318143,2.464016370138526,7.606140773907303,-0.5640774965286255,0.3715012669563293,0.4086364805698395
1.8136782226562467,0.4613175713548436,2.5065707327514883,7.606299179339408,-0.5033393502235413,0.5143119096755981,0.4742626547813415
1.8236442871093743,0.6105656278077513,2.6346464930444955,7.452423791879415,-0.3991839289665222,0.5524480938911438,0.48251473903656
1.8336091308593723,0.5762697192458436,2.7030942985877395,7.307177116554975,-0.2503807246685028,0.5044383406639099,0.4559371769428253
1.8435742187499997,0.5283435274014249,2.799211616823077,7.234332829618453,-0.0743444412946701,0.3858981132507324,0.3812208771705627
1.8535390624999941,0.5980503200298175,2.746655500155687,7.117446571859717,0.1313506662845611,0.1914961040019989,0.2834509313106537
1.8635051269531253,0.6448415530275553,2.590222244906425,7.113037523245811,0.3181812763214111,-0.0433624796569347,0.1865989565849304
1.8734702148437492,0.5998057853950187,2.485712361378968,7.336752755129337,0.4496046602725982,-0.2171409577131271,0.0922460332512855
1.8834350585937472,0.5470270754855125,2.3193504173114894,7.630629318475723,0.5268848538398743,-0.2625505030155182,0.0224190112203359
1.8934013671875007,0.4661516404477879,2.129804581533372,7.793685791257023,0.5658986568450928,-0.2051919996738433,-0.0222217310220003
1.9033662109374987,0.2952994357563555,2.090821647666395,7.788622078126669,0.589719295501709,-0.0923594459891319,-0.0642488077282905
1.9133312988281226,0.1626094231335446,2.117828020274639,7.750932106679677,0.6068005561828613,0.0329842641949653,-0.1054001674056053
1.923296142578124,0.0555555176790803,2.177556220528483,7.50661130914092,0.6291894912719727,0.1132852360606193,-0.1490496546030044
1.9332624511718741,-0.1078736608721315,2.244305113199353,7.1184110329777,0.6687639355659485,0.1408441811800003,-0.1968040615320205
1.9432270507812461,-0.1692307044368237,2.0731287545874717,6.628332098573446,0.7109856605529785,0.1139145568013191,-0.2667208313941955
1.9531921386718736,-0.1414450545517727,1.7067495573490856,6.124622698223591,0.7432816028594971,0.0649563372135162,-0.3645541667938232
1.963157226562501,0.0159541231201961,1.1545794929519295,5.638274767041206,0.7470241189002991,0.0049017881974577,-0.4802634716033935
1.9731230468749956,0.0889833016369491,0.5854504027083516,4.780436286956071,0.7051466703414917,-0.1410336643457412,-0.6032101511955261
1.9830874023437488,0.0066714771205559,0.1997910431995987,3.699810795748234,0.5689009428024292,-0.3414437174797058,-0.7382547855377197
1.9930524902343727,-0.1244538434688001,-0.4636994615226983,2.299434879747033,0.3794898986816406,-0.5888215899467468,-0.8926494121551514
2.003017578125,-0.4862054174391552,-1.2248697114914655,0.8038391788721084,0.166832759976387,-0.8869124054908752,-1.0986106395721436
2.0129836425781242,-1.246214843467623,-1.2208861948132514,-0.6998176633834838,-0.1559090763330459,-1.1850154399871826,-1.4111405611038208
2.022948486328122,-2.217690808648616,-0.4067588461607694,-2.686509366750717,-0.5421707630157471,-1.2607344388961792,-1.787768006324768
2.0329133300781237,-2.8359157921031115,0.1221013620585203,-5.037838684386014,-0.7219655513763428,-0.9550397396087646,-2.0155816078186035
2.0428796386718737,-2.855501074799895,-0.4478431362211704,-6.977860406515002,-0.6322540640830994,-0.3033314049243927,-1.895394206047058
2.0528442382812493,-2.568019473187625,-0.912821823899448,-9.155579708650707,-0.3746098577976227,0.4336458444595337,-1.5088974237442017
2.062809326171873,-1.6821294953554868,-1.148409572145343,-11.96874853915572,0.0074104755185544,0.954251766204834,-1.064473032951355
2.0727744140625006,-0.7775755874551832,-1.3346513979420065,-14.39154384111166,0.4416565895080566,1.088327407836914,-0.7187532186508179
2.0827404785156247,-0.1836636458717286,-1.5610332186862823,-16.04425844141245,0.8355812430381775,0.8280904293060303,-0.5126325488090515
2.0927053222656227,0.4030096496950834,-2.0946634177863594,-16.56748035148382,1.128623366355896,0.3120733499526977,-0.4166998267173767
2.1026706542968725,0.8551145350139587,-2.8746763153910635,-16.170524521934986,1.2447479963302612,-0.2433249056339264,-0.3449992537498474
2.112635498046874,1.0259688951298591,-3.6545886752307415,-15.092882430452107,1.22771954536438,-0.6754363179206848,-0.2079160511493683
2.1226015624999945,0.7796252865266055,-4.319406921425461,-13.589246630984544,1.169509768486023,-0.9395667910575868,0.0249422322958707
2.1325664062499996,0.6069967563450336,-4.945853643649817,-11.69787758834362,1.0513125658035278,-0.994164228439331,0.2761471271514892
2.1425317382812494,0.3442188764218241,-5.349998507919907,-9.624565586143731,0.8186495304107666,-0.8818017244338989,0.5057680606842041
2.152496337890625,-0.0832496898883953,-5.572130270004272,-7.404125332656502,0.4923069775104522,-0.5950457453727722,0.7375710010528564
2.162462402343749,-0.4353633381480351,-5.643099410718679,-5.422283407407999,0.1614297330379486,-0.2245819270610809,0.9886977672576904
2.172427490234373,-0.4687494383886456,-5.276013818776607,-3.701742640593648,-0.1428651660680771,0.1544587612152099,1.1452479362487793
2.1823925781250004,-0.3172800160918385,-4.541729822167754,-2.1738497672259807,-0.424799382686615,0.3931626975536346,1.1514805555343628
2.192357421874995,-0.0086636373184621,-3.647837447404861,-1.0131091212958097,-0.665421187877655,0.4381630718708038,1.039143443107605
2.2023232421875036,0.3541567349271848,-2.714868615272641,0.4069558300375938,-0.8808677196502686,0.3830028772354126,0.8560823202133179
2.2122885742187535,0.7286936292558908,-1.658223719111085,1.7943208732962608,-1.1107548475265503,0.3177785575389862,0.6762616634368896
2.222253417968748,1.070548187699169,-0.6841226661235094,2.8542303242117164,-1.3123939037322998,0.3234302997589111,0.5676484107971191
2.2322185058593753,1.3032964747354387,0.0762035342365503,3.652434712067246,-1.4268536567687988,0.4046866297721863,0.5712192058563232
2.242184570312503,1.4015882144004106,0.7137117487013339,4.228952158996463,-1.454286813735962,0.5132269859313965,0.6341787576675415
2.2521496582031233,1.3960592218458652,1.1861609183907509,4.444953455501794,-1.3934874534606934,0.5875905752182007,0.7044872045516968
2.262114257812499,1.219328005585819,1.4523635851308705,4.794909048944711,-1.2670835256576538,0.6400686502456665,0.7606918811798096
2.2720793457031228,0.9457906120434404,1.7741683121055365,5.230145801571012,-1.0917339324951172,0.6577357649803162,0.7811352610588074
2.2820454101562504,0.5057101091803983,2.168058616603911,5.621816968715191,-0.9066155552864076,0.5913034677505493,0.7024756073951721
2.2920104980468743,-0.0070547773497179,2.522778063447773,5.786121980252862,-0.6980829834938049,0.43247851729393,0.5310847163200378
2.3019753417968722,-0.4509722280271351,2.672842660447955,6.013455402633547,-0.4624901711940765,0.2567223906517029,0.3468693196773529
2.311940673828122,-0.6287609905160964,2.730148017469048,6.41459465534687,-0.2165756225585937,0.1149364933371543,0.1790233999490738
2.3219064941406238,-0.4154041441049426,2.6196590595319864,6.580783580935001,0.0061961999163031,-0.0077553410083055,0.0428288131952285
2.3318715820312477,-0.1369874175557866,2.545575586189329,7.0007187195330856,0.1903079897165298,-0.0259597450494766,-0.0455251149833202
2.341836425781249,0.1483823795342818,2.486719200333953,7.444702842238545,0.3361922204494476,0.0088773313909769,-0.0787254124879837
2.3518024902343733,0.5142987815665081,2.4368548069685696,7.551548767498135,0.4393360614776611,0.0334198921918869,-0.089159570634365
2.361767578124997,0.8476676530741155,2.39361392339617,7.82813926500082,0.5056399703025818,0.0911295264959335,-0.0623015947639942
2.3717321777343727,1.0735250115528705,2.383554009413719,8.089847250670195,0.5224695801734924,0.1386030316352844,-0.0208417680114507
2.3816975097656226,1.1540836722590029,2.344933186857402,8.163665351074934,0.5035123825073242,0.1694642752408981,0.0108120311051607
2.3916633300781243,0.9862111774981022,2.384720130583644,8.138313467675447,0.455000102519989,0.165171816945076,-0.0100212888792157
2.401628417968748,0.6479241022780537,2.568725575630366,7.834123015585542,0.388953685760498,0.1324253231287002,-0.099279798567295
2.411593261718753,0.2721565336432308,2.7172099177017808,7.382203423705697,0.3543919920921325,0.1016407832503318,-0.2150111943483352
2.4215585937499995,-0.1549933586392551,2.9766400215670465,6.714295394802093,0.3808358609676361,0.0925578102469444,-0.3468083441257477
2.431524414062501,-0.382763126610592,3.3186499167025088,5.635239344868063,0.5226855278015137,0.1048235893249511,-0.4663982391357422
2.441489501953125,-0.4334560797546058,3.3219922128677366,4.750772385576367,0.8215380311012268,0.1268684417009353,-0.5941460728645325
2.451454589843749,-0.1774144675501622,3.208124133886397,3.955685252958536,1.224218249320984,0.0943135246634483,-0.6821550726890564
2.4614194335937505,0.2120570341252721,2.621106627991795,3.3680566294282674,1.6098991632461548,-0.0418155528604984,-0.7042100429534912
2.4713854980468746,0.7032946187790483,1.9709435146152967,3.105232791471481,1.840053677558899,-0.2968420386314392,-0.7054343223571777
2.4813505859374985,1.169688726213202,1.109264725714922,2.6085516823232173,1.8796762228012085,-0.6626796722412109,-0.7191368341445923
2.4913154296875035,1.3893375123754144,-0.1478051276355981,2.053228999114036,1.7495312690734863,-1.0141578912734983,-0.7100001573562622
2.501280517578124,1.1114658890210092,-1.4784639488101006,1.3985387637019158,1.4606754779815674,-1.2304863929748535,-0.6903931498527527
2.511246337890622,-0.1539098011862486,-2.305895015671849,0.5251765512704849,1.009587049484253,-1.1725448369979858,-0.7637687921524048
2.5212114257812495,-1.839727410469949,-2.5427970613867044,-0.3869751182824373,0.4553725123405456,-0.7826838493347168,-0.9432602524757384
2.5311765136718734,-3.481502099083364,-2.6766484824717045,-2.0390549278110264,-0.0651682615280151,-0.1003269031643867,-1.1416006088256836
2.541141601562501,-4.245555211012065,-2.691947758412361,-3.92309581952095,-0.4217729866504669,0.755256175994873,-1.2549455165863037
2.5511064453124987,-3.705754214322567,-2.937709402409196,-6.865082753118872,-0.4915355741977691,1.5341956615447998,-1.2083712816238403
2.561072509765623,-2.1069703800432382,-3.569532556974888,-9.62363853442669,-0.2451611906290054,2.1121628284454346,-1.015202283859253
2.5710373535156243,0.1664881642630323,-4.288938133403659,-11.735189958649872,0.1693343967199325,2.2813048362731934,-0.7809556722640991
2.5810021972656223,2.4376439115196464,-4.595791667222977,-13.33009417501688,0.5643029808998108,1.982149124145508,-0.6069490909576416
2.590967529296872,4.350550539968908,-5.095700506246089,-14.05149589369893,0.9040186405181884,1.2980966567993164,-0.4215597808361053
2.600933349609374,5.159609207054972,-5.60807369004488,-14.06178932417631,1.0942516326904297,0.4538381397724151,-0.2121407836675644
2.610898437499994,4.908595049357414,-6.066672613558173,-13.068510107988118,1.0055302381515503,-0.3426958620548248,0.0117837768048048
2.6208632812499957,3.509239708575606,-6.181673203700781,-11.526658267372843,0.5729820132255554,-0.9745606184005736,0.1545550376176834
2.630828613281249,1.6735934299394488,-5.710456206154823,-10.253626874780654,0.0029587317258119,-1.2997511625289917,0.1912773251533508
2.640794433593747,-0.0550611582908779,-5.173051456952095,-8.667905497300625,-0.5395562052726746,-1.11846661567688,0.2566651105880737
2.6507595214843747,-1.2251961669668554,-4.712997658455372,-6.6905176288515325,-1.043662667274475,-0.4902722239494324,0.4115818440914154
2.660724609374995,-1.312482236231863,-4.351358056959509,-5.2434851756155485,-1.4555716514587402,0.2153530716896057,0.6594781875610352
2.670689453125,-0.6512413370672613,-3.961260422742367,-4.53151764023304,-1.7311434745788574,0.7298470139503479,0.9326913356781006
2.680655273437498,-0.1541155894240364,-3.224381148943305,-3.4074528202712533,-1.8674997091293333,1.0710725784301758,1.162644386291504
2.690620361328122,0.1189663154358044,-2.365066166564822,-2.3115648780018088,-1.9370522499084477,1.1415133476257324,1.2942370176315308
2.700585449218753,0.044748950047791,-1.5153700764030218,-1.30188573115468,-1.925421476364136,0.987777590751648,1.2929980754852295
2.7105505371093734,-0.2679395735353231,-0.7246253569036721,-0.0912502967208623,-1.8477972745895384,0.7058627009391785,1.178641438484192
2.720516357421875,-0.6900853739202022,-0.0314776728034019,1.061904424124956,-1.745991826057434,0.3720878958702087,1.0036261081695557
2.730481445312499,-1.0453582168631257,0.5133341377854347,2.341405304992199,-1.6246691942214966,0.0749709084630012,0.802521824836731
2.740446533203123,-1.1961158376287668,0.990758173277974,3.562175179949403,-1.5252236127853394,-0.1323077082633972,0.6302515268325806
2.7504113769531244,-1.267018854304403,1.4170812593474984,4.800437456977367,-1.457050919532776,-0.2024851739406585,0.5285918116569519
2.7603776855468745,-1.243412207137048,1.7989044016942382,5.877619529733061,-1.409896969795227,-0.1462005972862243,0.4840968251228332
2.7703425292968724,-0.980166928897798,2.0754311863109467,6.600677198928595,-1.3519737720489502,-0.0419099405407905,0.4775679111480713
2.780307373046874,-0.706687110761553,2.305881279407441,6.870982917073369,-1.262075662612915,0.0285631585866212,0.495029479265213
2.7902722167968754,-0.5125966538237408,2.5273046009615063,6.901447613441944,-1.1014114618301392,0.0619361735880374,0.5114123821258545
2.8002385253906255,-0.4106043060751632,2.792220150500536,6.801571527194977,-0.8508399128913879,0.0635809451341629,0.4861104786396026
2.8102033691406234,-0.2964116530482657,3.0688384127929806,6.543245000657439,-0.5088707208633423,0.0408647470176219,0.4378549754619598
2.8201684570312473,-0.1478814625411294,3.175237471067905,6.349566595119238,-0.0886284634470939,0.0093912407755851,0.3946513235569
2.830133300781249,0.0356293308564461,3.297382964529097,6.434620959809422,0.3542649745941162,-0.0589842088520526,0.3366882801055908
2.840099365234373,0.2910631498934701,3.433761566004157,6.550359216576815,0.7508000731468201,-0.1776946038007736,0.2653911709785461
2.8500644531250003,0.514039874901995,3.3732048059716817,6.777907158491015,1.0849823951721191,-0.3073822557926178,0.2027648836374282
2.8600295410156242,0.6229077344432473,3.226732680505514,7.273924250772595,1.347883224487305,-0.3905439972877502,0.1661871671676635
2.869994628906248,0.6313228038281202,3.1504610494688152,7.752667552170157,1.495250940322876,-0.4637953639030456,0.1534946262836456
2.8799604492187534,0.4926520362952724,3.1806752782076595,8.181005777454375,1.514230489730835,-0.4535608291625976,0.1559119820594787
2.889925292968748,0.1531899807454086,3.2516002875193952,8.527211078453064,1.4173660278320312,-0.3602692484855652,0.1684677898883819
2.8998903808593752,-0.3440605805875733,3.5721190663367506,8.534534553208946,1.205844759941101,-0.1944419294595718,0.1510033160448074
2.9098554687499956,-0.9562847527246922,3.934069341216981,8.163721465176343,0.9514978528022766,0.0136509146541357,0.1166931018233299
2.919820556640623,-1.4893227580852806,4.097165269225836,7.606970794990659,0.7138717174530029,0.2290910482406616,0.0673314034938812
2.9297863769531247,-1.7151095355458557,4.085542343710363,6.828511556568741,0.5362857580184937,0.3991078436374664,0.0057505802251398
2.9397514648437486,-1.5774670516148208,3.865294203415513,5.84332329237759,0.4333868026733398,0.4453690946102142,-0.0953368917107582
2.9497165527343725,-1.3101353808447718,3.5429362264722584,4.981656778436899,0.3741351962089538,0.3628453910350799,-0.2253997921943664
2.959681396484374,-0.9631249009430408,3.1501766795694826,4.224007103809714,0.3605054020881653,0.1846183985471725,-0.3767603039741516
2.969647705078124,-0.5277626222409307,2.590375974163413,3.520809150338173,0.3787118196487427,-0.0531926043331623,-0.525128960609436
2.979613769531248,-0.0433679440181702,1.90827400021255,2.7620366091609,0.4223482608795166,-0.3272161483764648,-0.6505555510520935
2.989578613281246,0.2089296410860493,1.31158411834836,2.0515894152134657,0.4174849390983581,-0.6070217490196228,-0.7624787092208862
2.999543945312503,0.2596936501722782,1.062495960277319,1.1210071859568356,0.3237510025501251,-0.8963070511817932,-0.8686405420303345
3.009509765624994,0.022190971683152,0.793006234690547,-0.1178267534792423,0.1444149017333984,-1.1045609712600708,-0.9303762316703796
3.0194746093749956,-0.5435301732804626,0.4338222096532583,-1.3356430393278598,-0.0371434390544891,-1.0942418575286863,-0.9395026564598083
3.029439453124997,-1.1595746708907186,-0.1988192755579948,-2.757361603087187,-0.1422089785337448,-0.8165481090545654,-0.8863994479179382
3.0394047851562505,-1.6035177309334276,-1.0891221013963222,-4.164928891897201,-0.1272145807743072,-0.3655135333538055,-0.7762918472290039
3.0493706054687486,-1.555758200892806,-1.9831407328873871,-5.921709431350231,-0.0808196663856506,0.0348760597407817,-0.6827141642570496
3.0593356933593725,-0.8690370427086949,-2.9022435367524624,-8.118585853898525,-0.0248397532850503,0.2074204087257385,-0.6723901629447937
3.06930078125,0.1620106535227969,-3.712715870028734,-10.407712690120936,0.0749178379774093,0.1402099877595901,-0.741949737071991
3.079265869140624,1.3467491013623774,-4.5717520354658365,-12.073231826937198,0.2651183903217315,-0.0626832097768783,-0.8083308935165405
3.0892307128906253,2.689601487547159,-5.678674581968784,-12.84545421679616,0.4262110590934753,-0.3408735990524292,-0.7760335803031921
3.099196777343753,4.029636916615068,-6.840713451015949,-13.183388533055782,0.4478383064270019,-0.7218017578125,-0.6202381253242493
3.1091618652343733,4.643549443697929,-7.41615946932137,-12.949598481881615,0.2383805513381958,-1.1379157304763794,-0.3618254661560058
3.119126708984375,4.431402776794135,-7.514428120371699,-12.285831790566444,-0.1996902823448181,-1.4826326370239258,-0.0044340635649859
3.129091552734373,3.783887547577917,-7.78776283094883,-11.591529675734042,-0.744771420955658,-1.6842831373214722,0.4188800454139709
3.139057617187504,2.648360545620322,-7.725496052128076,-11.116929465490578,-1.2594202756881714,-1.7103302478790283,0.8554501533508301
3.1490227050781243,1.0335850692220032,-7.068847668385505,-10.42840827214718,-1.6696152687072754,-1.4040477275848389,1.2492550611495972
3.1589875488281223,-1.1386309593223034,-5.809920204469561,-9.214892898362876,-1.93637216091156,-0.7263091802597046,1.502026081085205
3.1689526367187533,-3.0698437904432416,-4.389680773352087,-7.712543631574511,-2.0612688064575195,0.0747459903359413,1.5690619945526123
3.178918701171874,-3.778606684565544,-3.1991388633981344,-6.134806238585711,-2.1688075065612797,0.6725281476974487,1.435486078262329
3.1888837890625013,-3.066457362875342,-2.239094392813742,-5.142518956044316,-2.2647154331207275,0.8722673058509827,1.220949649810791
3.198848632812499,-2.0064879984661936,-1.786791354574263,-4.131982315585017,-2.2601144313812256,0.7269351482391357,1.07190203666687
3.208813964843749,-1.114635239772126,-1.5850000774681567,-3.24035496314466,-2.077803373336792,0.3426128029823303,1.0001558065414429
3.2187785644531246,-0.9495950458277016,-1.2274302096292375,-2.199931718465686,-1.733659744262695,-0.0766694098711013,0.9358673691749572
3.2287446289062487,-1.2958031963706016,-0.7431216753199696,-0.6470084487378597,-1.2956666946411133,-0.4327211678028106,0.8284784555435181
3.2387094726562466,-1.4990747751623392,-0.2003659204781055,1.003673184430599,-0.8957749605178833,-0.7020077705383301,0.6413474678993225
3.2486748046875036,-1.5327702701456845,0.3976008494541049,2.8116707009017468,-0.605485200881958,-0.8750004768371582,0.4267737567424774
3.2586396484375015,-1.2875716668590902,0.8427931789055466,4.458234961879253,-0.4234536290168762,-0.9407064914703368,0.2249125242233276
3.268605712890622,-0.7474655497431755,1.0827090194836255,5.856684293732047,-0.3364004790782928,-0.8617734313011169,0.0859020948410034
3.2785708007812495,-0.0778334735259413,1.1933654429420828,6.986493794825673,-0.2925211489200592,-0.7017049193382263,0.0055300295352935
3.2885358886718734,0.6898448431625962,1.132407700893283,7.660261655673384,-0.2578350603580475,-0.531744658946991,-0.0228495355695486
3.298500732421875,1.314524701844901,1.0390738758966327,7.898012427172064,-0.1719297468662262,-0.390076220035553,-0.0288272649049758
3.3084667968749955,1.695708961766213,1.021959951749444,8.072373553299903,-0.0117978602647781,-0.2775907814502716,-0.02020163834095
3.318431884765623,1.8311052742056548,0.970263959042728,8.130860229060053,0.1944058984518051,-0.1997085064649582,-0.0222653206437826
3.328396484374995,1.8674644354403016,1.0427981571167706,8.324232929649948,0.4067979156970978,-0.0986269935965538,-0.0656073540449142
3.3383615722656224,1.988001763052493,0.9993190808743238,8.447728960937262,0.6138501763343811,-0.0235514175146818,-0.1333645582199096
3.3483266601562462,1.8733185682959852,1.064504377490282,8.471164197060466,0.7764511704444885,0.0161523446440696,-0.2343984544277191
3.358292724609374,1.7124031991966069,1.3043988830193876,8.584598853060603,0.8711875677108765,0.0657529160380363,-0.3757409453392029
3.3682575683593754,1.704989415808767,1.3804688540041443,8.690392638918757,0.9134643077850342,0.0738285854458808,-0.5092980861663818
3.3782226562499993,1.7044171688787637,1.4409955111593007,8.582156136083603,0.8764388561248779,0.060953538864851,-0.63234943151474
3.388187744140623,1.6365853032767772,1.599183208860457,8.53581640971303,0.789986789226532,0.046851746737957,-0.736129641532898
3.3981538085937473,1.6504413946717975,1.6734852933898567,8.207104679828882,0.6789742708206177,0.0344017371535301,-0.8074812889099121
3.4081186523437488,1.7397152767531572,1.6906138305842875,7.62567491093874,0.5689322352409363,0.0268825981765985,-0.8180970549583435
3.418083984374995,1.628418655695021,1.8271955534160136,7.042826507422328,0.4750962853431701,0.083108052611351,-0.7863183617591858
3.428048583984374,1.4721639718830584,1.8956930433198809,6.451845650854707,0.4351855814456939,0.199795201420784,-0.7345470190048218
3.4380146484374983,1.3565788598507642,1.937431705635786,5.459155048209428,0.4568706154823303,0.3311010301113128,-0.7007714509963989
3.4479794921875033,1.1260903344400226,1.7728078374072909,4.3116766194343565,0.5812944769859314,0.427597314119339,-0.6664645671844482
3.457944824218753,0.9385596378766,1.5898270592331885,3.4293495947808026,0.7346541881561279,0.4364547431468963,-0.6753677725791931
3.4679096679687476,0.7577848453141749,1.4598273451402783,2.5126918459802865,0.8411796689033508,0.271776020526886,-0.7465947866439819
3.477874755859375,0.5645869167692958,1.1839601934760808,1.638200921779871,0.8676712512969971,-0.0048539713025093,-0.8788484334945679
3.487840820312499,0.3068907970897853,0.9727727269932628,0.9600888942480088,0.8100926280021667,-0.2793813645839691,-1.0687941312789917
3.497805908203123,-0.0927703458949923,0.8292287639334798,0.2267050613492727,0.643746018409729,-0.4978412687778473,-1.2270969152450562
3.5077707519531245,-0.5988459639195353,0.8230570895612239,-0.74279463532269,0.3740246295928955,-0.5588778853416443,-1.3018187284469604
3.5177355957031224,-0.9131980368006974,0.5250955949887633,-1.80976452614367,0.1289184689521789,-0.2963522672653198,-1.2698184251785278
3.5277019042968725,-1.1307654866442085,-0.0334442967012524,-3.2206413778930902,-0.0031318180263042,0.2178227305412292,-1.0960527658462524
3.537666503906248,-1.2891267873466017,-0.4172255873784423,-5.000485397547483,-0.0374016426503658,0.7925030589103699,-0.8560305833816528
3.5476315917968755,-1.5839875394247471,-0.4650201887324452,-6.653716130676865,0.051352709531784,1.2597907781600952,-0.5920851230621338
3.557596679687503,-1.8677238170288504,-0.6096700672075152,-8.323985092368721,0.2171137183904647,1.4393701553344729,-0.4192435145378113
3.5675617675781233,-1.7350445084631445,-0.8613014800205826,-9.919826297324896,0.3746518194675445,1.283906102180481,-0.4297969043254852
3.577527587890625,-1.1318855767153202,-1.2691662415966392,-11.175181747972964,0.5340372323989868,0.849276602268219,-0.561575174331665
3.587492675781249,-0.3473513292286544,-1.844045273669064,-12.199027951860428,0.6693446040153503,0.2376004308462143,-0.709938108921051
3.5974577636718728,0.4626906863389536,-2.6627900529891253,-12.689205670464036,0.7427002787590027,-0.3852897882461548,-0.7547966241836548
3.6074228515625038,0.9405629405230284,-3.226288736130297,-12.711106536626817,0.7554596662521362,-0.9021090269088744,-0.6577991247177124
3.617388671874995,0.7235881228104233,-3.354288508577645,-11.961691021859645,0.6753832101821899,-1.1346327066421509,-0.4303974211215973
3.627354003906248,0.5574778519490733,-3.763400932127237,-10.59383030501604,0.4582054018974304,-1.0940791368484497,-0.1111218333244323
3.6373186035156237,0.6954426631696522,-4.28735115647316,-9.360584979367257,0.1035154983401298,-0.930575668811798,0.2360270768404007
3.6472836914062476,0.8989838526830076,-4.841479369200766,-8.420159986010193,-0.2824825346469879,-0.7464000582695007,0.6032025814056396
3.657248535156249,0.7866550390329211,-5.056971254879236,-7.514025384789705,-0.5713865160942078,-0.5640441179275513,0.9108224511146544
3.6672148437499956,0.3468967173289507,-4.730753387637436,-6.600695903629064,-0.7402011156082153,-0.3941097557544708,1.0649287700653076
3.677179687499997,-0.2130909620165824,-4.048464366681873,-5.315832034423947,-0.8504447937011719,-0.1739153265953064,1.0230633020401
3.6871447753906246,-0.5593263658925891,-3.1744629795640704,-3.7216929572105406,-0.9195443391799928,0.0469001494348049,0.8365767002105713
3.6971096191406225,-0.3956429203193634,-2.3366408670693635,-2.1085750387609004,-0.9938800930976868,0.2309591919183731,0.584200918674469
3.7070749511718724,0.0730740040391683,-1.4573033796206116,-0.6040431672364474,-1.0929033756256104,0.2910758554935455,0.3472062349319458
3.717040771484374,0.6657158526215702,-0.6612947482436895,0.7622937010407448,-1.1872546672821045,0.2495353519916534,0.1910041272640228
3.727005615234372,1.0344804106265306,0.0817161601781845,2.065639567875862,-1.2569117546081543,0.2148192524909973,0.1416259557008743
3.7369707031249995,1.2568509499028324,0.6291437062233686,3.1936125011920926,-1.2640208005905151,0.2152048647403717,0.2223599553108215
3.7469357910156234,1.431249631562084,0.8491770347237586,4.01867742344439,-1.1894924640655518,0.2777183055877685,0.3759228587150574
3.756901611328125,1.3809452393442392,1.0837357321828602,4.742797753435373,-1.0707799196243286,0.3736418783664703,0.5361002683639526
3.766866455078123,1.011622828260809,1.441483879198134,5.284828408873081,-0.9164630770683287,0.4835157096385956,0.642245352268219
3.776831787109373,0.5770832275858149,1.8559020079404116,5.849427454471588,-0.7389754056930542,0.5811505913734436,0.6874362826347351
3.7867968750000003,0.1483785070767626,2.1174840291425583,6.156259360980987,-0.5455664396286011,0.6000054478645325,0.6568158864974976
3.7967617187499947,-0.2293971499774605,2.3474524762019517,6.33736586971581,-0.3405084013938904,0.5160913467407227,0.5497347116470337
3.8067277832031223,-0.444560607419163,2.503642570345104,6.4666124273538585,-0.1246592104434967,0.3607662618160248,0.3693643510341644
3.8166928710937533,-0.2442088615968823,2.489544779148697,6.720284990605712,0.0892195180058479,0.2014775276184082,0.1891301274299621
3.8266574707031253,0.146536276743561,2.294549738053977,6.854222336408496,0.2846888899803161,0.0208537019789218,0.0785853564739227
3.8366225585937492,0.577768104577437,2.146777051383257,6.969468425744772,0.4537793695926666,-0.1245133504271507,0.047392014414072
3.8465886230468733,1.046945047663152,1.999155755881965,7.219451486828923,0.5887888669967651,-0.1893792301416397,0.0759181007742881
3.8565537109375008,1.373184396084398,1.849401832266152,7.343526194787025,0.6776196360588074,-0.2229217439889907,0.1423898041248321
3.8665185546874987,1.3009873210102318,1.8333289416044949,7.252939914932846,0.7064868807792664,-0.2283867746591568,0.2281271368265152
3.8764838867187486,0.8952576717667281,1.9459782924458384,7.329073891064525,0.6934579014778137,-0.1172424107789993,0.2938861548900604
3.88644873046875,0.4166923938171938,2.0369711072742938,7.252387541747093,0.6583757996559143,0.0226251240819692,0.3181995451450348
3.896414794921874,0.0050792029604315,2.1193428087517616,6.795413004565239,0.6141899824142456,0.1343814879655838,0.2928617000579834
3.906379638671872,-0.4516230200860649,2.2402941239923235,6.380548593360185,0.5925197601318359,0.2002972513437271,0.1967344135046005
3.9163449707031255,-0.8476827045127749,2.3932322306022047,5.89355067383647,0.5902334451675415,0.2220315784215927,0.0425506979227066
3.926309570312501,-1.0473238178476691,2.4512863601639867,5.424623833054304,0.6171485185623169,0.2222617864608764,-0.1442327797412872
3.936275634765625,-1.0040624760091303,2.369456218217313,4.932753923580051,0.6713622212409973,0.2147058695554733,-0.3166008293628692
3.946240722656249,-0.7912034230522811,2.2455472222149373,4.3421828168571,0.7618029713630676,0.2068738490343094,-0.4402682781219482
3.956205810546873,-0.3148409889092669,1.8768667622968556,3.4741491059720517,0.8985288739204407,0.1650206744670868,-0.4748300015926361
3.9661706542968744,0.0741532506432384,1.424493581430614,2.599960964110493,1.0666393041610718,0.0916413515806198,-0.4806881844997406
3.9761357421874983,0.3784009493457153,1.0528571943163871,1.882923285856843,1.1954702138900757,0.0018054716056212,-0.4928465783596039
3.986100830078122,0.5385759484065696,0.7406351192012429,1.1641004777520894,1.2497419118881226,-0.169348269701004,-0.5097145438194275
3.996065917968753,0.6990244671791791,0.3310819661468267,0.4437134890705347,1.1786155700683594,-0.3524744510650635,-0.4979177713394165
4.006030761718748,0.2595860981445759,0.0606792173683643,-0.1011450832694768,0.9235248565673828,-0.4865604639053345,-0.5007954239845276
4.015995849609375,-0.6456817301787435,0.1437131821468472,-1.0141723666131497,0.5512154698371887,-0.4676451086997986,-0.5542474389076233
4.025960693359373,-1.5388129113107918,-0.4530214156419038,-1.981273769971728,0.1479286253452301,-0.1893263906240463,-0.6410410404205322
4.035927001953123,-2.1533836100414394,-1.1660884366989137,-3.474054997947812,-0.1892507374286651,0.2448879182338714,-0.7634025812149048
4.0458918457031245,-2.1093521606132386,-1.7911346444755791,-5.094273688313365,-0.3430147171020508,0.7915096282958984,-0.824857234954834
4.055856933593748,-1.584451211413741,-2.4125690914958717,-6.933918388935923,-0.3015197217464447,1.185527801513672,-0.7680062055587769
4.0658217773437535,-0.2042619780685752,-2.7153637053132056,-8.896263002032041,-0.0983475670218467,1.2439311742782593,-0.6727258563041687
4.075787841796874,1.571956471499801,-3.2051462871193883,-10.707885723263024,0.203346237540245,0.916966676712036,-0.5848618149757385
4.0857529296875015,3.1931223795875905,-3.8607960152134297,-11.732330477565526,0.441952109336853,0.2770028114318847,-0.4499787986278534
4.095718017578125,4.504186273454129,-4.716975329914689,-11.61581539120674,0.5247069001197815,-0.4608685672283172,-0.2328027784824371
4.105682617187501,4.875049338108301,-5.480096713951229,-11.018147604221104,0.4280139505863189,-1.1699048280715942,0.0403251759707927
4.115647949218747,4.226855478978157,-5.740197848945856,-10.17011740144491,0.1484060287475586,-1.7116050720214844,0.3512801229953766
4.125613769531249,2.990396451979876,-6.0564142543941735,-9.342717898765208,-0.281429648399353,-2.009917020797729,0.6767652034759521
4.13557861328125,1.1803051780998706,-5.929029398974776,-8.389932021006942,-0.8070015907287598,-1.9635772705078125,0.96189683675766
4.145543945312504,-1.2901320188663898,-5.314070869970322,-7.634862426000833,-1.3333935737609863,-1.558178186416626,1.17426860332489
4.155509033203124,-3.3886344302937386,-4.520193405403196,-6.659867639043926,-1.7100423574447632,-0.7488726377487183,1.2696456909179688
4.165473876953122,-4.1577354732617735,-3.631715749165416,-5.76989974424839,-1.8931907415390012,0.1534077525138855,1.2560343742370603
4.175439941406246,-3.476059323507547,-2.7460537348702547,-5.453234425988793,-1.934605836868286,0.767928957939148,1.193435788154602
4.185405029296874,-1.9261545248180627,-1.915230687482655,-4.76488508208096,-1.906318545341492,1.0350801944732666,1.0973012447357178
4.195369873046875,-0.5227268200308084,-1.1681637816682455,-3.446618709489703,-1.775998592376709,1.029315710067749,1.0125019550323486
4.205334716796873,0.3979642028737813,-0.5394339169427752,-2.269329664340616,-1.560420036315918,0.7569127678871155,0.9220662117004396
4.215299804687504,0.8351105154484509,-8.91395881772e-05,-1.0636194113492965,-1.2689698934555054,0.3461872935295105,0.8083311319351196
4.225265869140625,0.9063138302449136,0.396710914877057,0.5986831015080213,-0.9407094120979308,-0.0090698283165693,0.7085964679718018
4.235230712890623,0.5989114303711801,0.7058738946825266,2.228585566020012,-0.6239967346191406,-0.2700148820877075,0.6286388039588928
4.2451958007812465,-0.0661486617553979,1.0842913202390074,3.709059101086855,-0.3370537757873535,-0.3427825272083282,0.5598813891410828
4.255160888671874,-0.715453989258781,1.534365284252167,5.264982721674442,-0.107489563524723,-0.2042834907770156,0.496954083442688
4.2651269531249945,-1.0342178141675888,1.7917565757662055,6.3991387275397775,0.0711193233728408,0.0392552614212036,0.4630800485610962
4.2750917968749995,-1.0330175715323535,1.841650195226073,7.287985509350896,0.2065088450908661,0.3615699410438537,0.4544149339199066
4.285057128906249,-0.8480512455642223,1.9153940613508225,8.061690831243991,0.3162004351615906,0.7796626091003418,0.4395218193531036
4.295021972656247,-0.38326566930525,2.002861624662578,8.444102587133646,0.4456726610660553,1.1101783514022827,0.4260211884975433
4.304986816406249,0.4511958807151764,1.937912767150998,8.581011642223595,0.5914894342422485,1.2447067499160769,0.4546082019805908
4.3149526367187505,1.1147186072066426,1.6950345696359872,8.273871692678332,0.7203137278556824,1.0637619495391846,0.4956424534320831
4.32491796875,1.357713124577701,1.5689724872529505,8.198447910642624,0.8499869108200073,0.771716296672821,0.4585866332054138
4.334882812499995,1.3605278897374868,1.540640126737952,8.636278186893463,0.9719833731651306,0.4764870405197143,0.3739503026008606
4.344847900390622,1.3251545246697962,1.3896537387177348,8.69489988721013,1.0538371801376345,0.1683997958898544,0.281619668006897
4.354812744140624,1.025988841939345,1.4557801155760883,8.779275621986388,1.0642578601837158,-0.0729225501418113,0.149806261062622
4.364778808593748,0.4712390632472932,1.6592831650361417,8.946478108531236,0.995658040046692,-0.1517683416604995,-0.0088716996833682
4.374743896484375,0.023621625540778,1.7700445101737976,9.105066495987773,0.8476603627204895,-0.0970134884119033,-0.1419916749000549
4.384708984374996,-0.1558520212952047,1.8540408902436492,8.946032118329406,0.6359104514122009,0.0703101754188537,-0.2358991205692291
4.394674072265623,-0.063230911145173,2.044874720005691,8.768573610708117,0.386950671672821,0.3285640776157379,-0.3143569231033325
4.4046389160156245,0.054393013238348,2.153455506233871,8.003596369671822,0.1577257364988327,0.5399383902549744,-0.3350816369056701
4.414604736328123,0.0818980195511132,2.1092969232946635,6.89619509974122,0.0262683760374784,0.6838817000389099,-0.2939973175525665
4.42456982421875,0.1252532136855647,2.2164804099455475,5.737754547446966,0.0100353397428989,0.7910153269767761,-0.2332207709550857
4.434534912109374,0.1094139308503828,2.154298386798799,4.560770622724294,0.1124959290027618,0.8340266942977905,-0.1914208531379699
4.444499999999994,0.0459954064449295,2.067305163000524,3.214237356069684,0.3020586669445038,0.7852607369422913,-0.2129934281110763
4.454465820312503,-0.0290131230205064,1.95117878369838,1.928033762693405,0.569861888885498,0.6137465238571167,-0.3065688908100128
4.4644309082031235,-0.3830280976897105,1.8839327551603315,0.5563116942465305,0.8539252877235413,0.3271293342113495,-0.4429318904876709
4.474395996093747,-0.8328129060305655,1.5240128170639275,-0.3955588222324848,1.0949416160583496,0.0152811491861939,-0.6208680272102356
4.484360839843749,-1.0348740130539984,0.909313523517549,-1.111205922910571,1.2092151641845703,-0.3042259812355041,-0.8466413021087646
4.49432568359375,-1.1077733181133866,0.2995455488935112,-1.906733785033226,1.2119457721710205,-0.5880336761474609,-1.0759601593017578
4.504291992187504,-1.119749221784994,-0.2161009574875235,-2.631532744938135,1.0833197832107544,-0.7508035898208618,-1.2399604320526123
4.514256835937498,-0.9263428381212055,-0.8174372038528323,-3.2145980060756205,0.8277923464775085,-0.691243588924408,-1.2961163520812988
4.524221679687503,-0.4870529741792008,-1.7587760971844195,-3.687959614434838,0.4763692021369934,-0.3994356691837311,-1.2137469053268433
4.534187011718753,-0.0099914883887395,-2.5207933193713425,-4.665579489198326,0.0921008735895156,0.0209573395550251,-1.047276258468628
4.544151855468748,0.2878339221812784,-2.714488091522455,-6.333936479789018,-0.1790383160114288,0.4027281105518341,-0.8041428327560425
4.554117919921875,0.6109266431398689,-3.0373773988634345,-8.291417286241055,-0.2569669187068939,0.5552888512611389,-0.4895960688591003
4.564082763671873,1.263134852477908,-3.6680607357442376,-10.309762018978596,-0.1926650404930114,0.3764155209064483,-0.2338466495275497
4.574048095703123,1.715914129927009,-4.164821339869499,-11.74420211714506,-0.0985963270068168,-0.0179432146251201,-0.1090898066759109
4.584012939453125,1.614153106716275,-4.571055869895219,-12.171167300510406,-0.1021202206611633,-0.5075965523719788,-0.0553485266864299
4.593979003906249,1.254991147380322,-4.9818777277112005,-12.009476855385303,-0.2986372709274292,-0.9804741144180298,0.0315506868064403
4.603943847656247,0.8760207641161978,-5.454110624301434,-11.56814646205902,-0.6237285733222961,-1.2828065156936646,0.1743337959051132
4.613908935546874,0.2991886252146214,-5.854628530246019,-10.799682547950743,-1.007705807685852,-1.308019518852234,0.3640041351318359
4.623873779296872,-0.5708465616859495,-5.895201948174834,-10.065095184481144,-1.402345061302185,-1.0810706615447998,0.5644615888595581
4.633838867187503,-1.522204890859127,-5.394906740182638,-9.270132555025816,-1.7528804540634155,-0.6700838208198547,0.7534594535827637
4.643804931640624,-2.204928357709199,-4.612746601416171,-8.080538739576935,-2.0205044746398926,-0.1624550223350525,0.8828237056732178
4.653769775390625,-2.200975090038776,-3.704270113244653,-6.802015179309248,-2.230661153793335,0.2479887008666992,0.8970566987991333
4.663734863281249,-1.698323820439726,-2.7924980906590817,-5.385229395776987,-2.3848702907562256,0.5646965503692627,0.8126798868179321
4.673699951171873,-0.8978896277055144,-1.929335200680792,-3.838523685389757,-2.422729015350342,0.7515580058097839,0.6846612095832825
4.683665039062504,0.1707030054790899,-1.3410446061104535,-2.761266209310293,-2.359318733215332,0.7086706161499023,0.5417943000793457
4.693630859374995,1.0564120372537522,-0.7569716292351484,-1.6241116061508654,-2.21875524520874,0.535723865032196,0.3817282021045685
4.703595703125,1.826545857335627,-0.0635083033144474,-0.5769271967738866,-1.9927072525024412,0.2322154492139816,0.274775743484497
4.713560791015624,2.2270640555411574,0.3091299543187022,0.1274018065541982,-1.6714346408843994,-0.0994327887892723,0.2881712019443512
4.723525878906248,2.075413942915201,0.6438584602743387,1.284034432643652,-1.291630506515503,-0.2849349677562713,0.3884882032871246
4.733490966796875,1.6147069412067532,1.0168141132935882,2.435941783776879,-0.8966593146324158,-0.2637039721012115,0.4949981272220611
4.743457031249999,1.1532420338030904,1.2887044702813029,3.662857906404137,-0.513248085975647,-0.0919644013047218,0.5793793797492981
4.753421874999997,0.7670810814477503,1.5437018523961306,4.664870464146137,-0.2119359225034713,0.0992108806967735,0.6399833559989929
4.763386962890625,0.5183265757778659,1.937358640399575,5.368222731396555,0.0314202420413494,0.2599645853042602,0.6812451481819153
4.773351806640623,0.5580995275113732,2.046990396985412,5.93586655151844,0.2561060786247253,0.379977822303772,0.7275218367576599
4.783316650390624,0.6657973203599452,1.913852677127719,6.298138605698942,0.4743386507034302,0.4507677257061004,0.7397828698158264
4.793282958984374,0.7639923216521739,1.97145117187649,6.613846477103233,0.690130352973938,0.4555374383926391,0.7263064980506897
4.803247802734372,0.8473959234606474,2.112509747861325,6.742222097125649,0.8766455054283142,0.3751236796379089,0.7147594094276428
4.813212646484374,0.9341405062600968,2.2016928829193114,6.840770149639249,1.052356243133545,0.2529349029064178,0.7044695019721985
4.8231779785156235,1.0500737010776997,2.2729551613613963,6.9971531360059975,1.2156680822372437,0.1544378399848938,0.6826642751693726
4.833143798828125,1.10340767024979,2.3182789886876938,7.164315875062346,1.3700456619262695,0.084890179336071,0.6555898189544678
4.843108886718749,1.082732254228741,2.323346501210332,7.297942839741706,1.5203295946121216,0.013277624733746,0.628900945186615
4.853073974609373,0.9970448523320256,2.2513284359648824,7.424414671969413,1.622748613357544,-0.0589212030172348,0.5953845381736755
4.8630390625,0.8483713443640619,2.2702432720541954,7.638041056036949,1.64814031124115,-0.1250280141830444,0.5358992218971252
4.873003906249995,0.5214799252422526,2.2277637282431124,7.867801413303614,1.5835211277008057,-0.1712527722120285,0.4527415037155151
4.882969970703122,0.0801346266077831,2.143132265140116,8.034023072117566,1.4387803077697754,-0.1592376083135604,0.3280826210975647
4.892935058593753,-0.2839637296844273,2.020964852108061,8.189061073616147,1.24493145942688,-0.0924678966403007,0.18691486120224
4.902899902343748,-0.650784460145235,1.9519345705017448,8.013437964728475,1.01513409614563,0.0044710841029882,0.039032582193613
4.912864746093753,-0.9958525738075374,2.089045577904582,7.7363459474444385,0.8009359836578369,0.1872720718383789,-0.1050140708684921
4.922829833984373,-1.0743168925829232,2.037399854080379,7.516793095937371,0.630632758140564,0.4334348440170288,-0.1885173916816711
4.932795898437501,-0.8914167784295975,1.8428809060648084,6.888065569299459,0.4890125691890716,0.6362820267677307,-0.2289300560951233
4.942760742187499,-0.4783297156279906,1.6756754969105123,6.185836753121018,0.4109561145305633,0.7556220293045044,-0.2663150131702423
4.952725830078123,-0.0334257837970275,1.4117884136363863,5.298049709495902,0.3938098847866058,0.7066201567649841,-0.2892384529113769
4.96269091796875,0.2164567486552521,1.1769956151604652,4.152965482380986,0.4436584115028381,0.5120626091957092,-0.2937101125717163
4.972656005859374,0.3201148376589641,0.7231494391322135,3.23677418204844,0.5205358862876892,0.243151769042015,-0.3350777924060821
4.982622314453124,0.3262240777868777,0.3517334167703986,2.438978374993801,0.5614163279533386,-0.0464025139808654,-0.4375143945217132
