time,ax,ay,az,gx,gy,gz
0.0,1.8811467777036128,-3.649073418940604,-4.058237280416488,-0.7979998588562012,-0.7268112301826477,1.2326377630233765
0.009966064453127643,1.7152613651067017,-2.958294509798288,-2.253024426227808,-0.7061474323272705,-0.9583081007003784,1.1839872598648071
0.01993188476562935,1.4774305141091346,-2.335871928523481,-0.5665788212388754,-0.6679904460906982,-1.1763747930526731,1.1033145189285278
0.02989794921875344,1.0896163146540525,-1.7320824437871574,0.8989432284116744,-0.7064226269721985,-1.2697434425354004,0.9810063242912292
0.03986401367187753,0.4261406421747058,-1.0235238400653004,2.4835709654361007,-0.8098443746566772,-1.1467101573944092,0.84107905626297
0.049829833984379235,-0.0331632878027856,-0.3656570204436778,3.9852760891020296,-0.9189651012420654,-0.8452717661857605,0.7300386428833008
0.059795898437503325,-0.2325087791919708,0.2055187731966376,5.0787739213645455,-1.0035552978515625,-0.4551740884780884,0.6741775274276733
0.06976196289062742,-0.1104426345773041,0.7501675021782517,5.77704201721847,-1.0517401695251465,-0.098942682147026,0.6736221313476562
0.07972680664062892,0.2608663472134619,1.2325108738943933,6.090155780476332,-1.057369351387024,0.1856259405612945,0.7115940451622009
0.08969287109375301,0.6789325501345098,1.7036039527997373,6.350963602435589,-1.0332329273223877,0.4030275046825409,0.7701836228370667
0.09965893554688066,0.9614123979367316,2.1975658661171797,6.582503828856349,-0.9694494009017944,0.5436141490936279,0.8158534169197083
0.10962500000000475,1.0858736209943889,2.6926766572088003,6.668576430678368,-0.8580368161201477,0.5908856987953186,0.81317538022995
0.11959082031250645,1.0635950075604022,3.110694271747768,6.640911009639501,-0.6888707280158997,0.5420630574226379,0.7359634041786194
0.12955688476563054,0.9722029642812908,3.4233635061085224,6.46398149432838,-0.45842045545578,0.3849663436412811,0.6163265705108643
0.13952294921875819,1.0302961106792092,3.5092560751885173,6.149275493443012,-0.1795845776796341,0.1511613130569458,0.4709902107715606
0.14948876953125279,1.0752083615299313,3.536623974585533,5.872196335640549,0.1272719502449035,-0.0641902238130569,0.3263002336025238
0.15945507812499926,1.1555711343377828,3.4617858834832904,5.8739680214881895,0.4449226260185241,-0.2012990862131118,0.211658090353012
0.1694240722656275,1.2884104557707905,3.305980989265441,6.017507308372855,0.7294228672981262,-0.2807048559188843,0.1332902908325195
0.1793891601562514,1.3961296567335724,3.1739076837688684,6.07271949250698,0.9432259798049928,-0.2822601199150085,0.0986803919076919
0.1893549804687531,1.5185545516580343,2.938800412516296,6.279988616502284,1.098867654800415,-0.2026205360889434,0.1235192567110061
0.19932104492188074,1.5642533497765658,2.738466056220233,6.479995056018233,1.200561285018921,-0.122657261788845,0.1835280060768127
0.20928710937500483,1.5746582778044045,2.4834783187165854,6.473078408497572,1.2594457864761353,-0.0669005885720253,0.2680367827415466
0.21925292968750654,1.4126669500365852,2.2622800380900503,6.373132764145732,1.2727216482162476,-0.0417915098369121,0.3260167241096496
0.22921899414063063,1.0350148097641765,2.252700016579032,6.280018427118659,1.235687494277954,-0.0027245078235864,0.3648025095462799
0.23918505859375827,0.5217541756063699,2.1747093066647647,6.242856863459944,1.1351432800292969,0.0706860572099685,0.3363322615623474
0.2491511230468788,-0.2732508316859602,2.265815811000764,6.019329263103008,1.0069396495819092,0.1580381393432617,0.2071149498224258
0.2591169433593805,-1.131420370356366,2.4626740156188607,5.4814586499542,0.890408456325531,0.3061162829399109,-0.0149175729602575
0.26908300781250816,-1.8416209691315888,2.618733469119668,4.97615292032361,0.8268088102340698,0.4905331432819366,-0.2349494248628616
0.27904931640625463,-2.218614791625738,2.407752631124854,4.337469232338667,0.8381964564323425,0.6656926870346069,-0.441788375377655
0.2890139160156302,-2.089885828121006,2.280817273038626,3.6010406249165534,0.9021340012550354,0.7361842393875122,-0.6328895688056946
0.2989799804687543,-1.5122814627379175,2.134220936670899,2.620934778556228,0.9851125478744508,0.6843138337135315,-0.75099116563797
0.3089462890625043,-0.9029429655723272,1.7791104446828363,1.6206810471802948,1.0851497650146484,0.5239279866218567,-0.763804018497467
0.3189121093750025,-0.4178098900724202,1.2946820833861827,0.6573100625216961,1.1639714241027832,0.3280572891235351,-0.7193167209625244
0.3288781738281301,-0.1329730308152735,0.8021417273044585,-0.1791875233709812,1.2260830402374268,0.1056348383426666,-0.6977284550666809
0.33884399414062827,-0.1143929065730422,0.495334370714426,-1.091869354277849,1.307437300682068,-0.1209282651543617,-0.7214236855506897
0.3488103027343783,-0.416387492586486,0.272758956515789,-1.9656512534260748,1.3803410530090332,-0.3362759947776794,-0.7802149057388306
0.35877612304688,-0.6572753565344959,-0.1963946787595749,-2.871022469058633,1.3526312112808228,-0.6472488045692444,-0.8704039454460144
0.36874218750000054,-0.8706150326151401,-0.7449199569135904,-4.269051529672741,1.2733547687530518,-0.9292866587638856,-1.016104817390442
0.3787080078125058,-1.1704830183960495,-1.448645149129629,-5.432424862194061,1.1943905353546145,-1.0761849880218506,-1.178079605102539
0.3886743164062523,-1.6231991674810646,-2.378752162089944,-6.516096296969056,1.06606125831604,-1.0514683723449707,-1.276291847229004
0.3986391601562538,-2.032028682436049,-3.4277760618537663,-7.561713603159784,0.9033669233322144,-0.7955875396728516,-1.2478641271591189
0.4086049804687555,-1.718041351214051,-5.046430571642518,-8.253971644943952,0.735633134841919,-0.5153875946998596,-1.078266739845276
0.41857128906250907,-0.8013459007516502,-6.832145529156923,-9.299656171151994,0.5193181037902832,-0.3231818974018097,-0.7995069026947021
0.4285371093750001,0.0582899110790342,-8.285546932902932,-10.264548081767558,0.2082083374261856,-0.33119598031044,-0.4319620728492737
0.4385029296875089,0.2461716130372136,-9.261986073449254,-11.148563790160416,-0.2377931028604507,-0.5068101286888123,-0.0709463730454444
0.44846899414062946,-0.4746076263649388,-9.288926687344908,-11.715972047960758,-0.7494223713874817,-0.711104691028595,0.1908722817897796
0.45843505859375355,-1.603239206252992,-8.82218595843017,-11.985368834567067,-1.2148184776306152,-0.8252307176589966,0.3194126486778259
0.46840112304687764,-2.6096292484268546,-8.182084804862738,-12.158319509375096,-1.55471670627594,-0.7813540697097778,0.3584932088851928
0.47836694335937935,-3.135942402511835,-7.466648132064938,-12.183202606219051,-1.67628014087677,-0.618311882019043,0.3764253556728363
0.48833300781250344,-3.033647856946289,-6.827723621061444,-12.017344520020483,-1.544211745262146,-0.4324249625205993,0.4473024904727936
0.49829809570312733,-2.522398416480422,-6.244070915424824,-11.572910315459966,-1.2316278219223022,-0.3385426998138428,0.538554310798645
0.508263916015629,-1.707909248778224,-5.5087990768224,-10.729907000935077,-0.8206847906112671,-0.4018041789531708,0.6108163595199585
0.5182302246093791,-0.8253698234830051,-4.633119235098362,-9.433391272380948,-0.3878720998764038,-0.5380703806877136,0.6322697401046753
0.5281960449218808,-0.079824062821269,-3.745987440511584,-7.448278362637758,-0.0061068795621395,-0.6813468337059021,0.6250951290130615
0.5381621093750049,0.4738208233688026,-2.8918700267761945,-4.965337511798739,0.2667989432811737,-0.7777926921844482,0.6109148859977722
0.5481279296875066,0.888148424283415,-2.0749334659218786,-2.283584399664402,0.3925306797027588,-0.7290699481964111,0.6299007534980774
0.5580939941406307,1.3271657183617354,-1.4582693020433186,0.4520610461771488,0.3820407688617706,-0.5095178484916687,0.7056431770324707
0.5680600585937583,1.518747151620686,-0.8585100957363844,2.9472587365210057,0.2664673030376434,-0.1767941564321518,0.8353766798973083
0.5780258789062529,1.5138402364872394,-0.0170616094380617,4.989560098907352,0.0984162390232086,0.1768443435430526,1.0083849430084229
0.5879919433593805,1.4688712139479816,0.7990133661508559,6.4902212664783,-0.063287079334259,0.4462534189224243,1.1799956560134888
0.5979570312500009,1.4539641521953046,1.6451789440989493,7.3924559376508,-0.1586327850818634,0.5517004728317261,1.310898780822754
0.6079228515625061,1.5121512604869902,2.5139719489187,7.746033228722214,-0.1350143551826477,0.483996719121933,1.3586620092391968
0.6178889160156302,1.5390341528460385,3.3444548045665026,7.684819173824787,0.0774185508489608,0.2498995214700698,1.3090909719467163
0.6278549804687543,1.497219502684474,3.992184553316236,7.256791329663992,0.4960593581199646,0.0424784570932388,1.1688320636749268
0.6378212890625043,1.540305341825634,4.373564043548703,7.2129299761056895,1.0235601663589478,-0.0810053944587707,0.9812701344490052
0.6477871093750025,1.5932112948440014,4.739290622097253,7.3234303322196,1.585577368736267,-0.132048100233078,0.753976047039032
0.6577531738281301,1.8280216289766127,5.150873527413606,7.562764573517441,2.1136863231658936,-0.2666900753974914,0.5047334432601929
0.6677192382812542,2.3452660720735787,5.378525514224172,7.5315370760828255,2.598686933517456,-0.5055073499679565,0.2240328788757324
0.6776853027343783,2.824687418863177,5.595768919745088,7.672388731318712,2.992574691772461,-0.7849235534667969,-0.0110241156071424
0.68765112304688,3.274654123109579,5.661265766528248,8.113336847329139,3.203404188156128,-1.0197983980178833,-0.148465484380722
0.6976169433593782,3.8542636908352375,5.466083970689773,8.671561097198724,3.192878246307373,-1.1095157861709597,-0.1884256899356842
0.707582275390628,4.361622261342406,5.098972075262665,9.303107772910597,2.923560619354248,-1.0578465461730957,-0.1331122368574142
0.7175480957031297,4.364794461637735,4.624792136257887,9.733236973264813,2.4266743659973145,-0.8408799171447754,-0.0251711085438728
0.7275139160156279,3.958514631165564,4.248121554368734,9.937343249315022,1.7559136152267456,-0.4857475161552429,0.0699622258543968
0.7374802246093779,3.1963068548426032,4.0381729820311065,9.772274267667532,1.0214414596557615,-0.0904012843966484,0.0884618759155273
0.7474460449218796,2.368313185662031,3.9834944663822647,8.896515515488385,0.3763504922389984,0.249821126461029,0.0262436773627996
0.7574121093750001,1.6410278157688676,3.9868671576857566,7.432621359300613,-0.064595490694046,0.4746238589286804,-0.0846482217311859
0.767377929687509,0.9837208219870924,3.854451322361826,5.702748700517415,-0.2687129378318786,0.5963934063911438,-0.2472889274358749
0.7773442382812519,0.3423169152580201,4.024535501822829,4.14195425902307,-0.2759008109569549,0.665635883808136,-0.4775742888450622
0.7873100585937536,-0.3146158383838832,4.350281952160596,2.708421338829398,-0.1238423064351081,0.6598865389823914,-0.7441627979278564
0.7972751464843775,-0.6881808554731309,4.568998352843523,1.523495515191555,0.1203258857131004,0.6174551844596863,-1.0120277404785156
0.8072412109375087,-0.7886036158174276,4.67603658580482,0.7593623237639665,0.4118286669254303,0.5745570063591003,-1.2167541980743408
0.8172070312499997,-0.6375251655995845,4.522934520804882,0.3249684517025947,0.7056363224983215,0.5218144655227661,-1.3168845176696775
0.8271730957031274,-0.2719076003834605,3.914707930403948,0.0406266094207763,0.9358299374580384,0.4723361134529114,-1.3336095809936523
0.8371391601562514,0.2081307092607021,3.255416338676214,0.0850841753065586,1.0251384973526,0.4399997293949127,-1.2802048921585083
0.8471049804687532,0.6171121999070048,2.500748310208321,0.2944084782660007,0.9243592619895936,0.3939940929412842,-1.159106731414795
0.8570710449218772,0.8764898429326713,1.488804725560546,0.3521124792158603,0.6907092332839966,0.4046270251274109,-1.0107643604278564
0.867036865234379,1.1355707680340856,0.3294125716298818,0.4168710748523473,0.3971530199050903,0.4868289232254028,-0.859359860420227
0.877003173828129,1.1097535321451724,-0.7489893983095884,0.3035948242843151,0.0330685377120971,0.5403409004211426,-0.7474615573883057
0.8869689941406307,0.4521805809035897,-1.4601508780062198,-0.4341302526891231,-0.3443581461906433,0.4580926597118377,-0.735130250453949
0.8969338378906286,-0.2132256943121552,-2.351800442278385,-1.9437918883174656,-0.6035777926445007,0.3589679598808288,-0.8284304141998291
0.9069001464843787,-0.6261478123430162,-3.817185713806748,-3.3388439789474007,-0.7236022353172302,0.4364618957042694,-1.0256975889205933
0.9168659667968804,-1.0160872603237627,-4.764873976165056,-4.247418959057331,-0.7800971865653992,0.6220985651016235,-1.29860258102417
0.9268320312500009,-1.3353480019040405,-4.793323825579882,-5.302011014342308,-0.7241978049278259,0.8218645453453064,-1.4596686363220217
0.9367978515625062,-0.6555134614285081,-5.767226725646853,-6.42725773756504,-0.5847131609916687,0.8956037759780884,-1.4258949756622314
0.9467641601562526,1.0458389130521566,-6.982160149535536,-7.334533910036087,-0.5186788439750671,0.7226932048797607,-1.224113702774048
0.9567302246093803,2.956523408472538,-7.941204503166675,-8.409798750993609,-0.5128113627433777,0.3911881744861603,-0.8472667932510376
0.9666962890625044,4.087936837631464,-9.04854089116752,-9.09093451026082,-0.6232989430427551,0.0258465781807899,-0.3582580387592315
0.9766621093750025,3.724364222246408,-9.45119756270647,-9.120523592838644,-0.957955241203308,-0.3117786049842834,0.1651053130626678
0.9866281738281302,2.3250144344225525,-9.269889393919708,-8.801475763356684,-1.4223192930221558,-0.2911114692687988,0.4949863255023956
0.9965932617187541,0.6565983340557664,-8.46921364751458,-7.772680412629247,-1.8888771533966064,0.1067823693156242,0.5914452075958252
1.0065590820312558,-1.1005534498624503,-7.5906585426151745,-7.3683081693440675,-2.3820693492889404,0.5533113479614258,0.6539011001586914
1.0165251464843799,-2.613222012221813,-6.617098756897449,-7.643592260423302,-2.778992176055908,1.2614983320236206,0.8299413323402405
1.026491210937504,-3.371628350435197,-5.725611105188727,-6.577323211348056,-3.067710399627685,2.221208095550537,1.154649257659912
1.0364570312500057,-2.8136723961129784,-4.8486342093914745,-5.20944671241343,-3.329450845718384,2.863475799560547,1.3803508281707764
1.0464230957031297,-1.2447929939709603,-3.1910137168705464,-4.84355120703876,-3.501758813858032,3.018869161605835,1.4112423658370972
1.0563891601562538,-0.0552123302645981,-1.4411094929277897,-4.387539961931109,-3.433456897735596,2.6296844482421875,1.3116025924682615
1.066355224609378,0.7481701908811926,-0.1256225219219923,-4.056545674067736,-3.0956501960754395,1.7824469804763794,1.1426970958709717
1.0763210449218796,1.098551754651219,0.7338397599726915,-3.6470839986890553,-2.542661190032959,0.7920522689819336,0.9545037150382996
1.0862861328125035,0.9519112868808208,1.4293155947595837,-2.8291888219356536,-1.9026117324829104,-0.0979930683970451,0.8485870957374573
1.0962521972656276,0.6439207118555903,1.7410189066976307,-1.6764496961534023,-1.298159122467041,-0.6711649894714355,0.8452328443527222
1.1062180175781293,0.1421148618384264,1.8847344269320367,-0.0895937616854906,-0.8164876699447632,-0.907054841518402,0.8717484474182129
1.1161840820312534,-0.0864110673956107,2.104231748859584,1.4102771322906016,-0.4364868700504303,-0.8195646405220032,0.9140143990516664
1.1261501464843775,-0.0864087749738246,2.3028245221853254,2.837407199704647,-0.1576590538024902,-0.5951611399650574,0.9772326350212096
1.1361159667968792,-0.1777811637043952,2.48927940621078,3.769465931254625,0.0264545939862728,-0.3798823654651642,1.0318777561187744
1.1460820312499997,-0.2795986115437932,2.644826234014332,4.452828718921542,0.1596496850252151,-0.1960399001836776,1.068397045135498
1.1560480957031274,-0.4569537135895341,2.646214181241393,5.03721324596405,0.2680837512016296,0.0011538709513843,1.071771264076233
1.1660136718749996,-0.5072741436267272,2.5348250595942137,5.605549140003324,0.3617474436759949,0.1264818608760833,1.0271310806274414
1.1759794921875084,-0.3403762295190244,2.452111120550334,5.9249611266225575,0.4380478262901306,0.1163381561636924,0.923366904258728
1.1859448242187582,-0.1366702778980136,2.486196637764573,6.309393574684858,0.5280194282531738,0.061382807791233,0.7784615159034729
1.1959106445312528,0.0340089448466897,2.4526345599025485,6.805829184639453,0.6124983429908752,0.0297979842871427,0.6657592058181763
1.205876464843758,0.1789144420506432,2.469487495025992,7.040056458187103,0.6668786406517029,0.0085839135572314,0.6022305488586426
1.2158425292968786,0.3912173589620739,2.567819274440408,6.96314974411726,0.701698899269104,0.0125674707815051,0.553020179271698
1.2258085937500027,0.625976182103157,2.7338030328452585,6.917636531698704,0.7187051773071289,0.0335940495133399,0.4991558194160461
1.2357746582031304,0.7967896987520158,2.851338694423437,6.971071184766292,0.6961740255355835,0.0234572608023881,0.4626455008983612
1.2457404785156285,0.6845544816695154,2.866478395888209,6.923044528222084,0.5976845026016235,-0.0006611887365579,0.4016223847866058
1.2557065429687526,0.4968824038740247,2.931687073379755,6.711248282191157,0.4949189126491546,0.0097448471933603,0.3122032880783081
1.26567163085938,0.1507147680046036,2.8003222084134816,6.493380022770166,0.4982139766216278,0.12671460211277,0.1946243941783905
1.2756374511718782,-0.335108189455606,2.7945243357896805,6.160698804733157,0.5185479521751404,0.1772107928991317,0.0245381593704223
1.2856035156250023,-0.7155857989449054,3.054076604729891,5.451657970452309,0.5559041500091553,0.1374064534902572,-0.1929198950529098
1.29556958007813,-0.7550915876422077,3.1059248653888702,4.837755672502517,0.6383542418479919,0.0802515521645546,-0.4128927290439605
1.305535644531254,-0.7550905647289008,3.1564374935299155,4.4125943236887455,0.7321197986602783,0.0329053550958633,-0.5847270488739014
1.3155014648437557,-0.6422538015566766,3.129208125820756,3.987172278112173,0.8120596408843994,0.0407899096608161,-0.6708288788795471
1.3254675292968798,-0.4209387261500582,2.9196365701019764,3.654320379683375,0.8264778852462769,0.0480439066886901,-0.6782955527305603
1.3354338378906299,-0.2325744465730153,2.5914286980867383,3.0898434991598127,0.7484562993049622,0.0185272935777902,-0.6387129426002502
1.345399658203128,-0.293239945943281,2.2151818945676087,2.521907418093085,0.5978344678878784,-0.0078611532226204,-0.6015698313713074
1.3553647460937555,-0.6173549226216971,1.9158377134650943,1.9611831681013103,0.4527584910392761,-0.0331100486218929,-0.6126448512077332
1.3653305664062536,-0.8736212286937981,1.546831967115402,1.243349371033907,0.3870368897914886,-0.0484619438648223,-0.6580366492271423
1.3752963867187553,-1.0654393202528356,1.0409376239418984,0.4616507122993469,0.3690016865730285,-0.0701629742980003,-0.7355706095695496
1.385262695312509,-1.1346076220903545,0.6637900721907616,-0.5898205806165934,0.3824717402458191,-0.0283303968608379,-0.816652238368988
1.3952287597656294,-1.0745309006597843,0.2064800194442272,-1.600592783397436,0.3656448125839233,0.001111646881327,-0.8749078512191772
1.4051948242187535,-1.092123694365099,-0.1192582475870847,-2.9433477005571125,0.3121970295906067,-0.0310745500028133,-0.9259194135665894
1.4151606445312517,-0.9531823297299444,-0.498454548561573,-4.584729005938768,0.3218624591827392,-0.0558760352432727,-0.9552730917930604
1.4251267089843793,-0.5922613978974521,-1.2494722378283738,-6.214444423446059,0.4959876537322998,-0.0491883493959903,-0.9316127300262452
1.4350927734375034,-0.1261469841875135,-2.1582360185086724,-7.904629214963316,0.8377649784088135,0.0020000033546239,-0.8515306711196899
1.4450576171875085,0.1764298952259123,-3.040274289348721,-9.016734132540224,1.210709810256958,0.0616854019463062,-0.7452437281608582
1.455023681640629,0.5929543485976755,-3.7136739014059295,-9.221155465888977,1.38006854057312,0.0186354033648967,-0.613984227180481
1.464989746093753,1.4331363220915196,-4.821310149136186,-8.998630905094743,1.2562613487243652,-0.0537361092865467,-0.4077164828777313
1.4749558105468807,2.2894686353974043,-6.324482422745228,-8.174512908303738,0.8364855051040649,-0.2609100639820099,-0.1428664326667785
1.484921630859379,2.72888574244827,-7.42374831701517,-7.839439242172241,0.1905097365379333,-0.5613470673561096,0.1333897858858108
1.4948874511718806,2.267330599477887,-7.814948944038152,-7.720706479763984,-0.564926266670227,-0.7257850170135498,0.4045538902282715
1.5048537597656306,1.1288559997610748,-7.828637277650833,-7.448364287355542,-1.3206504583358765,-0.649185836315155,0.6659197211265564
1.5148195800781288,0.2118231157715432,-7.788476532176136,-7.281128483062982,-1.9791561365127563,-0.564447283744812,0.9190728664398192
1.5247846679687527,-0.3403915732186287,-7.565524685880542,-8.07793820168972,-2.3959767818450928,-0.4580000340938568,1.1244192123413086
1.5347507324218803,-1.2075681558176874,-6.984221758240461,-8.819162811216712,-2.450671434402466,-0.280418336391449,1.2705435752868652
1.5447165527343785,-2.0500923085235057,-6.0521431529462335,-8.84958600653112,-2.1881325244903564,-0.1857050508260727,1.3271242380142212
1.554682617187506,-2.3008434313707053,-4.841823944854736,-8.267594512104987,-1.773911476135254,-0.2758554518222809,1.2628085613250732
1.5646484375000007,-2.171010159885883,-3.5868566167414184,-6.826479758480191,-1.3463348150253296,-0.4988338947296142,1.081691861152649
1.5746147460937543,-1.7724590239696203,-2.497916301652789,-4.779066752168536,-0.950019598007202,-0.914878785610199,0.8712080717086792
1.5845805664062524,-1.2529704552076757,-1.6704156766861675,-3.106735597249865,-0.545369565486908,-1.418784737586975,0.7211385369300842
1.59454663085938,-0.7882957189120352,-1.1399334202229976,-1.4722504811227322,-0.1071594655513763,-1.8597506284713743,0.6372524499893188
1.6045124511718782,-0.6880971227124333,-0.698773122766614,0.3473836971282958,0.2881248593330383,-2.041800737380981,0.619140088558197
1.6144775390625092,-0.7457188522063195,-0.2976350390970707,2.667092718619108,0.5152573585510254,-2.0575926303863525,0.598375141620636
1.6244436035156298,-0.6287190510705113,0.2696668357193469,4.566586031004786,0.5254168510437012,-1.9907695055007932,0.5136120915412903
1.6344096679687539,-0.4002769367955625,0.8123100700974464,6.223461258116364,0.3245119750499725,-1.8940751552581787,0.4145622551441192
1.644375732421878,-0.1357167765654623,0.995398692560196,7.532714887690544,-0.0482007972896099,-1.663130283355713,0.3428171873092651
1.6543415527343797,0.0183402510717511,1.336051620128751,8.67994372561872,-0.5302934050559998,-1.3163131475448608,0.290527880191803
1.6643073730468778,0.1349739953741431,1.851898617517948,8.933828470316529,-0.9737091064453124,-0.8809542655944824,0.22376449406147
1.6742736816406278,0.2811374932825565,2.278947387513518,8.460437051340937,-1.2339638471603394,-0.4128403663635254,0.1712927669286728
1.6842385253906293,0.7603281000562012,2.489237905156612,7.603136331394314,-1.255193114280701,0.0094288643449544,0.1575893759727478
1.6942043457031275,1.4057289674669504,2.5669740557879206,6.569979278326034,-1.0595134496688845,0.2467548549175262,0.1468757390975952
1.7041706542968775,1.9987536048218608,2.591901576295495,5.393254296800494,-0.7081567049026489,0.3517508208751678,0.0933545753359794
1.7141364746093792,2.4330498617276546,2.717265739542245,4.765013676896691,-0.287373811006546,0.3955726027488708,0.0184441190212965
1.7241025390625033,2.7824022285804157,2.6400401687815784,4.6053462620317935,0.0794838517904281,0.3445523977279663,-0.0601475499570369
1.734068359375005,3.0686627639651296,2.3941738953664897,4.548643547078967,0.3354546427726745,0.2025590687990188,-0.1598882526159286
1.7440349121093774,3.291481923791766,2.173041081191599,4.797312602955103,0.499430775642395,-0.0111958244815468,-0.2902840673923492
1.7540007324218791,3.3283409973725675,2.015407510241866,5.1044157276213165,0.5602789521217346,-0.1937296837568283,-0.4103878438472748
1.7639653320312547,3.204423233541846,1.8717489808917045,5.54453206898272,0.5060915350914001,-0.2527264058589935,-0.4864895939826965
1.7739318847656307,2.848043160009384,1.8372890774071216,5.759438555988669,0.3857954740524292,-0.1617269814014434,-0.5353207588195801
1.7838977050781288,2.2953097626410424,1.977434045678377,5.715334041324257,0.2730016112327575,0.1078654527664184,-0.58185875415802
1.793863769531253,1.8407908019177612,2.1500492049217224,5.361191517585516,0.2055583745241165,0.4455476403236389,-0.6495227217674255
1.8038295898437582,1.3251796591110527,2.537375036337972,4.449544290423393,0.2660760283470154,0.833663821220398,-0.7216103672981262
1.8137956542968787,0.9611332887344062,2.9114994408756494,3.7339123873144384,0.441127210855484,1.21873676776886,-0.7545190453529358
1.8237617187499993,0.8094748466715216,3.103429541441798,3.319780966559052,0.6744028329849243,1.483527660369873,-0.7589241862297058
1.833727539062508,0.6657685326568782,3.2391262981325384,2.9143600910037755,0.9207502603530884,1.5188124179840088,-0.7640978693962097
1.8436928710937543,0.4961610307969152,3.259472920590639,2.423359365579486,1.1969609260559082,1.3780994415283203,-0.8180182576179504
1.8536586914062525,0.4296173783745616,3.0752427268773315,2.141330476415157,1.481932520866394,1.1120169162750244,-0.9143218398094176
1.8636245117187542,0.4614139078687876,2.7710803318381307,1.8591957887887955,1.7222450971603394,0.7616522312164307,-1.0112384557724
1.8735905761718783,0.418960448347032,2.420390578901768,1.4380886838018894,1.8520272970199585,0.4508256614208221,-1.0675721168518066
1.8835566406250024,0.0071063248738646,2.168029682770371,1.081464864641428,1.8224990367889404,0.2650897800922394,-1.0564072132110596
1.89352270507813,-0.3131104022569954,1.8112217392146583,0.7543225760310888,1.664442777633667,0.2765648066997528,-1.029276728630066
1.9034885253906282,-0.3744683591371402,1.222966508218646,0.4539437911838292,1.4310311079025269,0.3817209303379059,-1.012680172920227
1.9134536132812556,-0.452727218468301,0.5988298165023327,-0.2033253548055887,1.1568442583084106,0.5098447799682617,-1.0201194286346436
1.9234196777343797,-0.6143762721370906,0.1827203736722469,-1.024227896681428,0.9324227571487428,0.666287899017334,-1.0529203414916992
1.9333854980468779,-0.6909706323221325,-0.3065940061002969,-1.821493542382121,0.7686406970024109,0.7786043286323547,-1.0225517749786377
1.943351806640628,-0.3550662875201553,-1.4033365193724632,-2.834522584179044,0.7168715000152588,0.8586079478263855,-0.9460257887840272
1.9533176269531296,0.3242591343894601,-2.696769479480386,-3.984089509665966,0.8127191662788391,0.8939014673233032,-0.886781632900238
1.9632836914062537,0.9909303149744868,-3.59390361264348,-5.002013337767124,1.001919507980347,0.813122570514679,-0.8849197626113892
1.9732495117187554,1.2842165112122892,-3.759825996249914,-5.689371332550048,1.190152287483215,0.5594583749771118,-0.8510187864303589
1.9832145996093793,1.8439057190679011,-4.327262311100959,-6.173937641012668,1.3021965026855469,0.2470946162939071,-0.734735369682312
1.9931806640625034,2.2144234774157403,-5.298229157716036,-5.994336860665679,1.1695979833602903,-0.1277557015419006,-0.5558915734291077
2.003146484375005,2.129256884522736,-6.031555707469583,-5.850954225647449,0.7462198734283447,-0.5305874943733215,-0.3966207504272461
2.0131127929687587,1.7946201485037805,-6.612417905604839,-6.006396716293692,0.1817066967487335,-0.8379112482070923,-0.3008497357368469
2.0230786132812533,1.0251933807127178,-6.819100169622898,-6.448957528197765,-0.3808768689632416,-0.9577707648277284,-0.2020967751741409
2.0330444335937585,-0.0332408465510234,-6.7848056858330965,-6.995542193678021,-0.8801005482673645,-0.792513370513916,-0.0517115332186222
2.043010498046879,-0.9655820117715744,-6.5651908750057215,-7.11078302231729,-1.3369792699813845,-0.3960921764373779,0.0959173887968063
2.0529765624999996,-1.3303636376202106,-5.998908406364918,-7.283876904988288,-1.6706403493881226,0.0356419347226619,0.2842508256435394
2.0629416503906306,-1.2665775402776895,-5.664577083033323,-7.7263342565178865,-1.799647569656372,0.3184382915496826,0.5042384266853333
2.0729074707031288,-1.0893104635752735,-5.436188598641753,-8.108329248300194,-1.7366749048233032,0.4600252509117126,0.6530891060829163
2.082873535156253,-1.1330638997796922,-4.873493340837955,-7.677897265607118,-1.5103310346603394,0.5122235417366028,0.6798942685127258
2.0928395996093805,-0.9227478093039244,-4.104723137259483,-6.512275277376174,-1.1824042797088623,0.4491340219974518,0.5905113816261292
2.1028054199218786,-0.4063908896312117,-3.440545527055859,-5.110400062727928,-0.8793162703514099,0.256714254617691,0.4352588057518005
2.1127714843750027,0.1590315281141549,-2.7693934016644954,-3.517912844374776,-0.6575098037719727,-0.0258508790284395,0.2782580256462097
2.1227375488281304,0.7516893049180507,-2.243030270957947,-1.7243898434579372,-0.5100833177566528,-0.364551842212677,0.1225474700331687
2.1327023925781283,1.0835261810854078,-1.6299679309636357,-0.038514147311449,-0.4377617239952087,-0.7028369903564453,-0.0166897773742675
2.1426684570312524,1.0991973590783777,-0.891554871726036,1.6239567078500985,-0.4338458478450775,-0.8890330195426941,-0.1289790272712707
2.15263452148438,0.782915121852234,-0.1898918727368116,3.3034546856582163,-0.4937089085578918,-0.878964900970459,-0.2064378708600998
2.162597167968759,0.4853696607347577,0.4569681074410677,4.614481170123815,-0.5935149788856506,-0.7068271040916443,-0.1835490316152572
2.1725632324218793,0.5844705978907644,1.0066022236198189,5.887587381517887,-0.7344300150871277,-0.4059330821037292,-0.0492487587034702
2.182529296875,0.7020203610595316,1.7637854497790335,7.044321714416146,-0.9091006517410278,-0.1207473278045654,0.1121435388922691
2.1924953613281275,0.5894716941136866,2.775490549495816,7.692575779300927,-1.0664128065109253,0.0945450067520141,0.1905374228954315
2.202461181640629,0.5575568720020353,3.4853707572102546,8.110142435202002,-1.18767511844635,0.2137629091739654,0.2222035080194473
2.212426269531253,0.5945763603089377,3.608530688410997,8.015145937690138,-1.248289942741394,0.2047086954116821,0.2384692877531051
2.2223923339843807,0.5956114389777183,3.46911637250185,7.61412826552987,-1.1820991039276123,0.2179147154092788,0.2210351526737213
2.232358154296879,0.747382912961021,3.1533675845652818,7.483738383075594,-0.9549065828323364,0.3212059438228607,0.183698683977127
2.2423242187499994,1.0382269036784768,2.771463778197765,7.554304203686118,-0.5964595675468445,0.4274646043777466,0.1568675339221954
2.2522902832031306,1.307885556091368,2.557104988202453,7.531731721872091,-0.2102586030960083,0.3760935664176941,0.1334540843963623
2.2622563476562547,1.6648064585022628,2.4932588312357664,7.374353879249096,0.0967356190085411,0.1533035039901733,0.0816023647785186
2.272222167968753,2.064335207279026,2.626779997453093,7.357036833745241,0.2627879977226257,-0.1548026502132415,0.0237292144447565
2.2821879882812546,2.2038263878166675,2.8223586836546657,7.333149762201309,0.2746533453464508,-0.4741749167442322,0.0065425285138189
2.2921533203125044,2.0740024686820804,3.077774875703454,7.205992870318889,0.1742186248302459,-0.6371675729751587,0.040752962231636
2.3021191406250026,1.9265239426523448,3.163107472813129,7.112197565290331,0.0363328233361244,-0.5885552167892456,0.1189946979284286
2.3120849609375043,1.485515474756807,3.050834261807799,6.90940003375113,-0.1069322004914283,-0.4170167744159698,0.199940413236618
2.3220512695312543,0.8426105158150196,3.085859982481599,6.288862243309617,-0.2299592941999435,-0.2048767507076263,0.2118879854679107
2.3320170898437524,0.2738918330032378,3.1186230189204216,5.476336484634876,-0.2695405185222626,0.0143107362091541,0.1517626047134399
2.34198315429688,-0.0359397667787969,3.103669779938459,4.741682485669851,-0.1975039988756179,0.1902767419815063,0.0825372636318206
2.3519489746093782,-0.3255892139494419,3.0944296579062938,3.981647961732745,-0.0440859384834766,0.3274335265159607,0.0098550654947757
2.3619152832031283,-0.5953636016964912,3.2752813150972124,3.1603333319246767,0.1930648535490036,0.3610033094882965,-0.1007026582956314
2.3718801269531298,-0.6296569164425134,3.48853185158968,2.4448580806821583,0.4901905357837677,0.3546551465988159,-0.2450004369020462
2.381845947265628,-0.5110311946053058,3.48791518099606,2.1294027227342127,0.7943883538246155,0.3206283152103424,-0.37895268201828
2.391812255859378,-0.3681700261779129,3.351864788562059,2.049420254480838,1.0441182851791382,0.2474702149629593,-0.4809120595455169
2.4017780761718797,-0.1600903164520859,3.0778567087680098,2.0658026494830843,1.2337316274642944,0.1530889272689819,-0.5309984683990479
2.411744140625,0.1418249663806054,2.7040485305726527,2.298494968548417,1.3130812644958496,-0.0073399059474468,-0.5234960913658142
2.421709960937509,0.2922532729934901,2.2793536302268502,2.2156337299883364,1.2541563510894775,-0.1752050071954727,-0.5082830190658569
2.431676269531252,-0.0473186041729757,1.950738346454501,1.8623674045622347,1.1276196241378784,-0.2337665855884552,-0.5198397636413574
2.4416423339843796,-0.2688299282374791,1.275406889551878,1.22717389678061,0.9581131935119628,-0.1641875952482223,-0.5417238473892212
2.4516071777343775,-0.1314269612838979,0.3628127369284629,0.3574351355433464,0.6954700946807861,0.0224137082695961,-0.5382063388824463
2.4615734863281276,-0.152319709850056,-0.4199748860865831,-0.6289958221852779,0.3562622964382171,0.2895013689994812,-0.5362511873245239
2.4715393066406293,-0.306824161594361,-1.1548445736289024,-2.0504162797808645,0.0279914662241935,0.4997203946113586,-0.5072650909423828
2.4815051269531274,-0.244226799112372,-2.1917209394812582,-4.122435904082655,-0.1985282748937606,0.6704174876213074,-0.4348504245281219
2.4914714355468774,0.3673061393575743,-3.366481927457452,-6.27182869092226,-0.2410365939140319,0.7913870811462402,-0.3472049832344055
2.501437255859379,0.8343448648381978,-4.2024511055618525,-8.397445465376972,-0.0636328980326652,0.7896137237548828,-0.2566266357898712
2.5114033203125032,0.7077459721647202,-4.302313163283468,-10.087322213858366,0.1878014802932739,0.5563194751739502,-0.1534014493227005
2.521369140625005,0.4639695471683517,-4.493650558653473,-11.464704792284964,0.3490671813488006,0.1214023157954216,-0.0636612549424171
2.5313354492187585,0.1120704915074631,-4.898234398862719,-12.340211031007764,0.2702719569206238,-0.376084417104721,0.0164844449609518
2.541300292968753,-0.4247347208995372,-5.350860677707195,-12.91193890557289,-0.0448835827410221,-0.8064995408058167,0.1052748262882232
2.5512661132812546,-1.1439560998678209,-5.673097074097394,-13.262847269695996,-0.4911960959434509,-0.9386152625083924,0.1954446583986282
2.5612324218750047,-2.0328405833408234,-5.751017933645844,-13.047055816549062,-0.9591541290283204,-0.6414784789085388,0.2949211895465851
2.5711982421875064,-3.052785103614628,-5.626178671056032,-12.462518729293343,-1.3837549686431885,-0.10972910374403,0.4254882335662842
2.5811643066406305,-3.577376256212592,-5.336384408587217,-11.854997072291374,-1.7168406248092651,0.3623303174972534,0.5569943785667419
2.5911301269531286,-3.405318730852008,-5.019087806686759,-11.225821217364071,-1.9633315801620483,0.7303336262702942,0.6359408497810364
2.6010961914062527,-3.0975448673173784,-4.535809784469008,-10.197409897518158,-2.0920886993408203,1.0383830070495603,0.6273539662361145
2.6110622558593803,-2.5990301130011675,-3.8487726922035215,-8.81905292110145,-2.093292713165283,1.247860074043274,0.5581027269363403
2.6210280761718785,-1.7271556549094615,-3.263161253714561,-7.292364747348428,-2.0274269580841064,1.2527540922164917,0.4793694317340851
2.6309934082031283,-0.5380678162213415,-2.86254105643928,-5.773394016104937,-1.955840229988098,1.00391685962677,0.381378173828125
2.64095922851563,0.7876454383097589,-2.398881050144136,-4.359666451099515,-1.9264178276062007,0.4132452309131622,0.2693658173084259
2.650925048828128,1.814892098290473,-1.918949415744841,-3.4380069484889506,-1.8827099800109863,-0.4297943711280823,0.1655323356389999
2.6608911132812523,2.4804572173297403,-1.3613812916964292,-2.5971312936425206,-1.811581254005432,-1.3343394994735718,0.1077291592955589
2.67085717773438,2.381742429947108,-0.8398407588407397,-1.8369740201085805,-1.7512415647506714,-1.847917318344116,0.0911248847842216
2.680823242187504,1.2974087318710985,-0.3171057555034756,-0.3143061879128218,-1.6762946844100952,-1.784029841423035,0.1109404414892196
2.6907890625000057,0.0081853157496079,0.221931855598092,1.1742103683561087,-1.6198735237121582,-1.3375461101531982,0.150397852063179
2.70075512695313,-0.7674762182451784,0.6873103562489151,2.2437164996564385,-1.5298646688461304,-0.6268668174743652,0.2605642974376678
2.7107202148437537,-0.7446606483902781,0.9953554379403592,3.3962282464236018,-1.350062131881714,-0.0208016820251941,0.4331347346305847
2.720686035156252,0.0870577769344672,0.948376244622469,3.865983354723453,-1.0790550708770752,0.241890475153923,0.5926093459129333
2.7306520996093795,1.068978308033943,0.7819450347110629,3.978527199363709,-0.7381911277770996,0.1813818663358688,0.6830434203147888
2.7406181640625036,1.5456053479298948,0.760747056120634,4.256219520628452,-0.3474395275115967,0.0312876291573047,0.7372496724128723
2.7505842285156277,1.4532317462675273,0.7858680533736944,5.044805600789189,0.0324534699320793,-0.1008650809526443,0.7759602665901184
2.7605500488281294,1.0540259458348151,0.7912748808532952,5.908594513711333,0.3067976832389831,-0.2172782123088836,0.7472743988037109
2.7705161132812535,0.716862102491036,0.8856298655912279,6.5637085274934766,0.4732162058353424,-0.3256233334541321,0.6422678232192993
2.7804821777343776,0.537399780766666,0.9291568726286292,7.098122862708568,0.5673739314079285,-0.4271816611289978,0.5098090171813965
2.7904479980468793,0.5003350650785491,0.9295090470671652,7.444558465331792,0.5923703908920288,-0.4868897199630737,0.3951565027236938
2.800413330078129,0.4594270083678886,0.945261619733274,7.521988911014795,0.612829864025116,-0.4517103433609009,0.2903163433074951
2.8103791503906272,0.6596018267206847,0.7865341160669922,7.591668596440553,0.6891440749168396,-0.354009598493576,0.2145035713911056
2.820344970703129,0.8625303642284124,0.5892325515955686,7.492170111334324,0.7907797694206238,-0.2707108855247497,0.1510286331176757
2.830311279296879,1.0515825712706892,0.7477242006793617,7.226382747396826,0.9012846946716307,-0.2364735603332519,0.0817795172333717
2.8402773437499995,1.1356065699998288,1.0081132127046584,6.98230218835473,1.008464813232422,-0.234681636095047,0.0312359370291233
2.8502434082031307,1.092260910878703,1.2503648027539251,6.956366367587447,1.0938663482666016,-0.2551363110542297,-0.0113887544721364
2.860209228515629,0.9352833196196704,1.455100316618383,6.9351184123754495,1.1233257055282593,-0.2726165354251861,-0.0508563891053199
2.870175292968753,0.5997511691309512,1.7333374122843146,6.916053646421432,1.1070375442504885,-0.2627370059490204,-0.1140510663390159
2.8801413574218806,0.2279058885063976,1.961897453850508,6.8367375331223,1.0883662700653076,-0.2287940084934234,-0.1994114816188812
2.8901062011718786,-0.1327546388242393,2.201322003780305,6.699200117000937,1.0691540241241455,-0.1645066291093826,-0.279522567987442
2.9000722656250026,-0.4159319673713296,2.3176351378262043,6.5352335436373945,1.0296320915222168,-0.0890063568949699,-0.3810558617115021
2.9100383300781303,-0.7664969248842447,2.539109020523727,6.263239141753315,0.9665409922599792,0.0269998796284198,-0.5126959085464478
2.9200043945312544,-1.0282813367906958,2.8912893042787906,5.984574760586023,0.9386791586875916,0.176793023943901,-0.6135277152061462
2.9299702148437525,-1.2161097741916775,2.9703885599568483,5.491234778559208,0.9842002987861632,0.3464185297489166,-0.6816801428794861
2.9399360351562542,-1.0314526603031904,2.851944551362097,5.097045491114258,1.0960323810577393,0.4456965923309326,-0.7347169518470764
2.9499023437500007,-0.5600424052074551,2.5173043082118034,4.432592571100592,1.2308818101882937,0.3831871747970581,-0.7805339694023132
2.959868164062506,-0.1715459956418722,2.256196626523137,3.5980128015279766,1.3475843667984009,0.1655856668949127,-0.8051831126213074
2.96983422851563,-0.0976386825837194,2.017647982645035,2.743698403915763,1.391792893409729,-0.126928225159645,-0.8221296072006226
2.979799316406254,-0.4675678639212623,1.542087987458706,1.984362383636832,1.3277113437652588,-0.3652637600898742,-0.8754625916481018
2.9897651367187557,-1.000644776520133,0.873634015110135,1.2400380545288323,1.1821902990341189,-0.4947455823421478,-1.0125417709350586
2.9997312011718797,-1.617124962133914,0.1657107866823673,0.3953250134766101,0.9795511364936828,-0.47262904047966,-1.203497052192688
3.009697021484378,-2.1876398076474666,-0.5210802218675613,-0.2676683553785085,0.6359460949897766,-0.374260663986206,-1.4062554836273191
3.019663330078128,-3.0621897685587403,-0.7072451830357313,-1.1676350816190242,0.1286553144454956,-0.1569949686527252,-1.6207667589187622
3.0296291503906296,-3.256736773625016,-0.9972422746002674,-2.3570704916357994,-0.3884418904781341,0.2390554249286651,-1.8058104515075684
3.0395952148437537,-2.519518477129936,-1.568439987811446,-3.852323662683368,-0.7381131649017334,0.8013707399368286,-1.8230550289154053
3.049561035156252,-0.8697370076715946,-2.560737791746855,-5.617277571719884,-0.7647138833999634,1.3257719278335571,-1.5716177225112915
3.0595261230468793,0.7319011200603097,-3.505108892381191,-7.466442964881658,-0.5362855195999146,1.4053831100463867,-1.175401210784912
3.0694921875,1.6869317810706794,-3.806598268818855,-9.669482586234809,-0.1892231702804565,1.011072039604187,-0.8624069094657898
3.0794582519531275,2.272890279431641,-3.844769886302948,-11.155656378769876,0.103870190680027,0.2526282370090484,-0.6737544536590576
3.0894243164062516,2.301881688377261,-4.17364119066298,-12.147438049876689,0.1334358006715774,-0.6588378548622131,-0.5987342596054077
3.0993901367187533,1.9929284057997163,-4.42634870827496,-12.753069363087414,-0.1201444715261459,-1.390274167060852,-0.5429199934005737
3.1093559570312514,1.2486118216067552,-4.445074451532959,-12.71281450958848,-0.5025362968444824,-1.6230090856552124,-0.3818123340606689
3.119322265625005,0.4647046199772506,-4.382887752211094,-11.810326740437745,-0.9266435503959656,-1.4462440013885498,-0.0630788505077362
3.1292880859375067,0.0439149103764444,-4.179647153079509,-11.111005920660496,-1.3575116395950315,-1.091291427612305,0.3442622721195221
3.1392531738281306,0.160594247386232,-3.985376626867056,-10.890171212649344,-1.6767494678497314,-0.6774017810821533,0.7723312973976135
3.1492192382812547,0.6181655083522201,-3.928851606568694,-10.777304711925982,-1.763553261756897,-0.3012968301773071,1.1656489372253418
3.159185058593753,0.8694584099259227,-3.7180280049622056,-10.44727897683382,-1.6057742834091189,-0.0186110734939575,1.4642308950424194
3.1691508789062546,0.9267439662680028,-3.270034646615386,-9.499001516410708,-1.3644429445266724,0.0834497809410095,1.6260207891464231
3.1791169433593787,1.0039813005317002,-2.6782670235842465,-8.079314166218042,-1.131118893623352,-0.0084069622680544,1.653041124343872
3.1890830078125063,1.2698577309921384,-2.156473977272213,-6.327938700678944,-0.9005644917488098,-0.1844541579484939,1.6004921197891235
3.199049316406253,1.3057368536248803,-1.787604716783762,-4.0824920162290335,-0.7038025856018066,-0.3837338089942932,1.4596518278121948
3.2090151367187545,1.2842432530887424,-1.4948112724989653,-1.8698633132755755,-0.5599380731582642,-0.5858024954795837,1.2651398181915283
3.2189799804687524,1.2162481597490609,-1.135688037738204,0.2653811212241649,-0.4973451495170593,-0.8147459626197815,1.105494260787964
3.228946289062506,1.0867243195395917,-0.6443541348367929,2.062213685080409,-0.5560463070869446,-0.9755820035934448,1.0305159091949463
3.2389121093750006,0.6588371259585023,-0.0010223287850618,3.7338194483339775,-0.7263756394386292,-0.8694682717323303,1.0094555616378784
3.2488781738281283,0.0605100713465362,0.7640867219373584,5.240659012278914,-0.9471365213394164,-0.602388322353363,1.0400785207748413
3.2588442382812524,-0.3438655329395085,1.3589640014216302,5.983137421259284,-1.163451075553894,-0.2273484170436859,1.1159999370574951
3.268810058593754,-0.4784444645814597,1.8917291081249712,6.406653925475478,-1.2707197666168213,0.2207699865102768,1.19933021068573
3.278776123046878,-0.439268127034232,2.145256709948182,6.667716014456748,-1.236344337463379,0.6685168147087097,1.2234094142913818
3.28874194335938,-0.3343123994354158,2.3995231474399565,6.717977882707118,-1.0488415956497192,0.986117422580719,1.193457841873169
3.2987072753906297,0.2349682281080633,2.217682771472633,6.398464773800969,-0.6948713064193726,1.089137315750122,1.1209386587142944
3.308673095703128,1.0057410036806016,1.9331635267972944,6.002701953428983,-0.1943360120058059,0.9583398103713988,1.0236736536026
3.318639160156252,1.662512940737605,1.682731552901864,5.674730228257179,0.3793059289455414,0.6352317333221436,0.9363832473754884
3.3286052246093796,1.9454627441391348,1.528116745251417,5.647824685674905,0.9061803817749025,0.2453164756298065,0.830374002456665
3.3385710449218777,2.051431886564195,1.2948112627238035,5.933790329766273,1.3053812980651855,-0.0892442092299461,0.671826958656311
3.3485371093750054,2.060472978892922,0.9937968103215098,6.521562161159515,1.5427690744400024,-0.3039202690124511,0.5022614002227783
3.3585031738281295,1.9123112929046155,0.8552788587301969,7.172120411333442,1.6196998357772827,-0.3784713447093963,0.3605739772319793
3.3684680175781274,1.8104796886757013,0.7492986103892326,7.720048892638087,1.5386110544204712,-0.297725111246109,0.2576633095741272
3.3784340820312515,1.5384145596429706,0.7568088398888707,8.239789390334487,1.330251693725586,-0.0284899286925792,0.1686992049217224
3.388400146484379,1.0457616100322455,0.8883174972400069,8.688474822598696,1.033992886543274,0.3289209604263305,0.0804622843861579
3.3983662109375032,0.5617820154163986,1.0988327635496855,8.629882348376512,0.7151514291763306,0.670569896697998,-0.0163303446024656
3.408332031250005,0.3500582500997931,1.3674828234419223,8.074477247580885,0.4786403775215149,0.9064838886260986,-0.1059723496437072
3.418298095703129,0.2326438768137246,1.6684429153084754,7.153012390759587,0.4189557135105133,1.0493165254592896,-0.1809504032135009
3.428264160156253,0.1555200128618627,1.990518860439956,6.204084941995143,0.5240983963012695,1.0875630378723145,-0.2469296902418136
3.4382299804687584,-0.0260395734027028,2.303227842289209,5.232705422925949,0.754573404788971,1.0281111001968384,-0.3154453337192535
3.4481950683593787,-0.3283466959640383,2.714673092700541,4.461418852612376,1.0614092350006104,0.900674045085907,-0.4034423232078552
3.4581611328125064,-0.5816904656529426,3.109690647663176,3.9184319193631407,1.398073673248291,0.7196016907691956,-0.500019371509552
3.4681271972656305,-0.709892921065539,3.2867563565745948,3.510161499595642,1.716576337814331,0.4937472939491272,-0.5850749015808105
3.4780930175781286,-0.7716901096131652,3.248663357284665,3.2129344567775724,1.9731007814407349,0.2619812786579132,-0.6560737490653992
3.4880588378906303,-0.5612100972799584,2.952946719029545,2.9897324351131918,2.124026298522949,0.0722464844584465,-0.7173799872398376
3.4980251464843803,-0.3612038404271006,2.483943890401721,2.819408017155528,2.1317272186279297,-0.0706792324781417,-0.7456175088882446
3.5079909667968785,-0.4242955988299101,1.822585429272056,2.5668448764503,1.970089673995972,-0.1446599811315536,-0.7709212899208069
3.517956054687506,-0.5864085436834022,1.0772867021739485,2.1692869893550872,1.6661872863769531,-0.1174762919545173,-0.8039277791976929
3.52792211914063,-0.8569329826127737,0.4255407035201787,1.8022493282079692,1.2405318021774292,-0.0184013731777668,-0.8528921008110046
3.537887939453128,-1.3093904076963665,0.141540806543827,1.1709598421275615,0.7433949112892151,0.1743789315223693,-0.8953683376312256
3.5478540039062523,-1.536427185218036,-0.3027957828611135,0.220344878667593,0.3221766054630279,0.4722332656383514,-0.8548624515533447
3.557819824218754,-1.0302009797416627,-1.5574153204500674,-1.4443641108095646,0.0889100357890129,0.7694494724273682,-0.7983962893486023
3.567786132812504,-0.368955733195506,-2.344762214204669,-3.762017368814349,0.1149030178785324,1.0015846490859983,-0.6993137001991272
3.5777519531250057,0.4975160256024449,-3.3570202716290947,-5.969643733435869,0.3096824586391449,1.0972918272018433,-0.5871325135231018
3.5877170410156296,1.010230204858631,-3.737680799937248,-7.697583962851763,0.5536048412322998,1.0017879009246826,-0.4862833619117737
3.5976831054687537,1.5665204179257153,-4.103358278647065,-8.715028483003378,0.761828601360321,0.7122586965560913,-0.4018185436725616
3.607648925781252,1.96551579047814,-4.522032019007206,-9.022325084415078,0.7358978986740112,0.1978433430194854,-0.3247221708297729
3.6176149902343795,1.7568305160745978,-4.573611984118819,-9.064892891031503,0.3681209981441498,-0.3299170136451721,-0.225360706448555
3.6275810546875036,1.1168125838112086,-4.78784393286407,-8.635662685343622,-0.2524961829185486,-0.6153572797775269,-0.13532455265522
3.6375473632812536,0.2457193757576868,-4.974992644372582,-7.901729401868581,-0.9058154821395874,-0.5153115391731262,-0.0241003930568695
3.6475131835937553,-0.4550005702277645,-5.030622761657834,-7.268411624830961,-1.4735329151153564,-0.2239124476909637,0.1217598691582679
3.6574780273437533,-0.6417180141795427,-4.856468556278943,-7.252052026182413,-1.9000784158706665,0.0372143276035785,0.2764769792556762
3.6674443359375033,-0.4966154965661465,-4.425283709391952,-7.641871427980065,-2.1731152534484863,0.2404585182666778,0.4335297048091888
3.677410156250005,-0.2903826933486387,-4.032627038341761,-7.891374012070893,-2.28125524520874,0.3902581334114074,0.5733946561813354
3.687376220703129,0.0782361725753173,-3.788275845664739,-8.24401548359692,-2.174405813217163,0.5277771353721619,0.695149838924408
3.697342285156253,0.2680284573951736,-3.449242628252506,-8.166497359630466,-1.8853564262390137,0.6134029626846313,0.7848753929138184
3.7073081054687584,0.4188622486695647,-3.034462972721457,-7.737779779639839,-1.5668556690216064,0.522351861000061,0.8120598793029785
3.717273193359379,0.5795178343215956,-2.507989951899648,-7.0487664188653225,-1.289025068283081,0.2790842950344085,0.7652915716171265
3.7272392578125064,0.7277164547868072,-1.9965271609440445,-5.867582119843363,-1.061055302619934,-0.0080297915264964,0.6787819862365723
3.7372050781250046,0.8450492872692644,-1.646302395170927,-4.308408557549119,-0.8723273277282715,-0.282644510269165,0.58013916015625
3.7471711425781287,0.8799706707857549,-1.3360723706558346,-2.6053204453170298,-0.713287353515625,-0.4871414601802826,0.4699897766113281
3.7571369628906304,0.906735708918795,-0.9677300566509366,-0.8403910861998796,-0.5830663442611694,-0.6407485604286194,0.3659532964229584
3.7671032714843804,0.8154310516621917,-0.5275581857100129,0.7427730080127716,-0.5107561945915222,-0.7105950117111206,0.307957649230957
3.7770681152343784,0.6769530667550862,-0.1167071017995476,2.2997101895570755,-0.4965248107910156,-0.7117476463317871,0.2934424579143524
3.78703393554688,0.673137965446338,0.1834352439433336,3.679925361061096,-0.5192418098449707,-0.635163426399231,0.3176833689212799
3.79700024414063,0.7219000235930084,0.3841492472067475,4.76406441334784,-0.5607640147209167,-0.5361661911010742,0.3811388909816742
3.8069660644531282,0.6591857932657003,0.578933275899291,5.541076375570893,-0.5968732833862305,-0.4411270022392273,0.4567449688911438
3.8169321289062523,0.516056913812831,0.8785267555877566,6.094498193594813,-0.6242988109588623,-0.3127990663051605,0.5104573965072632
3.826897949218754,0.3000055128217674,1.1989628245577215,6.556573853307962,-0.6445127129554749,-0.1801672428846359,0.551055371761322
3.836864257812504,-0.0429333976589608,1.5402923362135883,6.6989400047600265,-0.6791186928749084,-0.0776674300432205,0.5507733225822449
3.846829101562509,-0.3848592951722442,1.9769483079880477,6.640178603711724,-0.7193945050239563,-0.0094087477773427,0.4989320039749145
3.8567951660156297,-0.6073235040813684,2.350200313605368,6.379297716516256,-0.7304394841194153,0.036857932806015,0.4136392474174499
3.8667612304687538,-0.724565005018562,2.4758856716305018,5.956010929402709,-0.6829779148101807,0.0895019695162773,0.3160485029220581
3.876727050781252,-0.6416054206505417,2.399612579289079,5.539995594596863,-0.5496479868888855,0.1612217128276825,0.2115730345249176
3.8866931152343795,-0.3011867219629697,2.2017688707649707,5.0649675143301485,-0.3054686188697815,0.2446071505546569,0.1417164504528045
3.8966591796875036,0.1576981423522345,1.8956544648751612,4.673923539173603,0.0172288306057453,0.2681128084659576,0.1018441244959831
3.9066240234375087,0.4025534303601831,1.9000474391371007,4.311479635557532,0.3498757779598236,0.2187700271606445,0.0699162855744361
3.9165900878906292,0.5698083046793937,2.0820859680250288,4.16414913969636,0.6845942735671997,0.1257566958665847,0.0314109772443771
3.9265561523437533,0.6615313334785401,2.157173649974167,4.312186907044053,0.9663649797439576,0.0032560797408223,0.015940673649311
3.9365222167968774,0.5871115408536046,2.179375544910133,4.534603915810584,1.1550730466842651,-0.0829321518540382,0.0220905877649784
3.946488037109379,0.5253646211884916,2.097128931117058,4.941710552495718,1.2627023458480835,-0.1025932058691978,0.0141511727124452
3.9564538574218773,0.2870239392389543,2.03334239538312,5.2710623338490725,1.2641212940216064,-0.0973182320594787,-0.0215052310377359
3.9664191894531307,-0.0821142287182156,2.072109932933748,5.448129211804271,1.1964346170425415,-0.0988996177911758,-0.0945815667510032
3.976385009765629,-0.3716948027705773,2.065939135344326,5.446481444597244,1.0939661264419556,-0.1069502234458923,-0.1867726594209671
3.986351074218753,-0.5359403757385909,1.9228160280451176,5.1961149371534585,1.011826515197754,-0.0666435435414314,-0.2869349420070648
3.9963171386718805,-0.5307290708310902,1.617611138215661,4.827305005636811,0.9978217482566832,0.0247414149343967,-0.4102139770984649
4.006282958984379,-0.2336367968412116,1.1691782194077969,4.270674162438511,1.047817349433899,0.0840305760502815,-0.5101682543754578
4.016248046875003,0.2562207864299416,0.5614274298250674,3.504577561983466,1.100229024887085,0.0877710804343223,-0.5629189610481262
4.02621411132813,0.7347642544064671,0.0299760360687971,2.800592257526517,1.0585627555847168,0.0700512081384658,-0.5686258673667908
4.036180175781254,0.769300437997654,-0.4448796102404594,2.183036113244295,0.8480098247528076,0.0814857184886932,-0.5147767663002014
4.0461459960937525,0.4144097627727314,-0.9215355839699506,1.5566916823506354,0.4670012593269348,0.2035490423440933,-0.4598850011825561
4.056111816406254,0.2242473294662311,-1.640419766873121,0.8456997140020132,-0.047962374985218,0.3843220770359039,-0.4639396369457245
4.066078125000001,0.0698262908222153,-2.1646230891972777,-0.4541127180099487,-0.6483802795410156,0.3698291480541229,-0.5651679635047913
4.076042968750006,-0.2918344447932205,-1.9221558105707168,-3.1749031245470043,-1.1640123128890991,0.215800940990448,-0.7730723023414612
4.08600903320313,-1.0993585409894584,-1.1602677677214146,-6.329510480040312,-1.295661449432373,0.2572828829288482,-0.9608102440834044
4.095975097656254,-1.9188956397309895,-0.7612444842487573,-8.754254577976464,-0.9742624759674072,0.5244542956352234,-1.023463249206543
4.105940917968756,-2.3102105407834053,-0.7977139739900827,-10.82039215850234,-0.243249237537384,1.029922366142273,-1.0243674516677856
4.11590698242188,-1.237254999681562,-1.2383332964375615,-11.771502796524764,0.692291259765625,1.37539541721344,-0.9622753858566284
4.125872070312504,0.2663314807515591,-1.7435469638705252,-12.294185777413844,1.4854741096496582,1.1157395839691162,-0.8476116061210632
4.135837890625005,1.763613015821576,-2.1544261048316957,-12.445588637280464,1.9277170896530151,0.3727009296417236,-0.6726455688476562
4.145803955078129,2.8778397478580477,-2.8802918171852827,-11.535869163310528,1.9120374917984009,-0.5929426550865173,-0.4500878751277923
4.1557700195312535,3.3480227261811493,-3.722562141260505,-10.399752671027183,1.4326258897781372,-1.435960054397583,-0.2069848477840423
4.165739990234378,2.7565187225222587,-4.51467698006928,-8.921171817839145,0.6230443716049194,-1.7682451009750366,0.0714302659034729
4.175706054687506,1.4775830743223428,-5.210862424430251,-7.068338549819588,-0.349308431148529,-1.619691014289856,0.4201666414737701
4.185670898437504,0.0942744668476283,-5.753595675179362,-5.915732110506296,-1.3362847566604614,-0.9862453937530518,0.79244464635849
4.195636962890628,-1.2126415866244584,-5.74746287151277,-5.132560456609726,-2.121945858001709,-0.076455071568489,1.1164367198944092
4.205603027343756,-1.8491573559857903,-5.257371077626943,-5.109975699836015,-2.5201690196990967,0.8767246007919312,1.32587993144989
4.215568847656254,-1.9399001415759325,-4.422961696185172,-5.506604197126626,-2.5015079975128174,1.6051876544952393,1.4228874444961548
4.225534912109378,-1.4621458512157202,-3.271460880026221,-5.940990470403433,-2.135824680328369,1.8353071212768557,1.4133470058441162
4.235500000000005,-0.8438101008631288,-2.0140569724157453,-6.1672764295578,-1.5404956340789795,1.5389846563339231,1.2723746299743652
4.2454658203125035,-0.4958522205760702,-0.8572580498486757,-5.398868045029044,-0.8247414231300354,0.8446006178855896,1.0494259595870972
4.2554321289062536,-0.0913523323232308,-0.0470046200200915,-3.930203021177649,-0.1350417584180832,-0.136308804154396,0.7666304707527161
4.265397949218755,0.3561409675469622,0.2214835273087024,-2.1942682858765123,0.4113171994686126,-1.088953137397766,0.4524062275886535
4.275364013671879,0.4793396598555147,0.1517693550914526,0.343287952247262,0.7270916700363159,-1.7302528619766235,0.1629845052957534
4.285329101562503,0.5676838233387097,-0.0779480398163199,3.1498949400186538,0.814365029335022,-1.871815800666809,0.0165042541921138
4.295294921875005,0.8007140325888991,-0.5241726349249481,5.868635428288578,0.629721999168396,-1.594401717185974,0.0199168287217617
4.305260986328129,0.8570740715838968,-0.5436112026274204,7.956253603738546,0.2159448117017746,-1.0167440176010132,0.1248288601636886
4.315226806640631,0.7948232209846376,-0.0934983679085969,9.41538682913482,-0.3273827135562897,-0.3410651683807373,0.285315603017807
4.325193115234381,0.8164330683115869,0.5476213150516152,9.830379250633715,-0.8197911381721497,0.289079487323761,0.4268503785133362
4.335158935546879,0.7273349811885506,1.5206278508007525,9.50625134140849,-1.1150877475738523,0.7568544149398804,0.5025720000267029
4.34512377929688,0.6903415406383574,2.302918630209565,8.378455518224834,-1.1221312284469604,1.047296404838562,0.5505456328392029
4.3550900878906305,0.7417280290044844,2.5712621083706617,7.161117371281981,-0.8753415942192078,1.1602839231491089,0.5402435660362244
4.365055908203129,0.8392523644935339,2.897307541655004,6.1352265098243945,-0.4433387815952301,1.0603067874908447,0.4683544039726257
4.375021972656253,1.0009642177328466,2.945967527666688,5.214422162738442,0.1128798350691795,0.7987827658653259,0.3515202701091766
4.384987792968754,1.0303231448166073,2.96203954154551,4.786814589816332,0.6651445627212524,0.4637398421764374,0.2393809556961059
4.394952880859378,1.0301583827089518,3.0877348364427686,4.823071898111701,1.1574405431747437,0.0990946218371391,0.1433389037847519
4.404918945312506,1.1771915761239826,3.1380934430658813,5.150349211278558,1.5384705066680908,-0.2575790882110595,0.1220618337392807
4.4148847656250005,1.2583994945190846,3.191424051237106,5.67243539531827,1.7700037956237793,-0.5478159785270691,0.159151405096054
4.424851074218754,1.147691852330044,3.2136034420803186,6.226181622990966,1.8355125188827517,-0.6867792010307312,0.225705936551094
4.434816894531252,0.9326976870406418,3.086048783051968,6.829784645244478,1.7459280490875244,-0.6408323645591736,0.2992993891239166
4.44478198242188,0.5182740418730304,2.9109096582889555,7.361378077819943,1.5106899738311768,-0.460186094045639,0.3415448665618896
4.454748046875,-0.1866995247025974,2.8271950177699328,7.528314022383093,1.1967158317565918,-0.1961902827024459,0.2908697426319122
4.464713867187509,-0.9329040963329376,2.886865934878588,7.336071787127852,0.9026396870613098,0.0210424289107322,0.1489829421043396
4.4746796875,-1.6186181233011183,3.0957132679760453,6.523822507306933,0.7269823551177979,0.1826754957437515,-0.0429879762232303
4.48464624023438,-2.042127613254636,3.1111276947289705,5.640644418781996,0.7134396433830261,0.319348394870758,-0.2426880449056625
4.494610839843759,-2.032981745377183,3.0992882038533685,4.872171152323484,0.8232457637786865,0.3359376490116119,-0.4373528957366943
4.504576904296879,-1.6696357783548532,3.029088878467679,3.861162802699208,1.0201178789138794,0.2317007184028625,-0.5738697648048401
4.514543212890629,-1.1802778517015278,2.685276610085368,3.0550246992349623,1.2251694202423096,0.0598817504942417,-0.6483635902404785
4.5245090332031275,-0.6623631081275642,2.3284458701759574,2.550897950255871,1.3895140886306765,-0.103312499821186,-0.6914846897125244
4.534475097656252,-0.3380207159014418,1.9257132107913493,2.323379234436154,1.4372923374176023,-0.2397845834493637,-0.7132182121276855
4.544439941406253,-0.395949136724323,1.7238316250532864,2.1675310855984686,1.3311195373535156,-0.3072248697280884,-0.7295929193496704
4.5544062499999995,-0.5994324585705996,1.426117675501108,1.9202210431158544,1.1399363279342651,-0.2189406305551529,-0.757551908493042
4.564372070312508,-0.6826859113186597,0.6156336517870425,1.6978525496661665,0.8973020911216736,-0.0330338738858699,-0.8363540172576904
4.574337890624999,-0.5245351115617901,-0.3565361408770084,1.1452204207152128,0.5745704174041748,0.1131929829716682,-0.922448754310608
4.584304199218753,-0.3718174062369391,-1.1528396635472773,0.1482926188915967,0.1621735841035843,0.1629552096128463,-0.990275502204895
4.5942687988281286,-0.5395533786039799,-1.363932729744911,-1.269448273408413,-0.2250264137983322,0.2434107661247253,-1.035529375076294
4.604235107421879,-0.6421699957307427,-1.612058764785528,-2.863018610823154,-0.4509871006011963,0.435457170009613,-1.0459636449813845
4.614201171875003,-0.3190368696965277,-2.219454165059328,-4.492806509044766,-0.4701789319515228,0.6571066975593567,-0.9956565499305724
4.624166992187504,0.2950510139532387,-3.035314036592841,-6.273740662023425,-0.3224349915981293,0.7837333679199219,-0.8715359568595886
4.6341330566406285,0.904130202595517,-3.752082250255346,-7.938271956846117,-0.0630609691143035,0.7574623227119446,-0.6941273808479309
4.644098144531252,1.279440675112605,-4.286088589191436,-9.005724662747978,0.1861102283000946,0.5651602745056152,-0.54072105884552
4.65406420898438,1.1193440019849688,-4.42543510056138,-9.510431841963529,0.3541148602962494,0.2413447499275207,-0.4915242791175842
4.664030029296878,0.9953400942407548,-4.3733524466246365,-9.689539285835624,0.4644685387611389,-0.1281802952289581,-0.4731857478618622
4.673996093750002,1.206599383850768,-4.87956476970613,-9.57732686510682,0.4847297072410583,-0.4748331606388092,-0.4280283153057098
4.68396215820313,1.3678972494617103,-5.397203326687216,-9.212150906178357,0.3801425695419311,-0.6955921649932861,-0.3488363027572632
4.693927001953128,1.5102487878665327,-5.853389928361773,-8.525816993746162,0.1440144479274749,-0.7844304442405701,-0.2314697206020355
4.703893066406252,1.619032110929489,-6.237223826009035,-7.845870736524462,-0.2156691551208496,-0.7093479037284851,-0.0915919840335846
4.71385913085938,1.5588266485527156,-6.263128667116165,-7.192240823820233,-0.6248171329498291,-0.4856848120689392,0.0502153150737285
4.723824951171878,1.3629288133993744,-5.939831363496184,-6.944707493975758,-0.961128830909729,-0.2054725885391235,0.1682609915733337
4.733790283203128,1.2373390247032046,-5.326853194653988,-7.149802196541428,-1.1294435262680054,0.0590852200984954,0.2826336026191711
4.743756103515629,1.3111287757962942,-4.796716390627623,-7.430750889253616,-1.0806556940078735,0.3159827888011932,0.4390493035316467
4.753721923828127,1.4886249850794673,-4.519703868320584,-7.427671043416857,-0.8430662155151367,0.448640763759613,0.6131232380867004
4.7636879882812515,1.6399467425338925,-4.224224545952677,-7.176178746813536,-0.5090512037277222,0.4099101424217224,0.680626392364502
4.773654052734379,1.554592664244771,-3.448008702543378,-6.3162693056732415,-0.1632609814405441,0.1979990154504776,0.6197274923324585
4.7836191406249995,1.376547588907182,-2.4593659139841795,-4.918642396119236,0.1606305390596389,-0.1976953297853469,0.4789229929447174
4.793584960937508,1.3081195109777153,-1.5483721822947265,-3.4320816500931977,0.4294083416461944,-0.6793438792228699,0.3305656611919403
4.803551025390629,1.1681199425265192,-0.9204004424601792,-1.5801304256051778,0.5709364414215088,-1.0655651092529297,0.2340327352285385
4.813517089843753,1.007094537181407,-0.2699590966641902,0.5976601882010698,0.5366179347038269,-1.20094895362854,0.222885325551033
4.823481933593754,1.0372421304248274,0.1956207717776298,2.875142179337144,0.3130844235420227,-1.0616624355316162,0.3114873766899109
4.8334482421875045,1.0205430706888436,0.5506757341861724,4.7686096555620425,-0.0618405044078826,-0.7269678115844727,0.4590342044830322
4.843414062500003,0.8653352655813098,0.9980290410637856,6.183410987278819,-0.5169992446899414,-0.2793314158916473,0.6380577087402344
4.853379882812504,0.6705611006956547,1.4148632910370826,7.029536817738413,-0.9546492695808412,0.1745525002479553,0.7857879996299744
4.863345947265628,0.3371943480798974,1.863859104424715,7.36414403540194,-1.297825813293457,0.5706766843795776,0.8306984901428223
4.873311035156252,-0.1655542444137856,2.5500556542128323,7.318603350454568,-1.504838228225708,0.846612274646759,0.776189923286438
4.88327709960938,-0.5480342067014425,3.2498353236734867,6.880672536438703,-1.567620873451233,0.973333775997162,0.6812649965286255
4.893243164062504,-0.6781853119637816,3.655737845265865,6.252847511598468,-1.4963712692260742,1.0048209428787231,0.586502730846405
4.903208984375006,-0.6987491573691368,3.867919875743985,5.759151555740833,-1.3266619443893433,0.969135880470276,0.496479332447052
4.91317407226563,-0.6361975702576339,4.016455071219801,5.287451743113994,-1.0699715614318848,0.8328434228897095,0.3889723718166351
4.923140136718754,-0.501676981206797,4.120661880147457,4.70455365523696,-0.7156931161880493,0.6741214394569397,0.2908718883991241
4.933105957031252,-0.3775073980394751,4.177877220797538,4.418187613651156,-0.3035331964492798,0.5048829317092896,0.2237869054079055
4.9430720214843795,-0.2787717505319044,4.22891825672686,4.36631480307281,0.1025368198752403,0.3158805072307586,0.1751890182495117
4.953037841796878,-0.1241549701200798,4.234862259823084,4.520185514357686,0.467892587184906,0.0817882195115089,0.1568278819322586
4.9630031738281275,0.1033478905433788,4.1685704632699485,4.7871506899029015,0.75384122133255,-0.1552288681268692,0.1720379889011383
4.972968994140629,0.3868191240031272,3.9977001018673177,5.178723657369614,0.916362166404724,-0.3662555813789367,0.1939305514097213
4.982934814453127,0.4336787095293402,3.8821436314076174,5.574606304728984,0.9459559917449952,-0.5260969400405884,0.212800920009613
4.992901123046877,0.3101921036574989,3.708724754565954,6.023146775564551,0.8771781921386719,-0.6035327911376953,0.2019996494054794
