time,ax,ay,az,gx,gy,gz
0.0,0.1742232520271092,4.064619090408087,3.372982979914546,-0.1364137530326843,0.5683254599571228,-0.8548157215118408
0.009966064453125867,0.2452506988000124,4.021536904528737,1.9550854357481,0.0395849794149398,0.7329860925674438,-0.9170149564743042
0.019931152343751535,0.369096785634011,3.84758202111423,0.4056570223987102,0.2817482650279999,0.7022742033004761,-0.9748325943946838
0.02989599609375304,0.4474138048931956,3.6062919695734976,-0.8912129264205694,0.5550085306167603,0.5810335278511047,-1.0175256729125977
0.03986230468749952,0.610774155991897,2.8348598533093927,-1.7309943562895058,0.8202121257781982,0.4114185571670532,-1.0279042720794678
0.04982714843750102,0.881013896228373,1.7399258507639168,-2.4531612141251564,1.006744146347046,0.1932846307754516,-1.0193049907684326
0.05979296875000095,0.9093119160823524,0.7398205879479646,-2.932179240810871,1.0630056858062744,-0.0231521297246217,-0.9962652325630188
0.06975805664062662,0.5340455019026994,-0.112681791806221,-3.289359524810314,0.9611831903457642,-0.2120054066181183,-0.938047170639038
0.07972314453125051,-0.1154562249556183,-0.8658709798932075,-3.777459268096089,0.7201346755027771,-0.3296754062175751,-0.8780879378318787
0.08968920898437638,-1.0023240348439664,-1.451694599828124,-4.310377227273583,0.4325990080833435,-0.2572100162506103,-0.8023726344108582
0.09965405273437611,-1.774262127868831,-1.943867876163125,-5.217966703477502,0.18387371301651,-0.0503349564969539,-0.7200984954833984
0.10962011718750198,-2.078952784565836,-2.658875509893894,-6.663733082300424,0.0579541325569152,0.1753924489021301,-0.6385501027107239
0.11958520507812587,-1.7119320745535194,-3.6698745071679353,-8.366376373374461,0.0457948371767997,0.3138687312602997,-0.5645025372505188
0.1295510253906258,-0.7856582830805331,-4.948598558443784,-9.864505976641178,0.1066110506653785,0.3876742422580719,-0.4623019397258758
0.13951635742187563,0.4923918875217437,-6.340284972032904,-10.515879634851215,0.2076144069433212,0.443792462348938,-0.3081354200839996
0.14948095703125297,1.722870817197114,-7.408956990596652,-10.751222176164388,0.2786481082439422,0.3837365806102752,-0.080751784145832
0.15944702148437706,2.6801369091093536,-8.182798506090045,-10.641003559601309,0.2528369128704071,0.1555579751729965,0.1779661923646927
0.16941210937500095,2.971671293243765,-8.554135325735807,-9.8628950343132,0.0125883668661117,-0.1713889986276626,0.4461324214935303
0.17937792968750088,2.4589503189206123,-8.588815009450911,-9.12157573224008,-0.4888379871845245,-0.5695350170135498,0.6808490753173828
0.18934301757812655,1.1831062069952487,-8.313349132063985,-8.325935057392716,-1.092562556266785,-0.6859577894210815,0.8213188052177429
0.19930810546875044,-0.4493343246269971,-7.7072162990719075,-7.023045702153444,-1.5279762744903564,-0.382037341594696,0.8801190257072449
0.2092741699218763,-1.7444591102793812,-6.551585543501377,-5.98495469981432,-1.7599210739135742,0.136333093047142,0.8311687707901001
0.21923901367187604,-2.218743094180524,-4.976486682322621,-4.948175364595651,-1.8486313819885252,0.6423298716545105,0.6858144998550415
0.22920532226562607,-1.8993641330480573,-3.4242356127679345,-3.906411811223626,-1.8661341667175293,1.0016027688980105,0.4922545850276947
0.2391701660156258,-1.167968843618035,-2.035800894451141,-2.587182146558165,-1.784021258354187,1.221210241317749,0.3423410654067993
0.24913525390625146,-0.2339253679916262,-0.8902133939892053,-1.472991070356965,-1.6194831132888794,1.258359432220459,0.2732871472835541
0.25910131835937555,0.6824575093902647,0.0600710223421454,-0.5360422286778688,-1.399948239326477,1.1108888387680054,0.2661709785461426
0.26906616210937706,1.3604995404258369,0.9644029580548406,0.4604436745971441,-1.1483216285705566,0.8165144920349121,0.3016887605190277
0.27903222656250115,1.7121913100115953,1.8242141995176675,1.3132891687005757,-0.8922231793403625,0.3963353633880615,0.3555270731449127
0.2889970703125009,1.7680974677592516,2.509877957603335,2.191103684365749,-0.6297207474708557,-0.0290092620998621,0.4518805146217346
0.29896215820312655,1.4545279235579072,3.2045562122717497,3.1748949412405487,-0.3924132585525512,-0.3719916343688965,0.5569263696670532
0.3089279785156265,0.8399689152650535,3.887687529270351,4.110344484272599,-0.1698352992534637,-0.5461996793746948,0.6210864186286926
0.31889306640625215,0.3174454357866197,4.269499857962131,4.927483289700747,0.0544599033892154,-0.5651989579200745,0.6520606279373169
0.32885913085937624,-0.0169250870442017,4.379915750662982,5.654932471853495,0.2814283370971679,-0.4389552772045135,0.6586554050445557
0.33882397460937597,-0.2638207400396466,4.448087954135239,6.227364110773801,0.4980936646461487,-0.2543675899505615,0.6159453988075256
0.34878906249999986,-0.2530975033102557,4.503867416763305,6.606807664507628,0.7050425410270691,-0.0815540105104446,0.5549414157867432
0.3587551269531257,-0.0011428498921915,4.419793295282125,6.98235771793425,0.8969546556472778,0.0477001070976257,0.507183313369751
0.36872021484375317,0.3324962533915415,4.332172879496216,7.256525372204184,1.058937430381775,0.1107821390032768,0.4782906770706177
0.3786860351562531,0.7043008001469075,4.192798018814623,7.49256875526309,1.1784515380859375,0.0971476510167121,0.4725651443004608
0.388651123046877,0.9860353825397788,4.012087815921008,7.631028546926378,1.2399518489837646,0.0206850990653038,0.4774251282215118
0.3986162109375009,1.1199989587623624,3.831945476043224,7.720346998801827,1.2369579076766968,-0.0900396853685379,0.472803920507431
0.4085820312500008,1.0773242577053606,3.6494910598307846,7.741622426542639,1.174613118171692,-0.2182847410440445,0.458017498254776
0.41854736328125064,0.8434124798476695,3.5225779135763644,7.61192929418087,1.0499027967453003,-0.3237003982067108,0.4011694490909576
0.42851318359375057,0.4732261454112828,3.451372626018524,7.4244649408519265,0.8883160352706909,-0.3456504344940185,0.3151160776615143
0.43847827148437624,0.0890388312164694,3.233461111977696,7.153396421641111,0.7264480590820312,-0.3040941953659057,0.2186373919248581
0.4484428710937518,-0.3630984950672835,3.1834675392746923,6.531020894378424,0.5517820119857788,-0.2428382933139801,0.0921707972884178
0.45840917968750183,-0.8028530904442072,3.292125482392311,5.848067272034287,0.422904908657074,-0.0984135791659355,-0.0472907871007919
0.4683740234374998,-0.9600864830952136,3.005834259608388,5.158836469116807,0.3865053653717041,0.092509239912033,-0.1292879283428192
0.47834008789062565,-0.862168033722043,2.672113761651516,4.422262900266051,0.4234312176704407,0.2868585884571075,-0.1850858330726623
0.4883051757812531,-0.6453739794038236,2.536337509983778,3.389495723298192,0.5068443417549133,0.3813534080982208,-0.237113356590271
0.49827001953125283,-0.3286784852016717,2.062806390276551,2.352036004599929,0.6755276918411255,0.4112078249454498,-0.2371308952569961
0.5082360839843769,0.1293781846610829,1.2218769594162702,1.6035644926846029,0.8985165953636169,0.3795215487480163,-0.2106042206287384
0.5182011718750008,0.6364877853758633,0.4104676375508308,0.8976876753926276,1.076032280921936,0.2166720926761627,-0.2164465487003326
0.5281669921875007,0.9540903844855724,-0.280545372608304,0.2520066758662462,1.116010308265686,-0.0389892421662807,-0.2409380376338958
0.5381320800781264,0.8125210824996233,-0.7940683109641075,-0.0821580587267875,0.9867303967475892,-0.3060616552829742,-0.286563903093338
0.5480971679687521,0.3231163575625047,-1.051505195185542,-0.7483546075373888,0.662764310836792,-0.5755623579025269,-0.4000417292118072
0.5580632324218762,-0.3400823976716026,-1.4940782820492982,-1.900644235986471,0.2493597716093063,-0.6714738607406616,-0.5256541967391968
0.5680280761718759,-0.8800137792751193,-2.2293062815099955,-2.919205777469277,-0.1007183343172073,-0.4408931136131286,-0.5536490678787231
0.5779934082031257,-1.3712084198363124,-3.0140047065824267,-4.001211324858665,-0.3249440193176269,0.0557495132088661,-0.4672807455062866
0.5879592285156257,-1.9217530749887224,-3.455478892293572,-5.500436322146654,-0.4372753798961639,0.5851774215698242,-0.3604117929935455
0.5979243164062531,-1.9176386254072189,-3.804804371139407,-7.736219690716267,-0.4187248647212982,0.9382381439208984,-0.3075768947601318
0.6078903808593772,-1.3668129613563418,-4.37681456977725,-9.878373173952102,-0.224654734134674,1.0893237590789795,-0.3181216716766357
0.6178549804687528,-0.3205563343487679,-5.228774513217807,-11.431314563858509,0.1183699741959571,1.0366451740264893,-0.343646228313446
0.6278200683593766,1.3104495613604783,-6.464179062727093,-12.301929523408411,0.5053582191467285,0.7580087184906006,-0.2945564389228821
0.6377861328125007,2.6910940641924737,-7.472028656059503,-12.36650048751831,0.7316139936447144,0.2303293049335479,-0.1394290775060653
0.6477512207031264,3.1641996519640085,-7.7938091253757475,-11.874087557208536,0.721782386302948,-0.4703978896141052,0.0774470418691635
0.6577170410156263,2.9992344229519365,-7.998015939190983,-10.926104111295938,0.4704318642616272,-1.1247612237930298,0.2936859428882599
0.667682128906252,2.4017235800936816,-8.240070545363425,-9.63866776125431,-0.0130151994526386,-1.5007102489471436,0.500001072883606
0.6776472167968759,1.2558116699829698,-8.141009282630682,-8.61351164381206,-0.5609843134880066,-1.575461983680725,0.7266155481338501
0.6876130371093758,-0.2340311299210414,-7.522945188826322,-7.640559760859608,-1.0151838064193726,-1.2744694948196411,0.9162901043891908
0.6975781249999997,-2.013718241980672,-6.1366714479357,-6.555338758555054,-1.3194613456726074,-0.6808003783226013,0.9634588360786438
0.7075441894531256,-3.333177623748779,-4.661043014812469,-5.774183120656013,-1.4111883640289309,0.0212802868336439,0.8666098117828369
0.717509277343753,-3.5919872576281424,-3.3845255336701867,-4.876227149716019,-1.3543391227722168,0.6384696960449219,0.689122200012207
0.7274741210937528,-2.802452790701389,-2.342307806789875,-3.889396963536739,-1.2643250226974487,0.9982763528823853,0.4933705329895019
0.7374401855468768,-1.4278200955048204,-1.6340537389725445,-2.5222791740149257,-1.140573263168335,1.1774208545684814,0.3444415330886841
0.7474052734375007,-0.0942023514594882,-0.9969751480966804,-1.1022960557460784,-1.03110671043396,1.1531652212142944,0.2643696069717407
0.7573710937500007,0.975284417553246,-0.3217453980028629,0.1452010826170444,-0.943556547164917,1.004255294799805,0.2448322474956512
0.7673361816406263,1.6439165229476986,0.3330214097768068,1.3925725487738847,-0.8916918039321899,0.7904345989227295,0.267703503370285
0.7773010253906261,1.8684303578630088,1.0247300009846687,2.3889216739267107,-0.8433380722999573,0.5411533713340759,0.3260211944580078
0.7872670898437519,1.7334316664390266,1.709895454159379,3.2429718676447865,-0.7794935703277588,0.3233270049095154,0.4229205548763275
0.7972321777343758,1.2422615757972002,2.440805005899072,4.031536320495605,-0.6811785697937012,0.1870160698890686,0.5235137939453125
0.8071972656249997,0.6340899304538965,3.15879837744236,4.716256952512264,-0.5461858510971069,0.1417969167232513,0.6082441210746765
0.8171630859374996,0.0115599432818591,3.785647250726819,5.313582209670543,-0.3699296712875366,0.1525126695632934,0.6533992290496826
0.8271279296875012,-0.4656621033651754,4.353876761782169,5.778651205980777,-0.1685374677181244,0.1982868164777755,0.6648412346839905
0.837094238281253,-0.7531336585074663,4.728819789226353,6.185219498005509,0.0422108396887779,0.2791890501976013,0.6363664269447327
0.8470590820312527,-0.9050244480215012,5.012159468728304,6.603678134310245,0.2846993803977966,0.3886420428752899,0.5730077028274536
0.8570241699218766,-0.8392538988634943,5.170195482999086,6.908796222639084,0.5453346967697144,0.4808094203472137,0.4908407032489776
0.8669902343750007,-0.5777434450602159,5.273067828452587,7.137994854369759,0.8133571147918701,0.514908492565155,0.4099133610725403
0.8769553222656263,-0.1887635993592441,5.304582910656928,7.326274615734815,1.0703883171081543,0.4822394251823425,0.337066650390625
0.8869211425781263,0.2854442505657673,5.200957116487622,7.51629157615602,1.2966840267181396,0.4036104083061218,0.2890759408473968
0.8968862304687519,0.7463517432823776,5.0292199091225855,7.671090508201718,1.4575656652450562,0.2877442240715027,0.2542508542537689
0.9068510742187517,1.0911977386265992,4.81387795330882,7.850595426958799,1.5505976676940918,0.1541611552238464,0.228276252746582
0.9168168945312516,1.322092214489728,4.583192297890782,8.039366771233082,1.5673092603683472,0.0153442192822694,0.2177859395742416
0.9267822265624996,1.4195304060652851,4.374692170795798,8.137461234760284,1.4860951900482178,-0.1234126016497612,0.2038376331329345
0.9367480468749996,1.2933087492063642,4.165656037127971,8.144954220864177,1.3059053421020508,-0.2347134798765182,0.1787088513374328
0.946713134765627,0.9017867812745272,4.023187009823322,8.01758631657958,1.0544557571411133,-0.3069674372673034,0.1241065934300422
0.9566782226562527,0.4046745141673833,3.8806794040739536,7.619543276315927,0.7971376776695251,-0.3176541328430176,0.0339947380125522
0.9666440429687526,-0.0975567033886909,3.5296330927848816,6.935059960186481,0.5746047496795654,-0.2655360698699951,-0.0708246156573295
0.9766096191406266,-0.5367393075639382,3.1716514292746782,6.204419873037934,0.4198482036590576,-0.1015234440565109,-0.2056277096271515
0.9865747070312505,-0.8390076690174638,2.7718898946553465,5.35087003005743,0.3858825266361236,0.1111555323004722,-0.3549002707004547
0.9965405273437504,-0.9113625650018452,2.151174409559369,4.251513534894586,0.4706627130508423,0.2832056581974029,-0.4911141991615295
1.006505615234376,-0.6731685067150741,1.4687100320369004,3.102137163543701,0.6157682538032532,0.3285747468471527,-0.6222285032272339
1.016471679687502,-0.2484763463156297,0.717663701197505,1.8988743037045,0.78251713514328,0.2126784771680832,-0.7538353800773621
1.0264367675781259,0.1921068453725427,0.0319359379649162,0.735164871096611,0.9015883803367616,-0.0425178557634353,-0.8724062442779541
1.0364016113281256,0.2282490211219526,-0.4164589869201183,-0.2381330488145351,0.9732239842414856,-0.3753347992897033,-0.9784836173057556
1.0463679199218756,-0.1419926054319366,-0.4149304621785878,-0.9385480935692788,0.9422998428344728,-0.7368083000183105,-1.1035739183425903
1.0563327636718771,-0.5269543015327304,-0.5298375288188457,-1.7265467292308807,0.7950378656387329,-1.0626784563064575,-1.2046713829040527
1.066298583984377,-1.033210390690714,-1.1545184104144572,-2.591625097441673,0.5857754945755005,-1.199515700340271,-1.280946969985962
1.0762634277343768,-1.5780770002067088,-2.266480120128393,-3.2194425234973427,0.3666577041149139,-0.9935614466667176,-1.3083428144454956
1.0862285156250007,-1.9403687820009885,-3.591374386426806,-3.7651422228366136,0.1272919774055481,-0.5225473642349243,-1.294566631317139
1.0961945800781265,-1.900238431664556,-4.938070734688639,-5.119308176326752,-0.1265403926372528,-0.0420899875462055,-1.2700536251068115
1.1061594238281263,-1.552248146945238,-5.823296403393149,-7.058429150223732,-0.3305017650127411,0.2769077122211456,-1.3179924488067627
1.116124755859376,-0.937978038596362,-6.130260996371507,-8.736707230848074,-0.4248526692390442,0.4247552156448364,-1.3787014484405518
1.126090576171876,0.2371233968479558,-7.006127300578355,-10.007328055167198,-0.4194943904876709,0.4060896635055542,-1.314427375793457
1.1360556640625,1.597641678506881,-8.079010214835405,-10.818155777752398,-0.4305109083652496,0.2106711119413375,-1.1040831804275513
1.1460217285156258,2.175456764031201,-8.19224379530549,-10.861170743614435,-0.5730840563774109,-0.0861318036913871,-0.8211780786514282
1.1559865722656255,1.826622721964121,-7.693968110442161,-10.416942290759089,-0.8743331432342529,-0.3869167268276214,-0.5389875173568726
1.165951660156253,1.4823223778039216,-7.505218393477797,-9.90601638315916,-1.254426121711731,-0.5653713941574097,-0.2717433273792267
1.175917724609377,1.3535010598406194,-7.516357042607664,-9.46535526739657,-1.5934041738510132,-0.6046879887580872,0.0422926656901836
1.185882812500001,1.094512562263012,-7.188711480650305,-8.853569523209332,-1.7801889181137085,-0.4187623262405395,0.388662576675415
1.1958474121093765,0.79085577865839,-6.498387037277221,-8.019965905192494,-1.7659231424331665,-0.10023745149374,0.7182327508926392
1.2058139648437507,0.6623143005497754,-5.6742199406474825,-7.0342246832937,-1.6218039989471436,0.2017285227775573,0.9922059774398804
1.2157785644531263,0.7677145570456981,-4.662431838822364,-5.856114384889603,-1.48074209690094,0.3483587801456451,1.1577928066253662
1.2257443847656262,0.9673287093084304,-3.5839626488655805,-4.405113612544536,-1.362905740737915,0.3584764003753662,1.1807644367218018
1.2357094726562519,1.174880449637398,-2.4848656814217565,-2.947925091475248,-1.27320659160614,0.216962069272995,1.1179026365280151
1.2456745605468758,1.3386015968725085,-1.4640589913606643,-1.5774018774241207,-1.1939367055892944,-0.0083000790327787,1.0196382999420166
1.2556406249999998,1.4161926399447022,-0.5628910726368427,-0.3057487874478101,-1.1023929119110107,-0.2737464606761932,0.9238668084144592
1.2656054687499996,1.4487614689856767,0.2643418413043022,0.9058236355751752,-1.0027347803115845,-0.4998677372932434,0.8568382263183594
1.275570800781253,1.4186787576720117,1.091497013834119,2.1590748074203727,-0.8986291885375977,-0.5971347689628601,0.8383461833000183
1.2855366210937529,1.2769143715053797,1.7754004842489957,3.406370285731554,-0.8090848922729492,-0.5615482926368713,0.8685552477836609
1.2955017089843768,1.0498088395964351,2.468289809674024,4.365631496983767,-0.7205311059951782,-0.4476848542690277,0.9320189356803894
1.3054677734375009,0.7114262681126594,3.200288617955148,5.140518137615919,-0.6320478320121765,-0.3086601197719574,1.009032964706421
1.3154326171875006,0.3041553807765245,3.934176308722794,5.78372017980814,-0.5319473743438721,-0.1357143521308899,1.069780945777893
1.3253977050781263,0.0200683169733732,4.554590472784638,6.412507912200689,-0.401350200176239,0.0539527758955955,1.0990983247756958
1.3353637695312521,-0.1463050252709537,4.931099142110347,6.622775048968196,-0.2218239903450012,0.1913917660713195,1.089420199394226
1.345328857421876,-0.1792345773831009,4.977957339397072,6.640730976897478,0.0378326252102851,0.2301466166973114,0.9913737177848816
1.355294677734376,-0.0198421800673007,5.021671977961063,6.684342155086994,0.3385976254940033,0.1651111394166946,0.8448846340179443
1.3652595214843757,0.2654114432971924,4.892427758410573,6.748676387831568,0.6499506831169128,0.0382117852568626,0.6867298483848572
1.3752246093749996,0.6594799539066851,4.71596702965498,6.982948085042834,0.964612603187561,-0.0976962372660636,0.5349817872047424
1.3851904296874995,1.1356234480693936,4.431436094541848,7.258451371830701,1.2291361093521118,-0.2293373495340347,0.4132370054721832
1.395155517578127,1.476595816850662,4.284150314605236,7.578045729279518,1.4130644798278809,-0.3384333848953247,0.3083215951919555
1.4051206054687526,1.690609446670115,4.157523584076762,7.868620328471064,1.513330340385437,-0.4334059655666351,0.2263668179512024
1.4150866699218767,1.8365869204871357,3.915799817293882,7.885762601929903,1.5199865102767944,-0.5307859778404236,0.16416035592556
1.4250515136718764,1.866752341648191,3.6887329368948936,7.926213854783773,1.4386624097824097,-0.571702778339386,0.1173015013337135
1.4350175781250005,1.659495054221153,3.4883775378108024,7.985393188983202,1.2760599851608276,-0.5354037880897522,0.0653268247842788
1.4449826660156262,1.361283822671324,3.3790631766110657,7.871550536704063,1.0383089780807495,-0.4338539540767669,0.0012607593089342
1.4549477539062519,0.9504876838184892,3.212862560585141,7.519526904815435,0.806891918182373,-0.28354012966156,-0.0667435452342033
1.464913818359376,0.5251297164540738,3.070938892203569,6.966072938087582,0.6232044100761414,-0.132721334695816,-0.1572311073541641
1.4748786621093757,0.2820435752768069,2.8554765248805283,5.995777122601867,0.5151379704475403,-0.0780255943536758,-0.2690181732177734
1.4848435058593772,0.1071362865082919,2.612671392601728,5.014107680186629,0.498643696308136,-0.0769557952880859,-0.3996984362602234
1.4948098144531254,0.0062153673835098,2.2932401167601344,4.303009913375973,0.5516459941864014,-0.0755621865391731,-0.5290145874023438
1.504774658203127,-0.0252387784138321,1.7729197733491655,3.523130871284008,0.6604616641998291,-0.0763110667467117,-0.6616445779800415
1.5147395019531267,0.0531303363587707,1.1750649393588304,2.7980226992994544,0.8115735650062561,-0.0605835244059562,-0.7947841286659241
1.5247055664062508,0.4505219269763678,0.3399655298262834,2.066495892444253,0.9449670314788818,-0.0670470148324966,-0.8785679936408997
1.5346706542968764,0.6653799717307091,-0.4342869045555591,1.1784200950056314,1.0327696800231934,-0.1948131024837494,-0.9301299452781676
1.5446364746093764,0.3283719034705311,-0.5806377417296171,0.4801549217611551,1.0014500617980957,-0.4159785211086273,-0.9865386486053468
1.554601562500002,-0.4949433986354619,-0.3599859890699386,-0.0973152958482503,0.779550313949585,-0.6994373202323914,-1.081294298171997
1.564566650390626,-1.217103607534617,-0.5162941566348076,-0.8228004844516515,0.4484565556049347,-0.8972889184951782,-1.1993093490600586
1.5745327148437518,-1.6852166477158663,-1.468345290377736,-1.643160005491972,0.1527920216321945,-0.8531167507171631,-1.293875813484192
1.5844975585937515,-2.101371098731458,-2.240925992155075,-2.909612604215741,-0.0683558136224746,-0.6300027370452881,-1.371137022972107
1.5944628906249996,-2.4115654674112794,-2.987853197237849,-4.845374915334582,-0.1473745703697204,-0.2843723595142364,-1.3599377870559692
1.6044287109374995,-2.736741424384713,-3.95739439496398,-6.386071156173944,-0.0688012018799781,0.1108431369066238,-1.27326500415802
1.614393554687501,-2.5237448626533148,-4.6394805868238205,-7.8496297967970365,0.0031139929778873,0.3840572834014892,-1.1569117307662964
1.6243586425781267,-1.202301905852556,-5.697679142168164,-9.104280314046145,-0.0403149724006652,0.506393551826477,-0.932253360748291
1.6343244628906266,0.5513261609189212,-7.505377383431791,-9.742961663943529,-0.2261826992034912,0.4311605989933014,-0.5680447816848755
1.6442895507812505,1.7564860865510998,-8.54594208240807,-10.226152007877824,-0.602611243724823,0.1638063788414001,-0.164982795715332
1.6542556152343764,1.5603510816410182,-8.315557455763221,-10.439209067624809,-1.1039390563964844,-0.1380995362997055,0.2472060918807983
1.664220703125002,0.7853826079443097,-8.164104911535977,-10.455343040823935,-1.5369596481323242,-0.3047931790351867,0.6662049293518066
1.674185546875,0.1084373957021161,-8.326101061609387,-10.482021788913013,-1.8010989427566528,-0.3300839364528656,1.0355942249298096
1.6841516113281259,-0.6657185560353099,-7.961720636972784,-10.675134961783886,-1.876887917518616,-0.3132317066192627,1.2942723035812378
1.6941166992187515,-1.656131130746007,-7.2070111074507235,-10.66826332244873,-1.7167282104492188,-0.2095801085233688,1.4508535861968994
1.704081542968753,-2.4082290164649485,-6.408110554024577,-9.8634959228158,-1.3975979089736938,-0.0697260648012161,1.5350837707519531
1.7140476074218771,-2.6189462350875137,-5.460829118901491,-8.760354648417234,-1.1027452945709229,-0.0277122631669044,1.5110161304473877
1.724012695312501,-2.371211245191097,-4.4622681629180905,-7.21757400251925,-0.9126840829849244,-0.1010021939873695,1.328833818435669
1.7339777832031267,-1.8970853744611145,-3.5634769101977346,-5.485967651811242,-0.775178074836731,-0.2334679365158081,1.0586105585098269
1.7439436035156266,-1.1277670354805889,-2.865883937126398,-3.730398826235533,-0.6546127796173096,-0.4158287048339844,0.8046517372131348
1.7539089355468764,-0.1200891454532742,-2.2479636357069013,-2.084690305304527,-0.5915973782539368,-0.635069727897644,0.6137679219245911
1.7638747558593764,0.7998742207638919,-1.599007560032606,-0.3715852414488792,-0.5900042653083801,-0.8157713413238525,0.5127579569816589
1.773839355468752,1.5237788621775803,-0.995517935025692,1.1476987935274838,-0.6224438548088074,-0.9319655299186708,0.4972656667232513
1.7838046875,1.884584789328277,-0.4123515516012906,2.547543379130959,-0.6544723510742188,-0.9487290382385254,0.5375488996505737
1.7937705078125,1.95369208169356,0.24079086984694,3.735022394382953,-0.7099343538284302,-0.8946196436882019,0.6063968539237976
1.8037355957031256,1.6205083209618925,1.0973869486555456,4.66180523135662,-0.7897471189498901,-0.7671815156936646,0.6546160578727722
1.813700439453127,0.9997734005130828,2.035212280908227,5.474896222698688,-0.8732216358184814,-0.5217435359954834,0.6492523550987244
1.8236667480468771,0.3895889540426432,2.806834074525535,6.121746850526333,-0.927198052406311,-0.1916628181934356,0.6124895811080933
1.8336315917968768,-0.2130442002654075,3.4844325995773078,6.471316659522056,-0.9366649389266968,0.137641966342926,0.5232970118522644
1.8435966796875007,-0.5871903782434761,4.011397787830234,6.508930643123388,-0.8834911584854126,0.4061240255832672,0.3759432435035705
1.8535627441406266,-0.5068861306898296,4.176208703063428,6.321253523826599,-0.7225090265274048,0.5850520133972168,0.199297159910202
1.8635275878906263,-0.0913487886592745,4.124194730448723,6.127452953213453,-0.4531619846820831,0.6668057441711426,0.0393429100513458
1.873492675781252,0.5040783797927201,4.012065311828255,5.961729307049512,-0.1093995124101638,0.6466566324234009,-0.0699929520487785
1.883458740234376,1.1697243089832363,3.951142348831892,5.960003798431158,0.2760246098041534,0.5554859638214111,-0.1596892923116684
1.893423828125,1.732313768325001,3.967405209107697,6.044940674221516,0.667799174785614,0.4001358151435852,-0.236130028963089
1.9033896484375,2.175504840956628,3.925235461898148,6.097630646401643,1.0241072177886963,0.1845345646142959,-0.2876304984092712
1.9133547363281256,2.5155565877616404,3.7873990628302097,6.2820958179146045,1.3095251321792605,-0.0528006888926029,-0.3149304389953613
1.923319580078127,2.682333834631741,3.727300275698304,6.466713549640774,1.4877521991729736,-0.2805203795433044,-0.3474074304103851
1.933285400390627,2.594601482903957,3.635047816197574,6.561338291230798,1.5650627613067627,-0.4584556818008423,-0.3720239698886871
1.9432507324218768,2.3719277228973805,3.405400563916564,6.716752724826336,1.5314528942108154,-0.5615541338920593,-0.3771785199642181
1.9532155761718766,2.0710046020403503,3.114341980600357,6.72073507246077,1.350582480430603,-0.5995970368385315,-0.3635911643505096
1.9631816406250007,1.6283903063833711,2.700157368353009,6.488497511425614,1.0379343032836914,-0.5927484631538391,-0.3551859557628631
1.9731464843750022,1.0258749332360924,2.4121897367894647,6.0571630269348615,0.6612239480018616,-0.5280467867851257,-0.3916953802108764
1.9831083984374995,0.5881551316224038,1.959470518964529,5.333153756102919,0.2858524620532989,-0.4704660177230835,-0.4083092808723449
1.9930742187499995,0.2436677404575049,1.325263684132695,4.398630095744132,-0.1016487404704094,-0.3818845152854919,-0.4071567356586456
2.003039306640627,-0.3728419635117054,1.0959084005355837,3.710592886525392,-0.4510591924190521,-0.1657439619302749,-0.4220288693904876
2.013004394531251,-0.8678425722271204,0.7185878303050994,2.937640428826213,-0.7101999521255493,0.1264517456293106,-0.4578796625137329
2.0229702148437507,-1.220111118787527,0.2166974620759487,1.700450749465823,-0.8700196743011475,0.3622919619083404,-0.5316681861877441
2.0329355468750006,-1.6578706678897142,-0.0183247612416744,0.4752805937230587,-0.937158226966858,0.5241689085960388,-0.6766213178634644
2.042900390625002,-2.192064346091449,-0.0222656078219413,-0.5424766456395387,-0.9092298746109008,0.6458660364151001,-0.9047245383262634
2.052866455078126,-2.6122078667432067,-0.0182791685342788,-1.708003941324353,-0.8178060054779053,0.7034968733787537,-1.1747205257415771
2.062831542968752,-2.914782700330018,0.0115782095909118,-2.788454075965285,-0.6680415272712708,0.717058002948761,-1.405970573425293
2.0727973632812517,-2.8668706100761887,0.1354436587125063,-3.616058745828271,-0.5050548315048218,0.682013750076294,-1.5733191967010498
2.0827624511718756,-2.4448463902443645,0.2882598925083875,-4.424364256459475,-0.3201888799667358,0.6531515121459961,-1.6733940839767456
2.092727294921877,-1.8933572938486931,0.0710047965496778,-5.025421685883402,-0.0709474608302116,0.6711253523826599,-1.6691277027130127
2.1026933593749995,-1.3052479010641571,-0.3969879782527685,-5.623494546538591,0.2164691239595413,0.7137066125869751,-1.5816094875335691
2.112658203125001,-0.6003079262308776,-0.9090046036988496,-6.274881064230203,0.5176193714141846,0.7032054662704468,-1.4483649730682373
2.1226232910156266,0.327077077887021,-1.7170166843414305,-6.9815575074672696,0.7812256813049316,0.5537084341049194,-1.3283296823501587
2.1325893554687507,1.375695648252964,-2.521086749359965,-7.541509019520879,0.9604202508926392,0.3112440109252929,-1.231180191040039
2.1425544433593764,2.5439570450767874,-3.5256419773221013,-7.702256630837917,1.0512521266937256,0.0019540805369615,-1.126358151435852
2.152519287109376,3.725157710711658,-4.906562666746973,-8.22329827426076,1.0854532718658447,-0.4995446503162384,-1.000408411026001
2.162485351562502,4.384259625086188,-5.870453875887393,-8.747298767489195,1.0025423765182495,-1.1140140295028689,-0.8419048190116882
2.172450439453126,4.133440113177896,-6.105335813951492,-8.312921846562624,0.6978000402450562,-1.6749032735824585,-0.61018967628479
2.1824155273437515,3.324126010026037,-6.279990954589843,-7.618076126372814,0.1655707061290741,-1.9909714460372925,-0.2997108995914459
2.1923815917968756,2.3803540443286297,-6.6255550350755446,-6.84244714294076,-0.5299838185310364,-1.9206061363220213,0.0806304290890693
2.202346435546877,1.227533962264657,-6.8213874037772415,-6.274835471522808,-1.24124276638031,-1.464064121246338,0.5091705918312073
2.212311279296877,-0.0705476273667067,-6.4282683759123085,-5.58147677502036,-1.8403576612472532,-0.6727956533432007,0.9225808382034302
2.222277587890627,-1.0903230016186831,-5.256662052574754,-5.197806543502211,-2.2435402870178223,0.2129147499799728,1.2466670274734497
2.2322424316406266,-1.5655124099269508,-3.976045903941989,-5.041262813615798,-2.4062535762786865,1.0387039184570312,1.4425389766693115
2.2422072753906264,-1.3906050480931995,-2.434661388577521,-4.773336684083938,-2.354665994644165,1.599532127380371,1.4897915124893188
2.2521730957031263,-0.7332552380830049,-0.8540057700544595,-4.639841821351647,-2.122933864593506,1.7723078727722168,1.3928831815719604
2.262138427734376,0.0334696503382176,0.3483408517226576,-4.229444326427578,-1.7013204097747805,1.6043777465820312,1.2318545579910278
2.272103515625,0.5786441567596048,1.1936220480516553,-3.3374826274663207,-1.144169569015503,1.1945323944091797,1.0531195402145386
2.2820693359375,0.8510572955124079,1.815484365095198,-2.16562729780376,-0.5356391072273254,0.6105863451957703,0.889007568359375
2.2920344238281256,1.005593558033928,2.3109704192399976,-0.6503770483881235,0.0464640483260154,0.0263979732990264,0.740818440914154
2.301999511718753,1.0013394807860254,2.665792741936445,1.0347428609549998,0.5701261758804321,-0.4835821688175201,0.6316391825675964
2.311965332031253,0.84605977948606,2.9563489286884663,2.626628021761775,0.9917184114456176,-0.8366584777832031,0.5771282911300659
2.321930419921877,0.721834703271836,3.172268684390187,4.351214264574646,1.2780649662017822,-0.9738858342170716,0.57293301820755
2.3318955078125008,0.5262335129775106,3.400085506373644,5.825429323768615,1.418171525001526,-0.9044880867004396,0.6062585115432739
2.3418613281250007,0.3017049919497221,3.6370176549658177,7.02517979157269,1.4420961141586304,-0.6544896960258484,0.652046799659729
2.3518261718750004,0.1848080666664987,3.760220840786397,7.841165919834375,1.4059163331985474,-0.3166850805282593,0.6904205083847046
2.361791503906252,0.1629689406283199,3.806238203334808,8.289343987098336,1.352683186531067,0.0298057459294796,0.7115393877029419
2.371757324218752,0.2347643030337989,3.7803970751136537,8.382488134741783,1.3215583562850952,0.2960323095321655,0.6966444849967957
2.3817221679687517,0.3249709359206259,3.768814773869514,8.37585205772817,1.297459840774536,0.4611024856567383,0.6317131519317627
2.3916884765625,0.4314598644360899,3.819138601440191,8.314348664495348,1.2714202404022217,0.535625696182251,0.5213713049888611
2.4016533203124997,0.5938013208158314,3.821499485352635,8.21466313238442,1.2345805168151855,0.5330533385276794,0.3770527243614197
2.411618408203127,0.7314999919135123,3.8058985961169,8.123634369459747,1.1741998195648191,0.4950199723243713,0.2381601333618164
2.421584472656253,0.9269063172228634,3.7237966514915226,7.936689071568846,1.0874558687210083,0.4503166973590851,0.1386537700891494
2.4315493164062527,1.143837368858978,3.578254208090901,7.701013352778554,0.9830995798110962,0.4334165453910827,0.0752821117639541
2.4415144042968766,1.2156359461348505,3.467172252696753,7.370882403746247,0.8679961562156677,0.4445871710777282,0.0325066819787025
2.4514804687500007,1.0107177691798657,3.4141192924231287,6.871682005253434,0.7527783513069153,0.5063425302505493,0.0035314753185957
2.4614455566406264,0.6161459121581166,3.4822008950024843,6.405004404702782,0.6445503830909729,0.6113738417625427,-0.0412221476435661
2.471410156250002,0.2289873270675539,3.484454226887226,5.699274886927008,0.5681262612342834,0.7263538241386414,-0.1157838404178619
2.481376464843752,-0.0357707668874412,3.309367709094286,5.0755917841970914,0.5589343905448914,0.8318224549293518,-0.2119119614362716
2.4913413085937517,-0.0762953772384673,3.0281331851780413,4.244293520513176,0.6210480332374573,0.8690546154975891,-0.3331261873245239
2.5013063964843756,0.0752287709202617,2.651924960103631,3.277007408237457,0.7557470202445984,0.8191512227058411,-0.4674147665500641
2.5112722167968755,0.3421201871095225,2.0738293040722606,2.424175358137488,0.9293777346611024,0.6717852354049683,-0.5579705238342285
2.521237304687501,0.7111364913858473,1.3324024499714373,1.5483610763788225,1.1067527532577517,0.4317015409469604,-0.6283658146858215
2.531202392578127,1.0234731327913702,0.6682733550846577,0.6182037945359945,1.258487343788147,0.116899698972702,-0.7126562595367432
2.5411682128906268,1.0961325646802782,0.1018880105912685,-0.1935889736890792,1.3485077619552612,-0.2375904768705368,-0.7973429560661316
2.5511335449218766,0.9391926750831304,-0.4068552922725677,-1.087471996101737,1.3224884271621704,-0.6048911809921265,-0.8854043483734131
2.5610983886718763,0.6030913098717108,-0.8589432264566421,-1.9116601355195044,1.1688077449798584,-0.9159404039382936,-0.9594767093658448
2.5710644531250004,0.2885302704149857,-1.6211819824397562,-2.842393755945563,0.9110590815544128,-1.0994515419006348,-1.0187443494796753
2.581029296875002,-0.2308747117167338,-2.374762215670943,-3.646059916338325,0.6101709008216858,-1.0307351350784302,-1.0461366176605225
2.5909946289062518,-1.350723411820829,-2.801658425453305,-4.076632184284925,0.3279318809509277,-0.6574139595031738,-1.0358390808105469
2.6009604492187517,-2.427498803471774,-3.0288457173615693,-4.516774829131364,0.1001599580049514,-0.0490675419569015,-0.9821900129318236
2.6109252929687514,-2.64799112778604,-3.673917645078897,-5.331139493671059,-0.043246567249298,0.6134753227233887,-0.8951246738433838
2.620890380859377,-2.014189951145649,-4.551090940231084,-6.35081162674427,-0.074338175356388,1.1247087717056274,-0.8099796772003174
2.630856201171877,-0.6680295363914222,-5.29025803270638,-7.647325601732731,-0.0413692258298397,1.2975879907608032,-0.7538381218910217
2.640821289062501,1.355074300506711,-6.285639774131774,-8.609656137427686,0.0295507535338401,1.147342562675476,-0.6473606824874878
2.6507863769531266,3.277863440544903,-7.399313548460602,-8.705467458453773,0.117277942597866,0.7964345812797546,-0.4246275424957275
2.6607524414062507,4.180632656985521,-7.896732324233651,-8.305254672935604,0.1069291606545448,0.2465852797031402,-0.0957423076033592
2.670717285156252,4.3222155491054055,-8.02374191659987,-7.963211752313375,-0.0977890118956565,-0.497154027223587,0.2502959966659546
2.680682373046876,4.1372614250317215,-8.094560250666737,-7.431155378401279,-0.517156183719635,-1.2491357326507568,0.5642417073249817
2.6906474609375,3.497172838684916,-8.044151667422057,-6.830741507577896,-1.0390751361846924,-1.7948453426361084,0.910136878490448
2.700613525390626,2.110888868661225,-7.594207175007462,-6.009267887815833,-1.4502335786819458,-1.977966070175171,1.279900074005127
2.7105783691406256,0.3140145480224862,-6.518664101630449,-4.949299400189519,-1.7532353401184082,-1.755200743675232,1.542069911956787
2.720543701171877,-1.5951083606369791,-4.989221660733223,-3.835872878620029,-1.943082928657532,-1.172899842262268,1.664146065711975
2.730509521484377,-3.203256820110977,-3.4551375315099957,-2.797189755606651,-1.9779305458068848,-0.3750709295272827,1.645763278007507
2.7404741210937527,-3.8803225534603,-2.0676795492708684,-2.138561596223712,-1.861659049987793,0.3652849197387695,1.5168594121932983
2.7504394531250007,-3.4742288932099936,-0.9882540815025568,-1.7937293371438978,-1.6702139377593994,0.8096197843551636,1.3216230869293213
2.7604052734375006,-2.3519632316246626,-0.1089157172709703,-1.0829039575338364,-1.4463489055633545,0.9797022938728333,1.118042230606079
2.7703703613281263,-1.1753951942265033,0.5750087959319353,-0.2027086842119693,-1.1779537200927734,0.8812915086746216,0.944481611251831
2.780335205078126,-0.4298500911518931,1.2022481298387049,0.754717712828517,-0.9050010442733764,0.5985245108604431,0.7771162986755371
2.790301513671876,-0.1184934006944298,2.153716495257616,1.8612942223727704,-0.6666585206985474,0.2371724843978881,0.6905673742294312
2.800266357421876,0.0365806950308382,2.864972082978487,2.948708935329318,-0.4597519338130951,-0.07651087641716,0.6556118130683899
2.8102314453124997,0.1179295562665909,3.576264495578408,4.029485817706584,-0.2923368215560913,-0.2669301927089691,0.6683846116065979
2.8201975097656256,0.0787073337510228,4.050983948287367,5.055144623973965,-0.1728032380342483,-0.2688639163970947,0.7030089497566223
2.830162353515627,0.1231997517544776,4.381362150079012,5.963983223456144,-0.1006889417767524,-0.1098615899682045,0.7252680063247681
2.8401274414062527,0.2265736169893294,4.486778334796428,6.55174804058671,-0.0538426041603088,0.1293315589427948,0.7747130393981934
2.850093505859377,0.4975543848514556,4.490734963467717,6.933806160733103,-0.0292609855532646,0.3750239610671997,0.8252224326133728
2.8600583496093765,0.7314821639958768,4.510918504318595,6.989947734671831,0.0065428186208009,0.5399921536445618,0.8501011729240417
2.8700231933593763,0.874441532100737,4.530831411534548,6.901244199824332,0.0676675736904144,0.6249024868011475,0.8133102059364319
2.8799895019531263,0.9464943763986228,4.50477167212665,6.869191357481479,0.1680011004209518,0.6517514586448669,0.7291516661643982
2.889954345703128,0.9953894132751973,4.344633717140555,6.856422476801276,0.282281756401062,0.6215180158615112,0.6133397221565247
2.8999194335937517,1.1291451189007609,4.262218468782305,6.8633174970120185,0.3793185651302337,0.5706771612167358,0.4688299894332886
2.909885498046876,1.3246180797055362,4.153277032548189,6.949008990561961,0.4396644532680511,0.5199335813522339,0.3111378252506256
2.9198503417968773,1.3965806153714655,4.0104964550763365,7.024058678588271,0.4522857069969177,0.4676296412944793,0.177525445818901
2.929815429687501,1.429212134385109,3.935229324907064,6.994428094956279,0.4231058359146118,0.4389698803424835,0.0581717193126678
2.939781250000003,1.478436037889868,3.867172272247076,6.861806507927179,0.3804433345794678,0.4050406515598297,-0.0417127981781959
2.9497465820312527,1.4852005635887384,3.7823984780639406,6.482770365950465,0.3378243744373321,0.3736279904842376,-0.1267661601305008
2.9597114257812507,1.4153221407204866,3.6129029121458527,6.124222300729155,0.3124263286590576,0.3728975057601928,-0.1911621987819671
2.9696774902343748,1.3316706285655495,3.253150147309899,5.561667328178882,0.3412469327449798,0.3466066718101501,-0.2194387018680572
2.979641601562502,1.2482318823784588,2.946808070144057,4.8232040000587695,0.4290348589420318,0.2701167166233063,-0.246414914727211
2.9896066894531277,1.1177280912209302,2.599033327871561,3.9869554204910993,0.5858849883079529,0.1445039510726928,-0.2998796105384826
2.9995727539062518,0.976790949658677,2.243148928901553,3.148231975242495,0.7798333764076233,-0.0119964312762022,-0.3817987143993377
3.009537841796879,0.8769357600692659,1.6553221524506807,2.144484556531906,1.0189032554626465,-0.2368409186601638,-0.4733708202838897
3.019502685546877,1.0095744443636387,0.9587573533833026,1.0602619176149368,1.3453117609024048,-0.5563470125198364,-0.5874329805374146
3.029468750000005,1.1686172975894062,-0.1872773063242435,-0.2829945193260908,1.5604324340820312,-0.98287034034729,-0.7228226065635681
3.0394338378906287,0.6973846640828997,-0.8534785313099622,-0.9283546163350344,1.5104060173034668,-1.2479333877563477,-0.9521636366844176
3.0493989257812526,-0.3726882342547178,-0.8957938244700431,-0.5483943452507257,1.0896127223968506,-1.1925837993621826,-1.2272554636001587
3.0593647460937543,-1.4188202119693158,-1.592746746072173,-1.475780993336439,0.8332070708274841,-1.2346405982971191,-1.1683838367462158
3.069329833984378,-1.740471501947939,-3.0782886704444885,-2.8457430663734677,0.5546167492866516,-0.889333188533783,-1.1347508430480957
3.079294921875002,-1.948393975285441,-3.031281420075893,-2.7427099774003025,0.2091131210327148,-0.3199251294136047,-1.1676557064056396
3.0892595214843777,-2.734378494645655,-3.492939731159806,-3.835938345071673,-0.0679515078663826,0.2422528266906738,-1.0863415002822876
3.0992260742187536,-2.9839956450268623,-3.6748552181899545,-4.783120411473512,-0.2094026505947113,0.7369637489318848,-0.990997850894928
3.109190673828129,-2.511905664038658,-4.301218938305974,-6.105844932517409,-0.2420116961002349,0.9972293972969056,-0.964303493499756
3.119155761718753,-1.428066763742268,-4.950954766181111,-7.466113879057764,-0.2137092053890228,0.99785715341568,-0.9954790472984314
3.129121826171877,0.078536909087561,-5.843084222924709,-8.398703356483578,-0.1195253357291221,0.8681455254554749,-0.9810296297073364
3.1390866699218787,1.9405292332597075,-7.063720242369175,-8.792869263052939,0.0172551460564136,0.6326203346252441,-0.8363509774208069
3.1490517578125026,3.3295585564687844,-7.916143127146363,-8.92825037792325,0.0854114815592765,0.2276251167058944,-0.5712270140647888
3.1590175781250043,3.938961204911768,-8.28860690499544,-8.867100035911799,-0.0202294550836086,-0.336991935968399,-0.2358487397432327
3.168982910156254,3.846042390456796,-8.41341635696888,-8.60940771562457,-0.346768319606781,-0.9736486673355104,0.1211372911930084
3.178947753906252,3.2858769433915613,-8.36891436741948,-8.300277469044923,-0.8123496174812317,-1.4630095958709717,0.4619089961051941
3.1889138183593797,2.2275135528743264,-8.017784469500183,-7.912850515341758,-1.239500880241394,-1.7137051820755005,0.7901982069015503
3.1988789062500036,0.6744912066861987,-7.146822303947806,-7.598620315274596,-1.555767297744751,-1.6607221364974976,1.0448219776153564
3.2088439941406275,-1.2552525747954846,-5.648012901723384,-7.04576840609312,-1.7082931995391846,-1.2358815670013428,1.1770989894866943
3.218808593750003,-3.090723789125681,-4.213924685734511,-6.288251417934895,-1.6092321872711182,-0.5735730528831482,1.1959320306777954
3.228774658203127,-3.999400768305361,-2.9031062910616394,-5.708060250928997,-1.3225080966949463,0.0805237889289856,1.117776870727539
3.2387397460937546,-3.734729256655275,-1.6575865902513265,-5.040388368868827,-0.96949702501297,0.5232067108154297,0.973592221736908
3.2487048339843785,-2.618936005954444,-0.7301654553741216,-4.128943386280536,-0.6343006491661072,0.6809784173965454,0.7983145117759705
3.2586706542968766,-1.262965925651789,0.026854104655981,-2.7021529260843997,-0.3053800463676452,0.6506213545799255,0.6468222141265869
3.268635742187504,-0.2297454519584774,0.7555465648680925,-1.2971961120337248,-0.002681431826204,0.4580656588077545,0.5278787016868591
3.278600830078128,0.5400388240333647,1.446049287417531,0.0989092870414257,0.2523029446601867,0.1702429056167602,0.4465497732162475
3.2885666503906297,1.1919408900316804,2.0036118585079907,1.5313351227760317,0.4235001504421234,-0.136610522866249,0.41009521484375
3.2985319824218795,1.5267968948245048,2.5582950747698545,2.9152795439362524,0.5156996250152588,-0.3849002122879028,0.4273367822170257
3.3084968261718775,1.5634103230811656,3.094840576794744,4.159857579982281,0.5205816030502319,-0.5537061095237732,0.4928905069828033
3.3184628906250015,1.3460191796526313,3.556145252135396,5.201260483348369,0.4618367850780487,-0.5899573564529419,0.5881067514419556
3.328427734375003,0.9273007233679296,4.0503661086499685,6.137277597135305,0.3721879422664642,-0.4844986498355865,0.6718357801437378
3.338392822265627,0.4951518537543714,4.455645529907941,6.751389153921604,0.2842605113983154,-0.2866609394550323,0.70611172914505
3.3483586425781287,0.1327061965726315,4.721838552036881,7.048886245852708,0.2073224335908889,-0.0625225380063057,0.6890966296195984
3.3583234863281266,-0.0334912045828998,4.891483171036839,7.194583003032207,0.1579208076000213,0.1729632169008255,0.627856433391571
3.3682888183593764,-0.004006020770967,5.001874221557379,7.30737234686613,0.1579348146915435,0.3668619096279144,0.5487186312675476
3.378253662109378,0.1983867293596267,5.021617617425322,7.295422965875267,0.2090866863727569,0.499521940946579,0.4524336457252502
3.388219726562502,0.5187887499295175,4.984404615840315,7.284729137903452,0.2996054887771606,0.55172199010849,0.3476366102695465
3.3981848144531295,0.862083131917566,4.9486973426431415,7.295832131198048,0.4158170521259308,0.523246705532074,0.2417391985654831
3.4081499023437534,1.1951989419795572,4.871499536672235,7.209601123943925,0.5528565645217896,0.4026675820350647,0.1386163532733917
3.4181157226562515,1.5298301250405608,4.677227841416001,7.223514498484135,0.6993719339370728,0.2277881652116775,0.0429843626916408
3.428080810546879,1.7845804005265236,4.506946678078174,7.266862057301402,0.8067203760147095,0.0161757711321115,-0.0438768342137336
3.438045898437503,1.952533559308201,4.324225719884038,7.32449416205883,0.8540759086608887,-0.208890900015831,-0.1108228489756584
3.4480117187500046,1.859751961366832,4.190346241748332,7.404599964430928,0.8121538162231445,-0.3906204998493194,-0.18063585460186
3.4579765625000025,1.6571465913988648,4.0429011795967815,7.290653851777314,0.7011537551879883,-0.5146508812904358,-0.2576837539672851
3.4679416503906264,1.360643040549755,3.780978674393892,7.010164593270421,0.5740312933921814,-0.5583808422088623,-0.340615838766098
3.477907714843754,0.9941758727669716,3.3464281504660844,6.4759899120301005,0.4578171372413635,-0.5534870624542236,-0.4069157540798187
3.487872558593752,0.6645571110405027,2.692928586143255,5.7057753548622125,0.3344075977802276,-0.5438825488090515,-0.4474974274635315
3.497837890625002,0.5525042647875845,1.991102505546808,4.790860650336742,0.2201529145240783,-0.5240206718444824,-0.4877937138080597
3.5078027343750033,0.4926581372424959,1.2053636315107346,3.7515719626456496,0.1282071769237518,-0.480713814496994,-0.5317781567573547
3.5177687988281274,0.3784548349574208,0.4303104021400213,2.6392718147575853,0.1016365513205528,-0.4277459383010864,-0.6059005856513977
3.527733642578129,0.4090909423701465,-0.3815916716784238,1.3162515256375074,0.1263043284416198,-0.4563994407653808,-0.6880319714546204
3.5376989746093788,0.3538261512659489,-1.087661965715885,-0.1352273856133222,0.1786314249038696,-0.5506654977798462,-0.8124151825904846
3.547664794921877,0.1875451634801924,-1.6906547471165656,-1.3605956942766904,0.2094661742448806,-0.6845249533653259,-0.9539180994033812
3.5576298828125044,-0.0764808898732066,-2.400296469900012,-2.409218612024188,0.1207352429628372,-0.7995879054069519,-1.0999940633773804
3.5675949707031283,-0.4521804347731172,-3.186169199448824,-3.198626529961824,-0.1372120082378387,-0.8346825838088989,-1.184382081031799
3.5775607910156264,-1.1240719803549348,-3.9364205805182455,-3.992134868955612,-0.5508304834365845,-0.6498264074325562,-1.2211952209472656
3.587525634765628,-1.9455007380619644,-4.441920371416211,-4.449598650959134,-0.9812617897987366,-0.0857405960559845,-1.2156368494033811
3.5974904785156294,-2.5046722056537867,-4.923686820027232,-5.101944953593612,-1.3837761878967283,0.6960345506668091,-1.1119695901870728
3.6074567871093794,-2.37879775479734,-5.413897271856666,-6.7575850859522815,-1.6263258457183838,1.453067183494568,-0.9845609664916992
3.6174216308593774,-1.482911283607781,-5.882239006227255,-9.128754245567322,-1.5773791074752808,1.898820638656616,-0.910593569278717
3.627386718750005,-0.0762629362735897,-6.114530343276262,-11.589570358359811,-1.238212823867798,1.9231559038162231,-0.8821232318878174
3.6373518066406287,1.578384750981629,-6.717556442424654,-13.505633112752436,-0.7333651185035706,1.4978879690170288,-0.7970594167709351
3.647317871093753,2.745476519504189,-7.518713250344991,-14.757901118779182,-0.3176949620246887,0.7117542028427124,-0.6072139143943787
3.6572827148437543,2.393059212122857,-7.342588037154078,-14.583821147680284,-0.1419220864772796,-0.0048699509352445,-0.3978958427906036
3.667248046875004,1.1110952290777116,-6.72159315059483,-13.045677513933182,-0.1962945014238357,-0.4299663007259369,-0.1866543292999267
3.6772138671875023,-0.2243644530398771,-6.16860154068172,-11.44095216077566,-0.3895201683044433,-0.5371050238609314,0.0174367539584636
3.687178710937504,-0.9933937824785708,-5.413455373308063,-9.655311437541243,-0.6231992244720459,-0.3128279447555542,0.2804803848266601
3.6971435546875018,-1.077794067174196,-4.77672866460979,-7.834831456115841,-0.8087203502655029,0.1070366948843002,0.6116135716438293
3.7071096191406294,-0.7898632604897021,-4.063072445487975,-6.327207463794946,-0.8735417127609253,0.5904773473739624,0.927883505821228
3.7170747070312533,-0.5308281107587739,-3.11418766682148,-4.882369890254736,-0.7749118208885193,1.064299464225769,1.1853175163269043
3.727039550781255,-0.2396832008659839,-2.14682732026577,-3.6271219916343687,-0.5493917465209961,1.3252060413360596,1.3669925928115845
3.7370048828125046,0.1424951115939766,-1.1508674866914748,-2.5926947724997995,-0.239413633942604,1.2780829668045044,1.4537701606750488
3.746970703125003,0.4712325239086523,0.1284668054372072,-1.3985890325844288,0.1065752059221267,0.909193992614746,1.4172793626785278
3.7569357910156267,0.4531596550688147,1.5398744030624627,-0.5820359180897474,0.4829661548137665,0.2164394706487655,1.321943759918213
3.766900878906254,0.2593305524809285,2.7385277232795957,0.1824561697781085,0.831447184085846,-0.6037935614585876,1.208661675453186
3.7768666992187523,-0.1366044461201876,3.8388855044394727,1.3903069419294596,1.1112921237945557,-1.2790358066558838,1.0705173015594482
3.7868317871093797,-0.6481686516236513,4.516846140801906,2.855674093279242,1.3209625482559204,-1.672049045562744,0.9232800006866456
3.7967968750000036,-1.0572484150126575,4.75218459046185,4.243087067332864,1.4163546562194824,-1.82088041305542,0.7734819650650024
3.8067629394531277,-1.4031396816261112,4.789025251603126,5.588087133070826,1.3518245220184326,-1.725657939910889,0.6383681297302246
3.8167275390625033,-1.561974006667733,4.919909639576077,6.832806623414158,1.1088268756866455,-1.3832957744598389,0.5133404731750488
3.826692626953127,-1.571505366731435,4.840079147014022,7.892447778782248,0.746924102306366,-0.8560563325881958,0.4117578864097595
3.8366577148437546,-1.3291596686579286,4.768301612526178,8.445263447606562,0.3327250182628631,-0.3029427528381347,0.3321290910243988
3.8466237792968787,-0.8273214690074324,4.6303386644691225,8.256259463620186,-0.0418147630989551,0.1098973453044891,0.2732639014720917
3.8565886230468767,-0.345593014319241,4.627843340522051,7.855688366183638,-0.3014034628868103,0.3517152965068817,0.2096167206764221
3.866553710937504,-0.0117404144152998,4.896248193481564,7.248128130736947,-0.4384966194629669,0.4325989782810211,0.1229307726025581
3.876519775390628,0.2519061381012201,5.003279996702075,6.759857122537493,-0.4598421454429626,0.4150998890399933,0.0182182118296623
3.886484863281252,0.5423915977045893,4.94759902601242,6.384741953396797,-0.3790915906429291,0.3291551768779754,-0.0689152181148529
3.8964497070312536,0.7987833567872643,4.7305227937519545,6.063801442036032,-0.2133292853832245,0.2061938494443893,-0.1200894638895988
3.9064157714843777,1.0189512714527549,4.487243614220619,5.852311485475301,-0.0220676977187395,0.0505468063056468,-0.1729381829500198
3.9163808593750016,1.0868740302085875,4.261711103782058,5.606069949007034,0.1617031991481781,-0.1315878480672836,-0.2313287854194641
3.926345458984377,0.9619076341077684,3.9712008019983767,5.481452220213413,0.2929388284683227,-0.2495713531970977,-0.2775787115097046
3.936310791015627,0.7187215396873653,3.6546167322814473,5.488976185977458,0.347690224647522,-0.2785132527351379,-0.3197474777698517
3.9462766113281287,0.4200402064077556,3.424084221598506,5.406180413869023,0.3601467907428741,-0.2412820011377334,-0.3761801421642303
3.9562416992187526,0.1412548292092978,3.0007635322153567,4.996809923905134,0.3612951636314392,-0.200502336025238,-0.4328623414039612
3.966206542968754,0.0005234393522143,2.623316705256701,4.521287338119745,0.3497183918952942,-0.1311140805482864,-0.516727089881897
3.976172851562504,-0.1087162491761147,2.3629689020246265,3.845364929586649,0.361575573682785,-0.0356562659144401,-0.6133771538734436
3.9861386718750023,-0.1507603241793811,1.8944927276194092,2.7279735960394143,0.4659134149551391,0.020130667835474,-0.6682963371276855
3.9961037597656297,-0.0534003124065697,1.3283493751883506,1.7584733148455618,0.6119957566261292,0.0186606030911207,-0.7219645977020264
4.006069824218754,0.1469317788671702,0.8320610647499561,0.9280927505284547,0.731131374835968,-0.0819368362426757,-0.7893882989883423
4.016034667968752,0.2877590303141623,0.3480307628601789,0.2558072371929883,0.796215295791626,-0.2443662285804748,-0.8848990797996521
4.025999755859379,0.2475203972976654,-0.0894067146807909,-0.2111725611746311,0.764986515045166,-0.4022376537322998,-0.9691429734230042
4.035964843750003,0.1005622418802231,-0.6589782879948616,-0.5611427676647901,0.6461378931999207,-0.4651907980442047,-1.0581424236297607
4.045930664062505,-0.2461968936089426,-1.0260714787214993,-1.0497107129842045,0.4677081108093261,-0.3985266387462616,-1.1349430084228516
4.055895751953129,-0.748125621087104,-1.2352204251140355,-1.5326017817109825,0.2574550211429596,-0.1751092672348022,-1.1378066539764404
4.0658610839843785,-1.2509870263054963,-1.3710662348866465,-2.110791545766592,0.0646400228142738,0.1866558343172073,-1.0902491807937622
4.075826904296877,-1.430272749353945,-1.6443436623185872,-2.882742132946849,-0.0305863618850708,0.6264342665672302,-1.0415961742401123
4.085791503906252,-0.9445471878536044,-2.323081128272414,-4.002572676339745,0.0193424690514802,0.9650736451148988,-0.9966647028923036
4.095756835937502,0.0731255150306969,-3.316533362939954,-5.3294642539352175,0.1501817107200622,1.0070743560791016,-0.9569806456565856
4.105721679687504,1.4108989174507558,-4.266749682471156,-6.410815136808156,0.2462187707424163,0.7944282293319702,-0.9381022453308104
4.115687744140628,2.7032763771563766,-5.276651532158255,-7.246102177867293,0.3516189754009247,0.4024713337421417,-0.8841575384140015
4.125652587890629,3.8122704692363736,-6.615617578428983,-7.827509734925627,0.4578203558921814,-0.049804575741291,-0.7729061245918274
4.135617919921879,4.627661554214358,-7.794041180565952,-7.961731742888689,0.5474122762680054,-0.5039571523666382,-0.5637824535369873
4.145583740234377,4.650601992557943,-8.3901553083688,-7.814911534637212,0.5661126375198364,-0.964260995388031,-0.2747482359409332
4.155548828125005,3.9267373908936976,-8.46966489841342,-7.312361241194606,0.4429028034210205,-1.3772523403167725,0.0343169085681438
4.1655139160156285,2.651704595351219,-8.26082282601297,-6.597137334364652,0.1043049916625022,-1.693324089050293,0.2760297954082489
4.175479736328127,1.0746597146712242,-7.689322914984822,-5.954442657172679,-0.4276462495326996,-1.820204257965088,0.4424930810928345
4.185444824218754,-0.5733293914776295,-6.874571881476045,-5.160168594503403,-1.0025850534439087,-1.5662939548492432,0.5528706312179565
4.195409667968752,-1.931911919301003,-5.963690962511301,-4.227527094629407,-1.4771405458450315,-0.9709322452545166,0.6588186025619507
4.2053747558593795,-2.772512702728808,-4.869124624234438,-3.8879122779369353,-1.726340413093567,-0.2913240492343902,0.7316914796829224
4.215340576171878,-2.849916552665829,-3.7067256897032257,-3.800318750157952,-1.7213757038116455,0.2353996783494949,0.7736948728561401
4.2253056640625015,-2.349434736060351,-2.575276604709029,-3.601747896403074,-1.520930528640747,0.5318477153778076,0.7409472465515137
4.235270751953129,-1.5095330408126115,-1.4420996730089186,-2.894237340429425,-1.2168776988983154,0.6207535862922668,0.6540869474411011
4.245236816406253,-0.6231618553347885,-0.5142939227283001,-2.011604026305676,-0.8824397325515747,0.4825474321842193,0.5445144772529602
4.255201660156255,0.120410705557838,0.307192556515336,-0.9255424815237522,-0.5778489112854004,0.1932999193668365,0.4318931698799133
4.265166992187504,0.5740528834465891,1.0709154135763643,0.2159066039592027,-0.3171630799770355,-0.1663036942481994,0.33623006939888
4.275131835937502,0.8012753197334707,1.65440971378088,1.4929624297618864,-0.1016513109207153,-0.4579211473464966,0.260499894618988
4.285097656250004,0.8893331040233373,2.128483269801736,2.8696523497492072,0.040670771151781,-0.6093971133232117,0.2043477296829223
4.295062988281254,0.8031897750526666,2.705065014138817,4.22056426987946,0.0743688195943832,-0.6222394108772278,0.1568995416164398
4.305027832031252,0.732225602774322,3.231691179695725,5.2591304885149,0.0086858328431844,-0.5308961868286133,0.1171832457184791
4.3149936523437535,0.8586483351632952,3.5801720244109627,5.986531155350804,-0.1160992458462715,-0.370615154504776,0.0922954753041267
4.3249584960937515,1.0497706264778972,3.799490482640266,6.4024903760552405,-0.2541737854480743,-0.2002978324890136,0.0933161526918411
4.334923828125001,1.237644583521038,4.033698466965556,6.489910300832986,-0.3830726146697998,-0.0788877680897712,0.0955747738480568
4.344889648437503,1.3372000595115123,4.276399554347992,6.421833958950638,-0.4814860224723816,0.0179549753665924,0.0879311859607696
4.354854736328127,1.2779402074217796,4.499217545130849,6.321479733797908,-0.529560387134552,0.0983155965805053,0.0652967169880867
4.364819824218754,1.2018452481262385,4.605844274681807,6.108392863434553,-0.4996538460254669,0.1584903299808502,0.040394403040409
4.374784912109378,1.1070615165822206,4.625604621684551,5.844933065661787,-0.4248640239238739,0.1928206086158752,0.0084415301680564
4.384750732421876,0.9525263500392436,4.6118063979566095,5.591323630774021,-0.3130365312099457,0.2211048305034637,-0.0421206355094909
4.394715820312504,0.8305906999364495,4.567685516679287,5.396738631784916,-0.1623002886772155,0.2586309015750885,-0.1079153642058372
4.404680908203128,0.7468440568439662,4.406334678772091,5.189160295709967,0.0101199597120285,0.2958025336265564,-0.1610119789838791
4.4146467285156294,0.7200818682551383,4.341056443175673,4.966939101776481,0.1804062128067016,0.2875288724899292,-0.2117222994565963
4.424611572265627,0.7593231607973575,4.206572569406032,4.750688214424252,0.3544319272041321,0.2083998173475265,-0.259918749332428
4.434576660156255,0.7989188197351992,4.055042868289351,4.635222929379344,0.4922435879707336,0.0740214958786964,-0.2930695116519928
4.444542724609379,0.6933996860999614,3.8270769932240247,4.615570134404301,0.5647133588790894,-0.0218350477516651,-0.3040821254253387
4.454507568359377,0.4914183663144707,3.55729383764863,4.748723051831126,0.5799729824066162,-0.041300892829895,-0.3218693733215332
4.464472900390627,0.2219089131139218,3.169938195616006,4.585089071422815,0.5783094763755798,-0.029133865609765,-0.3421906232833862
4.474437744140628,-0.0514493244692683,2.6784265980601307,4.241308951744437,0.5552949905395508,0.0414614789187908,-0.3597962558269501
4.484403808593752,-0.2244603511624038,2.2260680302411315,3.948901876428723,0.5202465653419495,0.1546427011489868,-0.4015184938907623
4.494368652343754,-0.2848239997755736,1.7262462849795817,3.3370015659511085,0.4804096519947052,0.2235890179872512,-0.4564486145973205
4.504333984375004,-0.2510658878847956,1.1355343084812164,2.47885387378633,0.4570676386356354,0.2414505928754806,-0.5265570878982544
4.514299804687502,-0.0933990722525864,0.4566051193475723,1.5278899507582189,0.4461955428123474,0.1828594505786895,-0.5811761617660522
4.524264648437503,-0.1723746284857392,-0.1601800405621528,0.3651730363190174,0.4176340401172638,0.0403487160801887,-0.6135469675064087
4.534229980468753,-0.5294157232102006,-0.4805594109088182,-0.8880670296102762,0.3623465299606323,-0.1080303639173507,-0.6637888550758362
4.544194824218755,-1.0393043967168778,-0.8388187223166227,-1.904206312382221,0.3276351690292358,-0.1748872995376587,-0.7025197744369507
4.554160644531253,-1.572604414014518,-1.0473433993309735,-2.8169582859158515,0.2790727019309997,-0.1448947787284851,-0.7489203214645386
4.564125732421877,-1.9276555770307775,-1.120026942747831,-3.52129956420362,0.233851671218872,0.0517669804394245,-0.7802132964134216
4.574090820312504,-1.8891221404969687,-1.512756679034233,-4.214334435579181,0.2318977117538452,0.3872405886650085,-0.7573633790016174
4.584056640625002,-1.3869383422791957,-2.38771112909317,-5.127472193560004,0.2735626399517059,0.6966802477836609,-0.6694793105125427
4.59402172851563,-0.3056111690754071,-3.3608740244477984,-6.680334673011303,0.2866416871547699,0.8349574208259583,-0.5668424367904663
4.603986816406254,1.0330028854198754,-4.458164819252491,-8.126023310422896,0.3147840797901153,0.8393543362617493,-0.4403823912143707
4.613952636718752,1.906876262243837,-5.629443225809932,-9.269016118216514,0.3939199149608612,0.6905867457389832,-0.3157158493995666
4.623917724609379,2.6496429866462945,-6.611437077873945,-9.883682970798016,0.4830207824707031,0.4225333333015442,-0.1968118846416473
4.633883056640629,3.0889597020626067,-7.459294262170792,-9.8542406032145,0.4942768812179565,0.0673760175704956,-0.0187188405543565
4.643847900390627,2.8420497648134826,-7.689293688890338,-9.310264074406028,0.377346932888031,-0.311133861541748,0.1949489265680313
4.653813720703129,2.319952767118812,-7.610925670096278,-8.587014682030677,0.1141248866915702,-0.6856507658958435,0.3828567862510681
4.663778808593753,1.6070518964089453,-7.466596694138646,-7.842638914996385,-0.2715474367141723,-0.9716451168060304,0.5503910183906555
4.673743652343754,0.4972721703765914,-7.12643008878231,-7.09276805767715,-0.6543017029762268,-1.0910346508026123,0.7495640516281128
4.683709716796878,-0.7002572238445282,-6.660245824706554,-6.258724294677377,-0.921796977519989,-0.9326228499412536,0.9683360457420348
4.69367456054688,-1.9258755617462096,-5.721469767600298,-4.978367089241742,-1.0818302631378174,-0.4795096516609192,1.1052398681640625
4.7036398925781295,-2.60573136420548,-4.714730765858293,-3.8044367068707934,-1.1548941135406494,0.0525536239147186,1.121355056762695
4.7136047363281275,-2.475575582768023,-3.788649355152249,-2.92813434933424,-1.1754082441329956,0.4529739916324615,1.0353893041610718
4.723570800781252,-1.8028502167105676,-2.9444015935242174,-2.0114912135809657,-1.1588363647460938,0.6739522218704224,0.9118818640708924
4.733535888671879,-0.8739308791648596,-2.2059593081921336,-0.8696949220955371,-1.1223549842834473,0.7348533868789673,0.7959973216056824
4.743500976562503,-0.0115475952569395,-1.3483990605264902,0.1167225916296243,-1.0582828521728516,0.6134523153305054,0.668287456035614
4.753466796875005,0.6813264595337212,-0.5476835666328669,1.077887590676546,-0.9708189368247986,0.340986967086792,0.559583842754364
4.763431640625003,1.1006229349020868,0.2225795058518648,1.8845652078449724,-0.853020966053009,-0.0073807034641504,0.4802674055099487
4.7733967285156265,1.321267015711963,0.9291402137547732,2.7912416608572004,-0.7023054957389832,-0.3568460345268249,0.4386874735355377
4.783362548828128,1.3584829399064182,1.509827055323124,3.600535598003864,-0.5499895215034485,-0.6443197131156921,0.430404394865036
4.793327636718752,1.0760425473317503,2.0511469321429727,4.492003375968337,-0.4296639263629913,-0.7768319845199585,0.4153228998184204
4.8032927246093795,0.6142955350510776,2.6139286991864443,5.480042353415489,-0.3747155368328094,-0.7074661254882812,0.3797935545444488
4.813257812500003,0.1748543164722621,3.1112650573730467,6.187908883219957,-0.3597448468208313,-0.5279017090797424,0.3356260955333709
4.8232236328125015,-0.0642521074190735,3.511375551560521,6.433571158495545,-0.3621725440025329,-0.3051496744155884,0.289979875087738
4.833188964843751,0.0026877777792513,3.803504394456744,6.4602084055304525,-0.3412659466266632,-0.1166468858718872,0.2258815765380859
4.843153808593753,0.1811510785289108,4.002207934680581,6.120218325784802,-0.2400162518024444,-0.0090023279190063,0.1541863232851028
4.853119628906255,0.5348012887060641,4.157100390228629,5.688526113897562,-0.0570759959518909,0.0048122876323759,0.0821920335292816
4.8630847167968785,1.063581125165522,4.149540184107423,5.347936899214982,0.1889993846416473,-0.0424768514931201,0.0418139733374118
4.873050048828128,1.4154700247585772,4.067884229683876,5.326967760944366,0.4656887650489807,-0.0563748218119144,0.0440467670559883
4.883014648437504,1.639040733604878,4.0150118866741655,5.755507061758637,0.7266317009925842,0.0020309477113187,0.0827273726463317
4.892980468750002,1.7734418975271284,4.021654977950454,6.169237500497698,0.9203149080276488,0.0837553739547729,0.1146126016974449
4.902945800781248,1.833871231787652,3.991992830136418,6.54799891718626,1.0479077100753784,0.1786384731531143,0.1285069435834884
4.91291064453125,1.7021723125614223,3.926215412846208,6.837644711095094,1.1093037128448486,0.2514972388744354,0.1384772956371307
4.9228767089843775,1.442589502352476,3.920668884634972,7.081176988604664,1.088460922241211,0.2842338681221008,0.1176812946796417
4.932841796875001,1.1136645681090651,3.945405266484618,7.276487379258871,1.0064291954040527,0.2990953624248504,0.057415023446083
4.942806884765629,0.7783136924713849,3.8491526314318176,7.291742816057801,0.8766651749610901,0.2868252992630005,-0.0533028542995452
4.952772705078127,0.4841780397973954,3.677002751612663,7.111354100203513,0.7169902920722961,0.2521770596504211,-0.1901214271783828
4.962737792968758,0.4220258272670209,3.319908392331004,6.726895933178067,0.5570374727249146,0.2495833486318588,-0.3243448436260223
4.972702880859378,0.5596341166675091,2.702813435819745,6.084957042789459,0.4533891081809997,0.2820057272911072,-0.4094291031360626
4.982671142578129,0.7185245558105409,2.0782254932045934,5.047739900675416,0.3930431008338928,0.3384254574775696,-0.4389760494232178
4.992636962890627,0.6888987214189022,1.696329285621643,3.903727102184296,0.3764998018741607,0.3714342713356018,-0.4655530452728271
