time,ax,ay,az,gx,gy,gz
0.0,1.2406535560786722,2.701486571130157,4.608607894176244,-1.2124229669570925,0.1392002254724502,-0.0067379558458924
0.009965087890623892,0.7072401415344327,3.666232935795188,4.618065458351373,-1.03236985206604,0.1792296767234802,0.0378971546888351
0.019931152343751535,0.2585663631753996,4.609617948001623,4.796120178300142,-0.798073410987854,0.2584328651428222,0.0556896477937698
0.029896240234375426,0.0811436757861636,5.168933500239253,4.971480836859345,-0.506014347076416,0.3922950625419616,0.1083499267697334
0.03986108398437338,0.3504845492204651,5.300054619577526,5.367824087467789,-0.216614693403244,0.5260491371154785,0.2211924642324447
0.049826904296875085,0.8440757660619914,5.38451335646212,5.677396817117929,0.0544777885079383,0.6256375312805176,0.3566653132438659
0.059792236328124915,1.2565984364464875,5.562211518058181,6.014633798763156,0.2996094524860382,0.6759471297264099,0.4921339154243469
0.06975805664062662,1.6083238160409032,5.629287158465385,6.378384693324565,0.5176578760147095,0.6806625127792358,0.5972003936767578
0.07972314453125051,1.7282095478765664,5.634263777834176,6.70956310558319,0.7079753279685974,0.6139947175979614,0.6466889977455139
0.0896882324218744,1.6355563986204564,5.596596018218994,6.893383549451827,0.8865411281585693,0.5167192816734314,0.6415437459945679
0.09965429687500205,1.5605959963127969,5.494872842800617,7.159336333084106,1.031902551651001,0.3543950319290161,0.6116952300071716
0.109619140625,1.3686284863457083,5.374542582067847,7.2810454809546465,1.1338765621185305,0.1810578554868698,0.5600581169128418
0.11958520507812409,1.1718745458196849,5.302047839221358,7.479107800665497,1.163100004196167,0.0068946797400712,0.4905755519866943
0.12955029296875153,0.9817946762301027,5.153659358739852,7.522119843918085,1.0904641151428225,-0.1796696037054062,0.4085930585861206
0.13951489257812355,0.5468073683202266,5.13119092182219,7.437720143744349,0.9311784505844116,-0.2618293464183807,0.3014194965362549
0.14948071289062526,0.0766028357524424,5.146305488845706,7.476448810589313,0.7076801061630249,-0.2763675451278686,0.1948288679122924
0.1594455566406232,-0.3399888741692528,5.060094939857721,7.142766306555271,0.4591706097126007,-0.1877146512269973,0.11605966091156
0.16941064453125065,-0.794626821629703,4.881339962685108,6.681468060955405,0.2469675242900848,0.0212955605238676,0.0687720403075218
0.1793764648437488,-0.9588571604959666,4.417944452545046,6.026641631942987,0.0870755612850189,0.2822010517120361,0.0534646101295948
0.1893417968750022,-0.7515935894586145,3.8331343935668474,5.115707521486282,-0.039186768233776,0.4499011039733886,0.0581437833607196
0.19930761718750034,-0.3693316173031926,3.1754701107800005,3.816185012331605,-0.0970865562558174,0.4892253577709198,0.0549261532723903
0.2092724609374983,-0.0563545956349,2.3438790016293525,2.514181207755208,-0.1107746660709381,0.453829824924469,0.0427136942744255
0.21923779296874812,0.1584127386286854,1.5036451518177985,1.2830337311685085,-0.1045715361833572,0.3658830821514129,0.0126844551414251
0.22920361328124983,0.1155633751245215,0.7413070271134377,0.0926852979600429,-0.1071271076798439,0.2245158404111862,-0.0275266133248806
0.23916870117187372,-0.3351575815552845,0.0215682732075452,-1.0332798026651144,-0.1679815351963043,0.0937829539179802,-0.112235888838768
0.24913476562500136,-1.0702874909363689,-0.4659522088855504,-2.010741271996498,-0.294916033744812,0.0157315656542778,-0.2547892928123474
0.25909985351562526,-1.8777191413424907,-0.9066098175168036,-2.9672441244512795,-0.4757806956768036,-0.0008430411107838,-0.4045881628990173
0.2690644531250008,-2.6059230873852965,-1.501809168562293,-4.095060990422964,-0.6518347859382629,0.1547582596540451,-0.5280213952064514
0.2790307617187473,-3.2491569860205054,-1.8897347194373608,-5.030608148610591,-0.7536561489105225,0.5446715354919434,-0.5742732286453247
0.2889956054687488,-3.531602347031236,-2.1499738015979526,-6.006791268569231,-0.6860092282295227,0.920169234275818,-0.5104407072067261
0.2989614257812505,-3.201045866063237,-2.6426708095461127,-7.556002824297547,-0.4207130074501037,1.099983811378479,-0.4359389245510101
0.30892675781250034,-1.845557724058628,-3.4772955873042344,-9.351547686430813,-0.0492052361369133,0.9502696394920348,-0.3799600601196289
0.3188916015624983,0.1132187482271343,-4.757490880176425,-11.039140123367307,0.2624760568141937,0.4951052367687225,-0.246632695198059
0.32885766601562594,2.037336433455348,-6.38734775198102,-12.16741233189106,0.3953481018543243,-0.0610810332000255,-0.0250790007412433
0.3388225097656239,3.2124586559593675,-7.921864427402615,-12.528469165062903,0.3076188862323761,-0.5610047578811646,0.215401291847229
0.34878857421875153,2.8847493811160323,-8.537613814523816,-12.369972547543048,0.0153196528553962,-0.8393908143043518,0.4077704548835754
0.3587536621093754,1.4933964372649788,-8.43221691902876,-11.569067668557166,-0.3864916265010834,-0.8825164437294006,0.5212274193763733
0.3687185058593734,0.5191409243680536,-8.451879650875926,-10.971577576225997,-0.7953883409500122,-0.7774267792701721,0.5995432734489441
0.3786848144531234,0.1308325481878593,-8.667906666344404,-10.648617541736364,-1.1299961805343628,-0.5633381009101868,0.7337988018989563
0.3886496582031249,-0.2235800611965358,-8.484681850281357,-10.060641127681732,-1.3342193365097046,-0.1575114876031875,0.9107040762901306
0.3986154785156266,-0.3427989996865391,-8.117426162469387,-9.217124018415808,-1.42262864112854,0.2056005150079727,1.0475281476974487
0.40858081054687645,-0.0620628537464886,-7.487783274552226,-8.696134981963038,-1.402873396873474,0.3975286781787872,1.1077240705490112
0.4185466308593746,0.430198721926473,-6.652396864771843,-7.811174686196446,-1.332864761352539,0.4179275333881378,1.081934928894043
0.42851171875000205,0.9625396484009922,-5.564747174015641,-6.451893581649661,-1.2161235809326172,0.2436380237340927,0.9969420433044434
0.4384765625,1.472578982424736,-4.350993315300345,-4.926150579792261,-1.0536279678344729,-0.0649356916546821,0.8885158896446228
0.4484426269531241,1.7462492085665464,-3.378170611685514,-3.219057908093929,-0.8943970203399658,-0.3870543241500854,0.7815998196601868
0.4584074707031256,1.9591883410222828,-2.564875622203946,-1.2761550775706767,-0.7831434607505798,-0.7032163143157959,0.7237918972969055
0.4683735351562497,2.144652752705664,-1.803158259746432,0.5829349127560853,-0.7246285080909729,-0.9719838500022888,0.7340826392173767
0.4783386230468736,2.194660792325437,-1.152025424554944,2.2961884451717136,-0.6508487462997437,-1.200760006904602,0.7898650169372559
0.4883034667968751,1.721616871613264,-1.1829530622601507,3.830762403738498,-0.8185930252075195,-1.1261667013168335,0.8875271677970886
0.4982697753906251,0.7254330930899828,-0.5277379261910915,5.867351818218827,-1.0167021751403809,-0.8694632053375244,0.9299142360687256
0.5082346191406266,0.027033625941351,1.1308283227473497,7.06480920664966,-1.140310764312744,-0.5782681107521057,0.9905996918678284
0.5182006835937472,-0.4456804417619481,1.6838830610245463,7.412423789924382,-1.1761640310287476,-0.1809159815311432,1.027111291885376
0.5281657714843746,-0.6413288687314838,2.324045589390397,7.944631555005907,-1.1408464908599854,0.170238584280014,1.0127220153808594
0.5381315917968763,-0.7304724024314433,3.07269070430696,8.020236538827419,-1.0441724061965942,0.3514026403427124,0.9165344834327698
0.5480966796875002,-0.6115821113739163,3.688839904400706,7.812257220736146,-0.8497338891029358,0.3686138391494751,0.7537631392478943
0.5580615234374982,-0.3858046862635761,4.191393997235596,7.727565844139456,-0.5832228064537048,0.2707280218601227,0.5431140065193176
0.5680278320312482,-0.1160612781766802,4.537049555397034,7.702397500613332,-0.240993320941925,0.0894937962293624,0.3164507448673248
0.5779926757812497,0.1765787291120737,4.693422312630712,7.830345835134387,0.0500659793615341,-0.0928601399064064,0.1122372597455978
0.5879587402343738,0.4368520058032125,4.750109830014408,8.05712513076365,0.2880420684814453,-0.2056551426649093,-0.0533844642341136
0.5979235839843753,0.953704088581726,4.820007834365963,8.333851237344742,0.4864462614059448,-0.3343826234340668,-0.1379876732826233
0.6078896484374994,1.5392907579556108,4.629079896579682,8.217204633560776,0.6647536754608154,-0.4100403487682342,-0.1409861296415329
0.6178544921875009,2.0661289588280023,4.389541657142341,8.343906767413019,0.7829203605651855,-0.4050343930721283,-0.0594642162322998
0.6278195800781248,2.4246966055326165,4.161021655325591,8.414183249688149,0.8250782489776611,-0.3514731526374817,0.061099749058485
0.6377856445312489,2.5124676818355915,3.944532283042371,8.37409966110289,0.8108329176902771,-0.2614049613475799,0.1752150505781173
0.6477504882812504,2.3684385656073688,3.729028999187052,8.256023316776751,0.7678252458572388,-0.1470866203308105,0.2606602013111114
0.6577165527343745,2.058387112529576,3.620950025001168,8.080210238274931,0.7056851983070374,-0.0602319464087486,0.2939982116222381
0.6676816406249984,1.6043325544476508,3.6170682151317592,7.699623944246769,0.6441960334777832,-0.0384270474314689,0.2415874600410461
0.6776474609375001,0.9936259107340126,3.634627837219834,7.210247020632028,0.5933720469474792,-0.0728989243507385,0.0939759686589241
0.6876127929687499,0.3006021452743559,3.6676655989468094,6.634248629140854,0.5586622953414917,-0.1189154163002967,-0.1151005551218986
0.6975786132812516,-0.2864029395300895,3.584841185265779,6.10008096216321,0.5411008596420288,-0.1425602436065673,-0.3212849199771881
0.7075437011718755,-0.6967566683776676,3.31530878958106,5.542933401614428,0.5418382883071899,-0.198065847158432,-0.5051711797714233
0.7175087890624994,-0.778123430596292,3.010342092421651,4.711214866691828,0.5767000913619995,-0.2799850106239319,-0.6657782793045044
0.7274746093750011,-0.3960260013528168,2.546203070437908,3.787121999454498,0.6628788709640503,-0.5048969388008118,-0.7586472034454346
0.737439697265625,0.3128242787919938,1.9010317739993328,2.445127545273304,0.776179313659668,-0.9525238275527954,-0.7708709239959717
0.7474057617187491,0.96564842807129,1.3207044133931398,0.936553704881668,0.8719649910926819,-1.5051764249801636,-0.7034758925437927
0.7573708496093765,1.155076336558163,0.5663023423850536,-0.2627344061076641,0.8929399251937866,-1.9470845460891724,-0.6503615975379944
0.7673366699218747,0.4655508615430444,-0.0148176299035549,-1.1537556093484165,0.8316690921783447,-2.119929075241089,-0.6605721712112427
0.7773015136718762,-0.8924094427287578,-0.6810451583743095,-2.0034014306277035,0.7000822424888611,-2.0987770557403564,-0.7106404304504395
0.7872678222656262,-3.023499095636606,-1.4032599470049143,-3.327385011821985,0.5127317905426025,-1.7270747423171997,-0.8458624482154846
0.7972324218749982,-5.410162761503457,-1.7910346912324429,-3.900665376526117,0.2821647524833679,-1.0566859245300293,-1.1525025367736816
0.8071977539062516,-6.628659430831671,-2.004017516699433,-4.617828142464161,0.0834498107433319,-0.3950381875038147,-1.5286577939987185
0.8171635742187497,-6.5050476642102,-2.4755226835370063,-5.987194587695599,0.0128298532217741,-0.1396984755992889,-1.817260146141052
0.8271286621093736,-5.43442217349112,-2.4959943936794997,-8.255832178118824,0.1708674281835556,-0.3055670857429504,-1.938557744026184
0.8370947265625013,-3.792423028472066,-2.570005386307836,-10.162635521256924,0.5308080911636353,-0.7199539542198181,-1.9312444925308228
0.8470595703124992,-1.765119913253188,-3.516099657472968,-11.777114206665754,0.929449200630188,-1.2598885297775269,-1.799052119255066
0.8570256347656233,-0.2728290991425514,-4.882213822910189,-12.919483914124966,1.2282474040985107,-1.5429470539093018,-1.5204252004623413
0.8669907226562472,0.5105380773261189,-6.30364480189979,-12.52914487236738,1.3254408836364746,-1.4967979192733765,-1.0414386987686155
0.8769565429687489,0.8219273548789322,-7.617087115335464,-11.658584857875107,1.1921504735946655,-1.2797913551330566,-0.4594276249408722
0.8869216308593764,0.7169293955735861,-8.098293591976166,-10.855505557459592,0.9047688841819764,-1.087812900543213,0.061353001743555
0.8968876953125005,0.5089101838633417,-8.169010219234227,-10.23487073638439,0.5152488946914673,-1.0400638580322266,0.4579013586044311
0.9068527832031243,0.3651820964083075,-7.985660900008678,-9.8052331189394,0.0970979779958725,-0.9991368651390076,0.80394446849823
0.9168176269531259,0.0271653625622391,-7.807544220739603,-8.98018923947513,-0.2572331726551056,-0.8583364486694336,1.1232328414916992
0.9267839355468759,-0.3269906051799655,-7.538686947837472,-7.982832398584485,-0.5143291354179382,-0.70888751745224,1.3494337797164917
0.9367487792968738,-0.6334601081177592,-6.879720350280404,-7.123835980635881,-0.6769213676452637,-0.6045453548431396,1.426293134689331
0.9467145996093755,-0.6121779583752155,-5.908136248549819,-5.9124190404355526,-0.7940836548805237,-0.6372883915901184,1.3635107278823853
0.9566796874999994,-0.1960308138832449,-4.771669043132663,-4.540072118088602,-0.8957488536834717,-0.7597273588180542,1.24888813495636
0.9666455078125011,0.2472952833048999,-3.675919048029184,-2.8398043239742514,-0.9878841042518616,-0.7740157246589661,1.1829572916030884
0.976610595703125,0.5445768327891827,-2.651969383767247,-0.8492571142226457,-1.072526454925537,-0.5549364686012268,1.1516172885894775
0.9865766601562491,0.9601584523528812,-1.6043740555018189,1.0015759198904035,-1.1415753364562988,-0.2889071702957153,1.163313865661621
0.9965415039062506,1.3955240920558571,-0.4088648785293102,2.3012521583020686,-1.135470628738403,-0.109551228582859,1.2089037895202637
1.0065075683593747,1.937788263988495,0.7361836927503347,3.2955577949285506,-1.0360238552093506,-0.0830301344394683,1.2677698135375977
1.0164726562500022,2.354090306781232,1.7087907077878712,4.067265221002698,-0.876322865486145,-0.1737393140792846,1.2991982698440552
1.0264387207031263,2.494280867759884,2.6147633964449164,4.829428573662042,-0.7079562544822693,-0.2808497846126556,1.3074383735656738
1.0364035644531242,2.3284815260112284,3.4682138707041736,5.752538859602809,-0.575432538986206,-0.3129158020019531,1.278551697731018
1.0463696289062483,1.9305206110730768,4.187386807420849,6.729800422447919,-0.481217086315155,-0.2462486326694488,1.199662446975708
1.0563347167968757,1.6792086394727228,4.711721647170186,7.473832490611076,-0.4430619776248932,-0.1763398498296737,1.0776605606079102
1.066300537109374,1.5587278643533586,4.992097508430481,7.590278603386879,-0.4149419069290161,-0.031110756099224,0.9442479610443116
1.0762658691406237,1.4609198165521025,5.027109200578928,7.825974195921421,-0.3715240061283111,0.2519644200801849,0.8068152070045471
1.0862316894531254,1.7575643833070993,4.930625679379701,7.999242850637436,-0.31100794672966,0.4779312312602997,0.6798577904701233
1.0961965332031234,2.411886662189662,4.806141221576929,7.471692555972933,-0.1790177375078201,0.5716551542282104,0.5721298456192017
1.1061628417968734,3.172369222155213,4.578031554126739,6.73619743000865,0.0637512281537056,0.4456991255283355,0.5105815529823303
1.116127685546875,3.962623527789116,4.176264524903893,5.867545294964313,0.3723061382770538,0.1570634096860885,0.4684003293514251
1.1260927734375024,4.565418448530138,3.819722538807988,5.330990440589189,0.6776261329650879,-0.2068551480770111,0.4544030129909515
1.1360588378906264,4.670788163757324,3.5353976476609703,5.137354705148935,0.878408670425415,-0.4140779376029968,0.4415762424468994
1.1460268554687474,4.216004414618015,3.4373265650093554,5.430247518154978,0.9544448256492616,-0.3736370503902435,0.3951629400253296
1.155992919921875,3.479139753866196,3.408548214292526,5.532123253786564,0.9399104714393616,-0.2587529420852661,0.3386792540550232
1.1659577636718765,2.508446171234548,3.274228006651997,5.159349094814062,0.8940334916114807,-0.1005518361926078,0.2612784802913666
1.1759240722656266,1.539437472949922,3.212914583033323,4.957270525199174,0.8383219242095947,0.0953721702098846,0.1319620907306671
1.1858889160156245,0.8749743238031864,3.020942396891117,4.803637129801512,0.7654101848602295,0.265102356672287,-0.0397281721234321
1.1958549804687486,0.4027177540764212,2.878891302737593,4.705341006222367,0.6703400015830994,0.3538319170475006,-0.2302016466856002
1.2058198242187501,0.4177592558637261,2.959892008122801,4.54597111299932,0.5799488425254822,0.3972925841808319,-0.4234169125556946
1.2157858886718742,0.7866694328844547,2.86772693464458,4.374741270634532,0.5294420123100281,0.3962958455085754,-0.5652674436569214
1.2257509765625016,1.3583999377980829,2.561121238106489,4.057878383976221,0.5475237965583801,0.3705023229122162,-0.6153836250305176
1.2357170410156257,1.7576631675064562,2.246491225066781,3.72758844498992,0.5940656661987305,0.3628538250923157,-0.5651143193244934
1.2456821289062496,1.9580302570283408,1.865185969114304,3.481925000670552,0.6305134296417236,0.393647700548172,-0.4663874208927154
1.2556479492187513,1.906002548149228,1.367306590092182,3.076444503882527,0.6283403635025024,0.4347851574420929,-0.3239315748214721
1.2656125488281234,1.4140706793546676,0.6308855814546346,2.6392028411746025,0.5586680769920349,0.498209148645401,-0.2019382715225219
1.2755791015624993,0.5153600906550884,-0.1512222426027059,2.253628821861744,0.3339951038360595,0.5564860701560974,-0.1665162295103073
1.2855437011718749,-0.6289347396478057,-0.7131418398588896,1.6397048966020344,-0.0135500747710466,0.7027189135551453,-0.2421816885471344
1.2955097656250025,-1.9759893998280167,-1.258006257417798,1.05779406619668,-0.4183135032653808,0.9943720698356628,-0.3842173218727112
1.3054748535156264,-2.8727257658451792,-1.92712950733006,0.430721321028471,-0.8601926565170288,1.3605340719223022,-0.4778972268104553
1.3154406738281246,-3.015366350324452,-2.7244524361759423,-0.6905366248190402,-1.3066506385803225,1.7586710453033447,-0.4146794378757477
1.3254057617187485,-2.690933028411865,-3.784831842690706,-2.051900380858779,-1.7053873538970947,2.203887701034546,-0.2443628311157226
1.335371826171876,-2.372945521637797,-4.521810485211015,-3.509813124549389,-2.0168848037719727,2.6193225383758545,-0.0091773020103573
1.3453369140625,-2.558236622580886,-4.649168452623487,-5.068089445742965,-2.2830803394317627,2.9079439640045166,0.2691352963447571
1.355302978515624,-2.811978159415722,-4.562404945927858,-6.686329529511928,-2.5325348377227783,3.048133850097656,0.4981524050235748
1.3652678222656256,-2.7463515487730503,-4.6419376245871184,-8.287644197443127,-2.762399196624756,3.0045340061187744,0.5834848880767822
1.3752338867187497,-2.3596792128294704,-4.590686745299399,-10.157063858604433,-2.9416275024414062,2.822984457015991,0.567703902721405
1.3851989746093736,-1.968308197675645,-4.547629109339415,-12.083704121112822,-3.028930902481079,2.536337852478028,0.5293024182319641
1.3951647949218753,-1.9755146219231188,-4.116633647544682,-13.717131837141514,-2.9734840393066406,2.191610813140869,0.4899457097053528
1.4051298828124992,-2.125316914725304,-3.353894540823996,-14.705149187278746,-2.8044447898864746,1.8089733123779297,0.4576042592525482
1.4150959472656233,-2.078056858639419,-2.3866440843835472,-15.047356358551978,-2.6007978916168213,1.3955843448638916,0.4568192362785339
1.4250610351562472,-1.8641982732512052,-1.664342786513269,-14.927529371166228,-2.374173402786255,1.0040816068649292,0.5340079665184021
1.4350268554687489,-1.567533686621487,-1.336387135693431,-14.153968426179883,-2.0871775150299072,0.7875840663909912,0.65422123670578
1.4449929199218765,-1.112979654584825,-1.2522715131580828,-12.447580687880516,-1.7917832136154177,0.6576508283615112,0.7477735877037048
1.4549580078125004,-0.59260312400721,-1.2962503556162115,-10.355338359761236,-1.5831483602523804,0.5137975215911865,0.7748417854309082
1.464923828125002,-0.3067638827744871,-1.3257219492942094,-7.858329236081242,-1.4871294498443604,0.3598609566688537,0.7528027892112732
1.4748891601562484,-0.0187434981103986,-1.4005591636136174,-5.007417827159166,-1.4993748664855957,0.174943208694458,0.68788743019104
1.48485498046875,0.3321096286941319,-1.2067504096940158,-2.3614660962462426,-1.5824068784713743,-0.1029366105794906,0.6062988042831421
1.4948198242187516,0.5718369609627872,-0.9376362394213676,-0.2612754394710064,-1.6696854829788208,-0.3924623727798462,0.5179589986801147
1.5047861328125016,0.5239585172502323,-0.4950403562039137,1.52786890797019,-1.6834558248519895,-0.6791031360626221,0.3968589305877685
1.5147507324218736,0.2217740346878766,0.2302142385140061,2.2291250797241924,-1.4922128915786743,-0.7938064336776733,0.3586378097534179
1.5247170410156237,-0.0188526575732976,0.2487050039723515,2.9240222378402945,-1.1426712274551392,-0.7638898491859436,0.40536829829216
1.5346818847656252,-0.254735516308248,0.1563721727117896,3.725233406296372,-0.7311804890632629,-0.6762802004814148,0.4553309082984924
1.5446477050781233,-0.5117346666995436,0.4178482493214309,4.453957430690527,-0.3621225357055664,-0.5733149647712708,0.4403918981552124
1.5546127929687472,-0.4961408647917211,0.5771374785237013,5.187880192771554,-0.0632169097661972,-0.5003091096878052,0.3392129242420196
1.5645788574218749,-0.3882802825968712,0.7113203235201537,5.873964514356851,0.1721165180206298,-0.4394130408763885,0.1703693121671676
1.5745439453125023,-0.2374816722337156,0.8181848073497414,6.619876989439129,0.3650732338428497,-0.3771786689758301,-0.0117779914289712
1.5845097656250005,0.0534175558023154,0.8034593857742846,7.373791569191217,0.4938035309314728,-0.3496426343917846,-0.180172860622406
1.5944748535156243,0.3549522326864301,0.7655357517018914,7.883393534711002,0.5772203207015991,-0.3370904624462127,-0.3251113593578338
1.6044409179687484,0.8786004784110933,0.7818202392876148,8.303197740405798,0.6365376710891724,-0.3599984347820282,-0.423951655626297
1.61440576171875,1.595135979296267,0.6764458478853106,8.407793256390095,0.7154011726379395,-0.4020165205001831,-0.4428870677947998
1.624371826171874,2.3538085672304034,0.3677048928841948,8.42453045617938,0.8131325244903564,-0.4369777143001556,-0.3900835216045379
1.6343369140625015,2.8839292969048023,0.11193287313506,8.406828795272112,0.9106886982917786,-0.472086489200592,-0.2935484051704407
1.6443027343749996,3.123883131405711,0.0494666262194514,8.261102227476238,0.97336083650589,-0.4839207828044891,-0.1767469495534896
1.6542687988281237,3.085295626597106,-0.0089475688263773,8.259661965540051,0.9791919589042664,-0.4221975803375244,-0.0721675604581832
1.6642338867187476,2.785732542046905,0.0698018505007028,8.29826846731007,0.928927481174469,-0.3391831219196319,-0.0138019891455769
1.6741999511718753,2.4157215641774235,0.2673079976335167,8.076426043561101,0.8596624135971069,-0.221621572971344,0.0032537200022488
1.6841650390624991,1.9639814205177129,0.5400548253200947,7.778091331762075,0.7887306809425354,-0.0580520778894424,-0.0140879862010478
1.6941308593750009,1.362481654153764,0.8482768710136414,7.42921476572752,0.7489818930625916,0.1520950347185135,-0.0552577786147594
1.7040959472656247,0.6581646335244178,1.0476754077643156,7.096133150196075,0.7228274941444397,0.3520321249961853,-0.1526674181222915
1.7140620117187488,0.1385417708583176,1.3224547641918063,6.591987696516513,0.6990920901298523,0.5206172466278076,-0.2941248714923858
1.7240268554687503,-0.1378914902560412,1.6434198254719377,6.082564594694972,0.7264419794082642,0.6564618945121765,-0.4343171417713165
1.7339931640625004,-0.1472233822248876,1.739177662745118,5.55145222363472,0.8122595548629761,0.7465585470199585,-0.5291185975074768
1.743957763671876,0.1902060532525181,1.6762030279159543,4.8921688152134415,0.9666957259178162,0.7916096448898315,-0.5504904985427856
1.753924072265626,0.4727543631810694,1.5286606428697704,4.275618048581481,1.151644945144653,0.7721862196922302,-0.5079562067985535
1.7638886718750015,0.6910655440639704,1.3778425971537829,3.795837220829725,1.299224615097046,0.7239734530448914,-0.4276954233646393
1.7738547363281256,0.8917067743521183,1.1920233806833624,3.56868967640996,1.3407471179962158,0.6692911386489868,-0.3347740471363067
1.7838208007812497,0.9325692383553832,1.0120382771939038,3.401507648131251,1.2595041990280151,0.6554994583129883,-0.2649249136447906
1.7937858886718736,0.8767244554061442,0.682280837649107,3.1225860773324965,1.1100274324417114,0.6528013348579407,-0.2312169671058654
1.8037517089843753,0.9358590006157756,0.0690814272716641,2.448528293627501,0.9165645241737366,0.6367056965827942,-0.2537971138954162
1.8137167968749992,1.0576327381551265,-0.2802092725217342,1.3624217406600714,0.7025924921035767,0.5331061482429504,-0.3118725717067718
1.8236828613281233,0.6555801699891686,-0.4905032972961664,-0.2151286053240299,0.4459783434867859,0.3857217133045196,-0.3776766061782837
1.8336479492187472,-0.0256464824318885,-0.7863754183739423,-1.7110352718442678,0.1500328779220581,0.3476284146308899,-0.5386536121368408
1.843613769531249,-0.3468135325575247,-0.9985217930167912,-3.0575825670242307,-0.1149974465370178,0.4447568356990814,-0.7235180139541626
1.8535788574218763,-0.2648706874839961,-1.4870347932785748,-4.654070837712288,-0.2695870995521545,0.5526092052459717,-0.7858641147613525
1.8635449218750004,-0.1116079885622486,-2.048228414347768,-6.5516925110071895,-0.3409110903739929,0.5586894750595093,-0.7533021569252014
1.8735097656249984,0.1345737622764893,-2.062274767617881,-8.5896374317497,-0.3668060898780823,0.4635481238365173,-0.7015268802642822
1.883475830078126,0.5631106702042743,-2.160059142282605,-10.482614494109152,-0.3830644190311432,0.2898453176021576,-0.6101165413856506
1.8934418945312501,1.0707328235510736,-2.7833149595111606,-12.054833415937424,-0.4627741873264313,0.1042547449469566,-0.4618858397006988
1.9034067382812516,1.6037300585098564,-3.62928296906054,-13.089813592779636,-0.713352620601654,-0.2081303149461746,-0.2810444235801697
1.9133730468750016,1.656205657286942,-3.8979526104360818,-13.795917204564809,-1.167815327644348,-0.5846809148788452,-0.0971751883625984
1.9233378906249996,1.1222415500573812,-3.636187341621518,-13.88297355672717,-1.751165747642517,-0.8570301532745361,0.0766317620873451
1.9333039550781237,0.4049665559165179,-3.165150084556639,-13.641943617427348,-2.3031647205352783,-0.9444206953048706,0.2536228001117706
1.9432690429687476,-0.3106855131976306,-2.58421774379462,-13.5437100376904,-2.6373116970062256,-0.8783612251281738,0.4995121955871582
1.9532348632812493,-0.8685396145805716,-2.110584332756698,-13.385015851771833,-2.63644814491272,-0.6360607743263245,0.8133337497711182
1.9631999511718732,-1.159625085903704,-2.007563518743217,-12.52051265310049,-2.4198780059814453,-0.4450812637805938,1.110239028930664
1.9731660156250008,-1.2482292520299554,-1.9151788111649453,-11.002595814824105,-2.211639404296875,-0.3245629370212555,1.2540128231048584
1.9831318359375025,-1.1750278222188353,-1.5588618659965694,-8.491379886615276,-2.0512256622314453,-0.3165111243724823,1.2199400663375854
1.9930971679687488,-0.8654058465994894,-1.1950159866280854,-6.042859776294231,-1.9632470607757568,-0.4840229153633117,1.0537575483322144
2.0030629882812505,-0.4106081420000642,-1.0652234855450688,-4.158485122585296,-1.8619920015335083,-0.8580085039138794,0.8942691087722778
2.0130280761718744,0.0010845073010772,-1.415995071545988,-2.6639251944988964,-1.6803085803985596,-1.306212067604065,0.8008109331130981
2.022994140625002,0.1455467542495578,-1.822888211610913,-1.198688976052403,-1.4408011436462402,-1.7024747133255005,0.7537803053855896
2.032958740234374,-0.0472719657193869,-2.1853988968528806,0.1540069048851728,-1.151452898979187,-1.9093387126922607,0.7283668518066406
2.042924804687498,-0.5760736486844719,-2.4070853993877765,1.7117074720174072,-0.8931456804275513,-1.8584177494049072,0.6873456835746765
2.0528898925781256,-1.010878001242876,-2.3516731626369056,3.36838688429594,-0.723155677318573,-1.599063754081726,0.627077579498291
2.0628557128906237,-1.314682815016061,-2.034675543683022,4.729986787179112,-0.6199944019317627,-1.192398190498352,0.5470519661903381
2.0728217773437514,-1.533658743418008,-1.5744132170021532,5.8697021807372565,-0.5374401211738586,-0.7329461574554443,0.4637820124626159
2.0827868652343753,-1.5361254257924857,-1.1273764287278056,6.597948650747537,-0.4507622122764587,-0.2803280353546142,0.3579354882240295
2.0927526855468734,-1.3120545123390852,-0.6884639101982116,6.939341583028435,-0.3302462995052337,0.0966006815433502,0.1937749832868576
2.102717773437501,-0.9055351740226149,-0.3788914728090167,6.918178968012333,-0.1352160722017288,0.354655921459198,0.0026207356713712
2.112683837890625,-0.2972159369021654,-0.1583563322663307,6.814379570841789,0.1420073211193084,0.5049213171005249,-0.1733898520469665
2.122648925781249,0.413981929282099,0.0042527620736509,6.710214847490192,0.4763059318065643,0.4806216359138489,-0.3271051347255707
2.1326147460937506,1.1355784398838875,0.2164077584143728,6.432393931409716,0.837983250617981,0.3223441541194916,-0.4856875836849212
2.1425808105468747,1.7895869766421617,0.483169374211505,6.308330913889408,1.1965508460998535,0.1211889460682869,-0.6266825199127197
2.1525427246093756,2.263250636687874,0.7418431067515164,6.476805904588103,1.5103967189788818,-0.0698158517479896,-0.7200416326522827
2.1625090332031256,2.607635736522078,0.951495107295364,6.711081693452596,1.7358335256576538,-0.2282238602638244,-0.7594556212425232
2.172473632812501,2.864917137920856,1.1189588751249016,7.058663543501496,1.8401288986206052,-0.2998474240303039,-0.7679060101509094
2.1824396972656253,2.946095537960529,1.349435563967377,7.425910463485121,1.8157862424850464,-0.3265850245952606,-0.7475836873054504
2.192404785156249,2.784916549488902,1.473292245260626,7.600324196583032,1.6668126583099363,-0.2681423127651214,-0.7201328873634338
2.2023708496093732,2.5578195662125944,1.527970176387578,7.834137628632783,1.4337890148162842,-0.1634033918380737,-0.683648943901062
2.212336669921875,2.317729684241861,1.609710740354657,7.803182518398761,1.1293357610702517,-0.0594668574631214,-0.6421115398406982
2.2223017578125024,2.0191759228646755,1.8320964772000907,7.430480255618691,0.8329724669456482,0.1021180376410484,-0.6043623089790344
2.2322678222656265,1.6544102983027695,2.1459119589865208,7.131860881659388,0.6267921328544617,0.3058054447174072,-0.5405983328819275
2.2422326660156244,1.3402321206837893,2.251394194677472,6.620248160839081,0.5448099374771118,0.5159626603126526,-0.4746470153331756
2.2521987304687485,1.1647208016075192,2.412152765779942,5.951276302096248,0.5698970556259155,0.7108665704727173,-0.4274840950965881
2.262163818359376,1.0178598229542375,2.7962603658020493,5.254473602619767,0.7220373153686523,0.8303554058074951,-0.3826143741607666
2.272129638671874,0.9055911419935524,3.0284248616009948,4.469480578514934,0.9734590649604796,0.8805466294288635,-0.2963889539241791
2.282095703124998,0.9337358709819614,2.989085953903198,3.890226984620094,1.2496459484100342,0.8222172856330872,-0.1884912550449371
2.2920607910156257,0.9826429636225104,2.899056723409891,3.3126842862963675,1.508497714996338,0.6954874396324158,-0.117529347538948
2.3020268554687497,0.9295985519815236,2.7556238195091485,2.8467718248993155,1.7166837453842163,0.4798496663570404,-0.091026097536087
2.3119919433593736,0.909354805376008,2.3856731935247777,2.3255016334176064,1.84286105632782,0.1913237422704696,-0.0708370506763458
2.3219577636718753,0.96071111779958,1.8130685361251235,1.738094543683529,1.8836028575897217,-0.1080019697546958,-0.0543068163096904
2.3319228515624992,0.8779878264054656,1.1591487005636096,1.1450737057209015,1.8605695962905884,-0.3733503520488739,-0.0916487723588943
2.3418889160156233,0.4353516842428594,0.6778986770421266,0.3915396497189998,1.7649147510528564,-0.5815128684043884,-0.1717041879892349
2.351854736328125,-0.2510650841671973,0.4632113857448101,-0.5705448022603988,1.6164833307266235,-0.623059093952179,-0.2729182243347168
2.361820068359375,-0.8801289300873875,0.0204836928412318,-1.4421996262520551,1.428583741188049,-0.3788445591926574,-0.3757042586803436
2.3717858886718766,-1.2144962015151977,-0.5604957019329071,-2.3533564395487305,1.217763066291809,-0.0125277154147624,-0.4712664484977722
2.3817507324218745,-1.077674094056338,-1.3530688059031963,-4.1313597997725005,1.032605528831482,0.1664462983608245,-0.4748742282390594
2.3917170410156245,-0.6241924404915422,-2.333816165037453,-6.658995532384514,0.8578640818595886,0.1104310303926467,-0.4811697602272033
2.401681884765626,-0.4292834702450782,-2.636015443310141,-9.186603792467713,0.7540612816810608,-0.1382229924201965,-0.5022558569908142
2.41164794921875,-0.3892273541886359,-3.0026459849610925,-11.315062512350082,0.7059942483901978,-0.5443966388702393,-0.4368492066860199
2.4216140136718742,-0.0736271078772842,-4.185748684825003,-13.126120585435627,0.6645432114601135,-0.968961238861084,-0.2995648384094238
2.4315788574218757,-0.020562457165867,-5.264469511455297,-14.143295056474209,0.5780599117279053,-1.2668815851211548,-0.1035504937171936
2.441544921875,-0.7586299178361893,-5.79470276159346,-14.1725912935853,0.4064900279045105,-1.3246971368789673,0.104221872985363
2.4515097656250013,-1.702820547337085,-6.027836979207396,-13.480529066634178,0.1396481543779373,-1.1592649221420288,0.312202900648117
2.4614755859374995,-2.349812775592506,-6.374954134353995,-12.497215948665142,-0.1871123909950256,-0.8657910227775574,0.5370969772338867
2.4714421386718755,-2.8415128814578057,-6.494221734291314,-11.487792237883806,-0.4799814522266388,-0.5272995829582214,0.756132960319519
2.4814067382812475,-3.0063799107924103,-6.387731782862543,-10.497655411374568,-0.6312268972396851,-0.1977072954177856,0.9559549689292908
2.491372558593749,-2.906566660648584,-6.242618963050842,-9.506901914271712,-0.6068372130393982,0.0883220359683036,1.0939782857894895
2.5013376464843766,-2.572382636833191,-5.790111342149973,-8.390022037377953,-0.4912362694740295,0.2480251491069793,1.1316207647323608
2.5113037109375007,-2.0611684138111768,-5.10793513391912,-7.1629556926250455,-0.3410184979438782,0.2475210428237915,1.039234638214111
2.5212687988281246,-1.416639945320785,-4.277870795944333,-5.564634945812821,-0.2136056721210479,0.1849133074283599,0.8505175113677979
2.5312348632812487,-0.5855202530741691,-3.4750042614966627,-3.535299447983503,-0.1302333921194076,0.0721352621912956,0.6258702278137207
2.5412006835937504,0.3114838239684701,-2.7234835911437867,-1.645370082756877,-0.0864480957388877,-0.104500226676464,0.4110287129878998
2.5511657714843743,1.1953906651593744,-1.841807139353454,0.0480845242112875,-0.1120791137218475,-0.307543009519577,0.2541280686855316
2.5611318359374984,1.9495478214956816,-0.978686334951222,1.6695365557640789,-0.1924839466810226,-0.4748662114143371,0.2178278565406799
2.571096923828126,2.5120336743325,-0.310704364028573,3.122636346215009,-0.2856549918651581,-0.5294590592384338,0.3045981824398041
2.581062744140624,2.788005163154006,0.2269385778442025,4.385019503542781,-0.3703658878803253,-0.4421984553337097,0.4787811636924743
2.5910288085937516,2.9367174687623976,0.7504039412826299,5.432326077994704,-0.462114930152893,-0.2521666288375854,0.7039176225662231
2.6009938964843755,3.0821359935224053,1.087766302873194,6.178478207051754,-0.5617930293083191,0.0406279377639293,0.9440564513206482
2.6109597167968737,3.0601287443757057,1.3964090581968427,6.787831755656003,-0.6579117774963379,0.3668831586837768,1.1435837745666504
2.620924804687501,2.953957357376814,1.8560194968402384,6.993263727352023,-0.6817241311073303,0.5177450776100159,1.2730791568756104
2.630890869140625,2.7189129222273825,2.318462528561056,6.406877212837338,-0.53377765417099,0.5021399259567261,1.2851237058639526
2.6408569335937493,2.2891754976697265,2.550763510221243,5.927177049106359,-0.2573191523551941,0.3296203315258026,1.1394703388214111
2.6508217773437472,1.8456430642545223,2.826265627965331,5.596071117562055,0.1052801832556724,0.0515055246651172,0.8469697833061218
2.660787841796875,1.5099711399689315,3.002467705784738,5.550128866076469,0.4942848980426788,-0.1963860392570495,0.4997891783714294
2.6707526855468764,1.36460609896183,2.868610439480841,5.831420673137903,0.8251199722290039,-0.3905059099197387,0.1947977691888809
2.6807187500000005,1.6103274109482764,2.680701557254791,6.277215060135722,1.0403693914413452,-0.4516111016273498,-0.0094549637287855
2.6906848144531246,2.0857380607917904,2.4318980613440275,6.978244437396526,1.162896752357483,-0.3611851930618286,-0.0959543660283088
2.7006499023437485,2.43070943608135,2.180821067543328,7.6126505941927425,1.1759099960327148,-0.2119975537061691,-0.0517131313681602
2.710615966796876,2.527051502983272,2.1753011350780724,8.020115542796253,1.0807890892028809,-0.0030251531861722,0.0796560123562812
2.720580810546874,2.516932844550908,2.196587084212899,8.257360702860355,0.9293453097343444,0.2690172791481018,0.2299754619598388
2.730546874999998,2.15504131412059,2.250574110466242,8.36238642695546,0.749598503112793,0.5571964383125305,0.3358746170997619
2.740512939453126,1.6142534983508288,2.4307807477518915,8.100974209362269,0.5743651390075684,0.7973693609237671,0.3671965897083282
2.7504777832031237,1.1245673626564443,2.575664434982836,7.4500290056973695,0.4742463231086731,0.9226356744766236,0.3478595912456512
2.7604438476562514,0.6826387111760676,2.59122002377212,6.50588703764379,0.4454599618911743,0.8993492126464844,0.2795058488845825
2.7704089355468753,0.1684004641577601,2.759940221403539,5.4855567329227926,0.5001862645149231,0.7700169086456299,0.1326780468225479
2.7803747558593734,-0.4973137079633772,3.0398928888157006,4.639943528160453,0.5826992392539978,0.5990421772003174,-0.0952725708484649
2.790340820312501,-1.1517129976049063,3.3816558234527707,3.905066826355457,0.6940442323684692,0.546377420425415,-0.3436441421508789
2.8003056640625026,-1.6065573908902704,3.6858176339700814,3.5533190887987613,0.839314341545105,0.6200926899909973,-0.5431431531906128
2.810271972656249,-1.677879582826048,3.612502222390473,3.248550544559956,0.9841248989105223,0.7607573866844177,-0.622277021408081
2.8202368164062506,-1.6014327413529157,3.3387425643995403,3.006161591866612,1.1148993968963623,0.9127700924873352,-0.6151674389839172
2.8302026367187487,-1.327963444610685,3.118427496348321,2.757814023029804,1.1997792720794678,1.024990797042847,-0.5607218146324158
2.8401689453125023,-0.9498809500969946,2.8852006320148704,2.400740122014284,1.2139173746109009,1.0033661127090454,-0.465475469827652
2.8501337890625003,-0.7663179881207645,2.6070962228178978,1.7503963913738727,1.182316541671753,0.897327184677124,-0.3600975275039673
2.8600996093749984,-0.7486258256942033,2.026084387078881,1.080216910406947,1.0829161405563354,0.7171587944030762,-0.2636564671993255
2.8700649414062482,-1.0528925578907131,1.3775637802124023,0.0949608416765928,0.93461275100708,0.5582492351531982,-0.2526333034038543
2.88003076171875,-1.4844678654000163,0.8238099537551402,-0.9828455004572868,0.7712898254394531,0.4112659096717834,-0.3419213593006134
2.8899965820312516,-1.9175790041744707,0.0491606290102005,-2.59491303307116,0.6329053640365601,0.2813670039176941,-0.5022882223129272
2.8999619140625015,-2.4323013814479117,-0.7884159842908381,-4.409992032235861,0.5016970038414001,0.275808721780777,-0.7018226385116577
2.9099277343749996,-2.951343375486135,-1.4347335281550884,-6.029007776552438,0.399304062128067,0.4371291100978851,-0.8941419720649719
2.919892578125001,-3.380357308074832,-1.9131775543451308,-7.548442618176341,0.3340009450912475,0.6482833623886108,-1.0068936347961426
2.929858886718751,-3.346838484832644,-2.579111068305373,-9.176510268476603,0.322957843542099,0.8087928295135498,-1.036496639251709
2.9398247070312493,-2.674807530780136,-3.421681836631894,-10.784386779141425,0.3453752696514129,0.8165394067764282,-0.9737712144851683
2.9497897949218768,-1.596786376851797,-4.454054461324215,-12.238721664345263,0.3337778449058532,0.5966120362281799,-0.8179447650909424
2.959755859375001,-0.3629199966952204,-5.470126524078846,-13.351479492872953,0.2670422196388244,0.2580150961875915,-0.5866124629974365
2.9697207031250024,0.5976821077719331,-6.347111603182554,-13.916312347227334,0.1282946020364761,-0.0839667022228241,-0.3074469268321991
2.9796870117187524,0.7015776587933301,-6.8918690532356495,-14.09129365108013,-0.0351779460906982,-0.348623663187027,-0.0550197288393974
2.9896528320312505,0.1636968165114521,-6.973857600614428,-13.77234109866619,-0.221358060836792,-0.4924282729625702,0.1271996796131134
2.999617675781252,-0.3274535465165972,-6.984673593661189,-13.197017245435712,-0.3873172104358673,-0.5376929640769958,0.2853754758834839
3.009583984375002,-0.785239253950864,-6.876429492041468,-12.3962444683969,-0.4805791079998016,-0.4177185893058777,0.4261503517627716
3.019548828125,-1.242280572758615,-6.588523235276341,-11.12985324447155,-0.4772946238517761,-0.1252606213092804,0.5357061624526978
3.0295146484375017,-1.4399725978523492,-6.3650669465899465,-9.50134720275402,-0.4460901021957397,0.1745122820138931,0.5748492479324341
3.0394809570312518,-1.1934097204752263,-5.974836041381955,-7.875367464643716,-0.4549381732940674,0.3396847248077392,0.5585781335830688
3.0494458007812497,-0.6373084541089833,-5.478990798535943,-6.22621143360734,-0.4722122848033905,0.3304734528064728,0.4946179687976837
3.0594116210937514,-0.1419259334038942,-4.799478841078281,-4.408938139268756,-0.5040746331214905,0.1814211308956146,0.4194132387638092
3.0693779296875014,0.3343615723393857,-4.145930761438608,-2.548839848682284,-0.5599386692047119,-0.031797919422388,0.3768848478794098
3.0793427734374994,0.7432140297785401,-3.4289912828624245,-0.6848083103001117,-0.6520510315895081,-0.2307978421449661,0.3740339577198028
3.089308837890627,0.9096578799758106,-2.6552310159116983,1.2851479468435048,-0.7663785219192505,-0.3795855641365051,0.3810705244541168
3.099273925781251,0.7224953591376543,-2.411542086535692,3.011850743418932,-0.9646484851837158,-0.4660653173923492,0.4290846586227417
3.109239746093749,0.3204834152430296,-1.231869945642352,4.726631047010422,-1.1377100944519043,-0.4783681631088257,0.5429883599281311
3.119206054687499,0.2861320136342197,-0.1279962653160095,6.041813482111692,-1.226570725440979,-0.4392673671245575,0.6732523441314697
3.1291708984375006,0.2422210487805307,0.9075088121831416,6.873364259251952,-1.249051809310913,-0.3597672879695892,0.7756238579750061
3.1391367187500023,-0.0212736741751432,1.9199515785247083,7.438914321964979,-1.213711142539978,-0.241596445441246,0.8672792315483093
3.1491018066406262,-0.2301400042340159,2.9281498391643166,7.844988108471036,-1.1129233837127686,-0.1252844333648681,0.8751579523086548
3.1590676269531244,-0.4090370202258229,3.591989595715701,7.983258515042066,-0.9408247470855712,-0.0501534603536129,0.7774540185928345
3.169033691406252,-0.5447615417063236,4.221758740361035,7.988110046726465,-0.677152156829834,-0.0333146639168262,0.5887845754623413
3.17899853515625,-0.5243044446110725,4.646735380257666,7.927596833574771,-0.3148200511932373,-0.0780371278524398,0.327968955039978
3.1889643554687517,-0.2577957806617021,4.747153026035428,7.786361731979251,0.1017633005976677,-0.1895709037780761,0.0145534109324216
3.1989306640625017,0.1653448759794235,4.670511977164447,7.629371427369117,0.5000995397567749,-0.3232120275497436,-0.2647898197174072
3.2088955078124997,0.7912339643210172,4.561705857747793,7.803734891584515,0.8220851421356201,-0.4357577562332153,-0.466186910867691
3.2188615722656273,1.6141986994236708,4.242846536575257,8.024156342619657,1.0425169467926023,-0.5236069560050964,-0.5763669610023499
3.228826660156251,2.3744459893286227,3.8824960981071,8.090527634149788,1.1645466089248655,-0.5913898944854736,-0.5783727169036865
3.2387924804687493,2.9809567157223817,3.486132389232516,8.133912602367996,1.217801213264465,-0.5379964709281921,-0.4649952352046966
3.248758544921877,3.3709909293144937,3.1338866390258078,8.473889238110184,1.221219182014465,-0.4123225212097168,-0.3044186532497406
3.258723632812501,3.4040976646244525,2.9810204286083577,8.494310094848275,1.1694202423095703,-0.2860599458217621,-0.173263818025589
3.268689453124999,3.2196617192059755,3.023593788182735,8.312552428728342,1.076770901679993,-0.1925195455551147,-0.0835624262690544
3.2786547851562524,2.927283577723801,3.113763303929568,8.129608767694235,0.9461644291877748,-0.0995291545987129,-0.0244599543511867
3.2886206054687506,2.4439926960244773,3.281203690883517,7.985063518637419,0.7921476364135742,-0.0253313202410936,-0.0276532396674156
3.2985864257812523,1.882460636781156,3.4562802718043324,7.675593664839863,0.6168287992477417,0.0565398447215557,-0.0756716355681419
3.308551757812502,1.3352080089114606,3.5619945626854896,7.334484810197352,0.4442950189113617,0.1730122715234756,-0.1842195391654968
3.3185175781250003,0.9016972032949327,3.704222182449698,6.96816728001833,0.3263992667198181,0.2995030879974365,-0.3153349459171295
3.3284836425781243,0.4632284830100834,3.712147130230069,6.367234938278794,0.2830579578876495,0.3878977298736572,-0.444682776927948
3.338448730468752,0.2692905497528612,3.616215982216597,5.59813389531076,0.2953934669494629,0.4211606085300445,-0.5667280554771423
3.34841455078125,0.4991038062505423,3.2683909710615877,4.575896295663714,0.3390837609767914,0.363965094089508,-0.6742265820503235
3.3583796386718774,0.7093002158693968,2.6978438307136297,3.3121582165956496,0.4422658085823059,0.2473436594009399,-0.7322611212730408
3.3683457031250015,0.7593525330223143,2.0138328082710504,2.17189278793931,0.5691094994544983,0.1144119277596473,-0.7371704578399658
3.3783115234374996,0.6278716404609381,1.3055483453154564,1.2718921594291923,0.6304913759231567,-0.0501967221498489,-0.7570400238037109
3.3882768554687495,0.2839482398543507,0.718888859078288,0.2395294716089963,0.5792178511619568,-0.2057446092367172,-0.8422175049781799
3.398242675781251,-0.2150046866834163,0.3441892850011587,-0.7538730786979198,0.4197152554988861,-0.2677547335624695,-0.9581728577613832
3.4082084960937493,-0.8066999020654708,-0.2536614573359489,-1.611986284071207,0.1966413259506225,-0.2099086791276931,-1.080841898918152
3.418173828124999,-1.2624204205982386,-1.0046347229391337,-2.750357277283072,-0.0489748269319534,-0.1439400464296341,-1.1413670778274536
3.428139648437501,-1.1794934233255685,-2.36281400372386,-4.6418426397800445,-0.2418254315853119,-0.0216591618955135,-1.1470931768417358
3.4381047363281247,-0.9051157795667648,-3.8105116428703063,-6.646428896278143,-0.3239386677742004,0.1765774935483932,-1.114062786102295
3.4480708007812524,-0.8511880092199892,-5.326200868225097,-8.665689574816822,-0.3364848494529724,0.3788908720016479,-1.046452522277832
3.4580366210937505,-1.530089360498637,-6.010553251451253,-10.054784218347072,-0.3677088320255279,0.4235858917236328,-1.0128921270370483
3.4680017089843744,-1.9005552425287664,-5.923591591835022,-11.180442444980145,-0.4902142584323883,0.2045333087444305,-0.9745630621910096
3.477967773437502,-1.3523060048371554,-6.454677074888348,-12.219691969704629,-0.7066109776496887,-0.1935615986585617,-0.8942639231681824
3.4879335937500002,-0.7237732701189815,-7.407241418850422,-12.888319545054436,-0.9917283058166504,-0.6996632814407349,-0.775854766368866
3.49789892578125,-0.7576122652262449,-8.176910617095231,-13.068534657907485,-1.3131732940673828,-1.071641206741333,-0.6681679487228394
3.5078647460937518,-1.2360469390660525,-8.168942414695024,-12.398270421266554,-1.6193455457687378,-1.098424792289734,-0.5490891933441162
3.5178295898437497,-1.5657538174673915,-7.905567957118153,-11.448296093797683,-1.7935622930526731,-0.8649014830589294,-0.3509969115257263
3.5277958984374997,-1.5020717650212347,-7.478249722531437,-10.695843403291702,-1.772375464439392,-0.5619117617607117,-0.0168925039470195
3.5377617187500014,-0.8412246144145726,-6.872154883462191,-10.094758501338958,-1.5561842918395996,-0.3254108130931854,0.3914608955383301
3.5477265624999994,0.2204023079432547,-6.263737738925218,-9.373286640030145,-1.2569586038589478,-0.3265785276889801,0.7460260391235352
3.5576928710937494,1.2568074030220509,-5.5624131781101225,-8.513482997351884,-0.9537265300750732,-0.6107929348945618,0.9327892661094666
3.567658691406251,1.7997721244394778,-4.813565234097839,-7.296770873352885,-0.6719356775283813,-1.045708417892456,0.9656842350959778
3.577623779296875,1.871209467187524,-4.346613200519979,-5.69802225651741,-0.4661175310611725,-1.4810961484909058,0.8631752133369446
3.587589843749999,1.86374293069914,-4.029972139918804,-3.9517824003010986,-0.3633288145065307,-1.7804195880889893,0.7164768576622009
3.5975544433593747,1.7956021452784536,-3.7087858371034255,-2.024845785194635,-0.3950428068637848,-1.845303297042847,0.5782178044319153
3.6075207519531247,1.5043288962982595,-3.178986009946465,-0.0156488200306892,-0.528948962688446,-1.6540948152542114,0.4770422279834747
3.6174868164062524,0.9945910294391216,-2.295133967682719,1.852704088681936,-0.7131707668304443,-1.2189193964004517,0.4047477841377258
3.6274514160156244,0.7114141392834484,-1.2357961791753769,3.3685505504250526,-0.8853199481964111,-0.6983202695846558,0.3946659564971924
3.6374179687500003,0.905342866320908,-0.2443687283337116,4.069547778981923,-0.948306918144226,-0.248401865363121,0.5076921582221985
3.647383789062502,1.2943521207794546,0.6347136153101921,4.410504073411226,-0.9138736128807068,0.1144019216299057,0.6981795430183411
3.657348388671874,1.8298064665667717,1.5381968252390623,4.678233219066262,-0.8176767826080322,0.372135192155838,0.8879430890083313
3.667314697265624,2.118467487221956,2.4645544225379825,4.968974406996369,-0.7027224898338318,0.5241305232048035,1.0271096229553225
3.6772795410156256,1.8990613507092,3.416828551381826,5.38841153294444,-0.5878374576568604,0.5956814289093018,1.0663516521453855
3.6872453613281273,1.4441836396761238,4.1575247531205415,5.793017000463605,-0.4699819087982178,0.6204495429992676,0.9640005826950072
3.6972116699218773,1.1181835068382322,4.595839598017931,6.0076382407873865,-0.3179428279399872,0.5991551876068115,0.7571526169776917
3.7071765136718753,0.8437985565558075,4.7481896756067865,5.970911561414599,-0.1154516488313674,0.5451909303665161,0.5093778371810913
3.7171425781249994,0.9736765439651904,4.597708899021148,5.874947680175304,0.1164470985531807,0.5067886710166931,0.2895730435848236
3.727108642578127,1.3982694452412423,4.436796744792163,5.8165621267020695,0.3807055056095123,0.4639545381069183,0.1513480395078659
3.737073486328125,1.8267593539558349,4.276880908124149,5.785128877562284,0.6963912844657898,0.3924635648727417,0.1236026957631111
3.747039550781249,2.1871774508327246,4.045127915735542,5.721229529103637,1.0329625606536863,0.3122002482414245,0.167051300406456
3.7570046386718765,2.4806290667653084,3.864612358631193,5.75324437752366,1.334407091140747,0.2737450003623962,0.2377366572618484
3.7669704589843747,2.489328506049514,3.7320103530853994,6.109029992294311,1.5615613460540771,0.2964153885841369,0.2958062589168548
3.7769367675781247,2.2870301562041044,3.6965754670888185,6.653582275164127,1.6758625507354736,0.262861967086792,0.3218924403190613
3.786901611328126,1.820849253129214,3.6181361366242166,6.907262437200546,1.691112756729126,0.2107085734605789,0.2892355620861053
3.7968674316406243,1.08716322241351,3.565085806699097,7.153963992395997,1.6236906051635742,0.2150047868490219,0.1579422503709793
3.8068337402343744,0.3553147823885083,3.6401924856096506,7.396748666408658,1.4911489486694336,0.2344764620065689,-0.0435420498251915
3.816798583984376,-0.1623480322510004,3.6389781413838262,7.421368728402257,1.3101407289505005,0.2671017944812774,-0.2696012854576111
3.8267646484375,-0.5463540715947747,3.664158175347745,7.443216987594962,1.0941541194915771,0.379871517419815,-0.4736074209213257
3.836730712890624,-0.496317244271934,3.67469622823596,7.473052738410234,0.8607078790664673,0.5120636224746704,-0.6131517291069031
3.8466955566406256,-0.1595901118449866,3.596441022166609,7.160901682704687,0.6600627899169922,0.629794180393219,-0.6284053921699524
3.8566616210937497,0.1027585098154842,3.5097429819226265,6.59803749807477,0.5626614093780518,0.7222303748130798,-0.5316647291183472
3.866626708984377,0.29233503299281,3.279277691257,5.906527644309401,0.5679501891136169,0.7949007749557495,-0.3845118582248688
3.8765925292968753,0.5456976535126566,2.8083529546558856,5.1411067511588335,0.6311911940574646,0.7993320226669312,-0.2699605226516723
3.8865585937499993,0.6149203889511525,2.376116552889347,4.2954380168169735,0.6965414881706238,0.7087830901145935,-0.200452834367752
3.896523681640627,0.3362101228155195,1.9414502936273808,3.456464396199584,0.7225890159606934,0.5556068420410156,-0.1564944386482238
3.906489501953125,-0.1809470803894102,1.3465741831868887,2.6680840677440165,0.6674863696098328,0.4256161749362945,-0.1515915542840957
3.916455810546875,-0.6730662153843789,0.686911420059204,1.7709043418735264,0.5289567708969116,0.3643426895141601,-0.2172006517648697
3.9264206542968765,-1.057677234883979,0.064115037035942,0.5056903450340032,0.3707655668258667,0.311594009399414,-0.3490552008152008
3.9363864746093746,-1.416761233612895,-0.5799246250241995,-1.2632231152832507,0.3075394630432129,0.3009765148162842,-0.4768342077732086
3.9463527832031247,-1.922614952515065,-1.3565169005304574,-2.814270069745183,0.2404304593801498,0.2909162938594818,-0.5726068019866943
3.956317626953126,-2.1247534356236457,-1.9722464139074083,-4.796939093467593,0.1430003196001052,0.298070341348648,-0.7144707441329956
3.9662836914062503,-1.9962886760130525,-2.5190882690191265,-7.103716737192869,0.079232782125473,0.2741977572441101,-0.8755110502243042
3.976248779296874,-1.749392182767391,-3.070381842842698,-9.86867946293354,0.2288225442171096,0.2879228889942169,-0.927759051322937
3.986214599609376,-1.6898410926461218,-3.743419635850191,-12.149252405822276,0.6165468692779541,0.2992003560066223,-0.8975421190261841
3.9961806640625,-1.6929206462219355,-4.017528837931156,-13.86147133449316,1.0931320190429688,0.2556361258029938,-0.8203940987586975
4.006145751953127,-1.0080904163509607,-4.784537292534113,-15.028712448358537,1.5252341032028198,0.0624069906771183,-0.6993528008460999
4.0161115722656255,0.1793087385978549,-6.083367143249512,-15.599629006540775,1.8004158735275269,-0.2460216730833053,-0.535780668258667
4.02607763671875,1.1111658100958912,-7.453208804777264,-15.401457381236552,1.8754175901412964,-0.5326781272888184,-0.3263863325119018
4.036042724609377,1.3622745872743427,-8.296024487775563,-14.222175116443632,1.7621477842330933,-0.7186520099639893,-0.1229453235864639
4.046008544921875,1.2670968879766762,-8.668143982231616,-12.632539780390262,1.5108072757720947,-0.7502573728561401,0.0568610541522502
4.055974853515625,1.132716547646746,-8.63061124717295,-10.809158816826343,1.1784484386444092,-0.7005313634872437,0.2304466813802719
4.065939697265627,1.116179911930859,-8.368682312229275,-9.137755298146605,0.8501051664352417,-0.6729583740234375,0.4346270859241485
4.075905761718751,1.2413336472973229,-8.00449361077249,-7.883806791687011,0.5889247059822083,-0.6480050683021545,0.6690115928649902
4.085870605468752,1.266868778309226,-7.569483068117499,-6.605151129472255,0.3985383808612823,-0.5725504755973816,0.9236196279525756
4.0958364257812505,1.0305915134292096,-6.916116774785518,-5.157360551345348,0.2032104283571243,-0.4335417151451111,1.1356154680252075
4.1058027343750005,0.5181118735812604,-6.02102262301743,-3.608574527552724,-0.0350884459912776,-0.1613810807466507,1.2111456394195557
4.115767578125002,-0.0949421369761228,-5.041081611829996,-1.7849995027214287,-0.3162295818328857,0.1263401806354522,1.141726851463318
4.1257333984375,-0.2749643576055765,-3.96209336643517,-0.2880103016614914,-0.6399616003036499,0.3142566382884979,0.9807301759719848
4.135699462890624,-0.10559197967574,-2.848025039830804,0.924580358493328,-0.9874234199523926,0.4154735505580902,0.8030120730400085
4.145664550781252,0.0831089297108352,-1.625328580725193,2.165713807043433,-1.3352394104003906,0.4707199037075043,0.6512823700904846
4.15563037109375,0.2236487425185739,-0.3564817803412675,3.1512586295872924,-1.6396667957305908,0.5032445788383484,0.5264962315559387
4.1655964355468775,0.0931863793499767,0.9121990158259868,3.821549754235148,-1.849653959274292,0.5838050246238708,0.4452488720417022
4.175561523437501,-0.0712082101672887,1.9387708452850576,4.51991663428843,-1.987714886665344,0.8054801821708679,0.418184757232666
4.1855275878906255,-0.3376046459138393,2.4502549712896347,5.540418788444995,-2.0829148292541504,1.0941367149353027,0.4721767008304596
4.195492675781249,-0.1815814327701926,3.7922710527807473,6.228331494501233,-2.0750997066497803,1.1671956777572632,0.5195234417915344
4.205458496093751,0.2155178238373249,4.660490641626716,5.890463229215145,-1.921647787094116,1.1077101230621338,0.5159733295440674
4.215424560546875,0.5373155365493149,5.217127914565801,5.897836388331651,-1.6823055744171145,0.9516425132751464,0.4688337743282318
4.225389648437499,0.7968475664190947,5.58315669093132,5.9378048261046406,-1.40375816822052,0.7012377977371216,0.4092997014522552
4.235355468750001,0.7438756354924291,5.512330173557997,5.983214578148722,-1.059414625167847,0.4839616417884826,0.2912710607051849
4.245321533203125,0.7855269848510622,5.429415743505954,6.433010602003336,-0.6944112777709961,0.2245237976312637,0.12242391705513
4.255286621093752,0.7602062272422015,5.244355528709292,6.633979164549708,-0.3327624797821045,-0.0243416801095008,-0.0396307706832885
4.2652524414062505,0.8335255112793296,5.035708686619997,6.958610931643843,-0.0288896914571523,-0.184290274977684,-0.1751434504985809
4.275218505859375,0.9608766836248338,4.624792136257887,7.48900550982356,0.2162926346063614,-0.2552491128444671,-0.2566039562225342
4.285183593750002,1.1633443986877798,4.355019794337451,7.85561004025042,0.4569751024246216,-0.3863467574119568,-0.2857221662998199
4.295149658203126,1.5846514101609588,4.3387414442315695,7.635210216525197,0.7063151597976685,-0.5792006850242615,-0.3291543424129486
4.305115478515624,1.7671920433521269,4.228330227705836,7.318243869492411,0.933110773563385,-0.6920273900032043,-0.3874174952507019
4.315080566406252,1.5412375081092118,4.123021010494232,7.529970557418465,1.0325933694839478,-0.6244171857833862,-0.4014315903186798
4.325046630859376,1.176700577736646,3.829084241393209,7.947426154160499,1.0567530393600464,-0.4029959738254547,-0.3919806182384491
4.33501171875,0.928697584553808,3.8304508535712953,8.233685228240489,1.0412909984588623,-0.1683786809444427,-0.3819636702537536
4.344977539062501,0.7156636864867061,3.77982599722743,8.176307390505075,0.9893697500228882,0.0184218157082796,-0.4117584824562073
4.3549436035156255,0.4883947076443583,3.853172388467193,8.01473326523602,0.8971719145774841,0.1341438889503479,-0.4672632813453674
4.364908691406249,0.2057837808083742,3.712787181699276,7.788733721807598,0.801010012626648,0.2604308128356933,-0.5106183290481567
4.374874511718751,0.101683354864642,3.79092256078124,7.797411533781886,0.6016944646835327,0.3831889629364013,-0.5260366797447205
4.384840576171875,0.0816330850046128,3.625976913252473,7.436376912441849,0.4845134019851684,0.378719687461853,-0.4832096099853515
4.394805664062499,0.1831370647143572,3.571160450437665,6.630500090262293,0.433134377002716,0.2289887964725494,-0.443004161119461
4.404771728515627,0.2088270940270274,3.2664678940445184,5.552898915311694,0.4775795042514801,0.0734180733561515,-0.3959602117538452
4.414737548828125,0.0133431003715842,3.027738048380613,4.773098783674836,0.5937553644180298,-0.0008337891194969,-0.3487253189086914
4.424702636718752,-0.2731895299527794,2.7135715611994264,3.889509776261449,0.7520184516906738,0.0445873029530048,-0.3242734968662262
4.434668701171876,-0.5815031994525343,2.1832705065220592,3.037496056807041,0.9184449911117554,0.0855179578065872,-0.3523472249507904
4.4446345214843745,-0.663830769527331,1.3376263220995663,1.911670072391629,1.0335968732833862,0.0406539365649223,-0.4446266293525696
4.454599609375002,-0.6670384795274585,0.3307856135487556,0.8091933993816375,1.065441370010376,-0.0656663849949836,-0.6280209422111511
4.464565673828126,-0.6200936268705874,-0.5736246480971574,-0.053549803879857,0.9998300671577454,-0.2908359467983246,-0.8256382942199707
4.47453076171875,-0.5244936835728585,-1.573179291293025,-1.1295394519805908,0.7972865700721741,-0.5869560241699219,-0.9598978757858276
4.484496582031252,-0.7466092982400209,-2.052704098457098,-2.121380159798264,0.4605504870414734,-0.7334671020507812,-1.0494741201400757
4.494462646484376,-1.0081174504883588,-2.5612708757102487,-3.2801381074786184,0.125399112701416,-0.6237502098083496,-1.0972554683685305
4.504427734375,-1.1436510525066406,-3.577608895924687,-4.745295999991893,-0.1438039094209671,-0.2679660618305206,-1.0557972192764282
4.514393798828127,-1.0292406102769076,-5.004167300930619,-6.465657318586111,-0.3239624798297882,0.3009980618953705,-0.8662074208259583
4.5243596191406255,-0.7994841254677623,-6.478645394974946,-7.881274642860889,-0.3875641226768493,0.948390007019043,-0.5755596160888672
4.534324707031249,-0.5681523906985297,-7.477657017335296,-9.211550602197647,-0.344360202550888,1.3075207471847534,-0.3066543638706207
4.544290771484377,-0.1629022686002776,-8.021306213885545,-10.961111127269268,-0.3038167059421539,1.2764338254928589,-0.1600865721702575
4.554256591796875,0.6978244437396526,-8.601583890131115,-12.277888138085602,-0.3356276452541351,0.8641424775123596,-0.145891934633255
4.564221679687499,1.373627025285363,-9.147341457137465,-13.182073358803986,-0.4303083121776581,0.1935927420854568,-0.1839437335729599
4.574187744140627,1.3277702601261436,-9.335934522235393,-13.62843648560047,-0.5606916546821594,-0.4115890562534332,-0.231831893324852
4.584153564453125,1.162400395835936,-9.448704576846955,-13.15657300684452,-0.7573829293251038,-0.8466749787330627,-0.2625993490219116
4.594118408203126,0.9683006230805068,-9.238180834969878,-12.400774513041972,-0.9829534888267516,-1.0592175722122192,-0.1655830442905426
4.604084716796876,0.5428370399171486,-8.968373713997005,-11.310489213085171,-1.2122787237167358,-0.969030261039734,0.0965195819735527
4.614049560546874,0.0719254550585523,-8.68175048277974,-9.873045841449498,-1.414899230003357,-0.6166397333145142,0.4791702926158905
4.624015625000002,-0.4266762468887493,-8.1319117839396,-8.591197520673274,-1.5287818908691406,-0.0447255484759807,0.8740213513374329
4.6339814453125,-0.9763467860877514,-7.517436654537915,-7.199523382043839,-1.5867626667022705,0.5536113381385803,1.161542534828186
4.643946533203124,-1.4435714991271495,-6.82111034040153,-5.9728749704420565,-1.636412262916565,1.0325502157211304,1.251732587814331
4.653912597656252,-1.715769899150729,-5.856736316180229,-4.587831063607335,-1.6935747861862185,1.2567598819732666,1.0773011445999146
4.66387841796875,-1.6043727403275667,-4.523125659462809,-3.197432936263084,-1.692896604537964,1.185309886932373,0.7665247321128845
4.673843505859377,-1.063770364127308,-3.284439604064822,-1.8957178855001928,-1.586346983909607,0.8424686193466187,0.4684967696666717
4.683809570312501,-0.5505300421051681,-2.0339929682463405,-0.623659721854329,-1.3731709718704224,0.3267510533332824,0.1926366239786148
4.6937753906249995,-0.4308585375420748,-0.7272454762741923,0.6875935571044683,-1.0820834636688232,-0.2208307981491089,-0.0599647350609302
4.703740478515627,-0.2581680845728143,0.4901575525984167,2.2154577888995406,-0.7914798855781555,-0.6840193867683411,-0.2473826110363006
4.713706542968751,0.0228243376832455,1.485542508894205,3.6740380565881727,-0.5343104004859924,-0.9850276708602904,-0.297454297542572
4.723672363281249,0.2451223597126081,2.1851783859699965,5.065558465960621,-0.3357235491275787,-1.052148938179016,-0.2451826781034469
4.733637695312499,0.4646269516311586,2.755852075307071,6.464599918487668,-0.2236529141664505,-0.9117535352706908,-0.1408754289150238
4.743603515625001,0.5004077284559607,3.298140797159076,7.337547120377421,-0.1441462635993957,-0.6200175881385803,0.0016374792903661
4.753569580078125,0.4875030195016414,3.608728256809712,7.9727114020645615,-0.0565303973853588,-0.2561398148536682,0.1554752439260482
4.763534667968752,0.6673530253693462,3.742573540414869,8.354486029094456,0.0376585945487022,0.0627389848232269,0.2847265601158142
4.77350048828125,0.9461284656956792,3.9487905250087376,8.46149269787371,0.1240443587303161,0.2592520415782928,0.3786109983921051
4.783465576171874,1.2513424156144262,4.056985819050669,8.35024473826289,0.2228757888078689,0.3600851893424988,0.4247133135795593
4.793431640625002,1.511407017990947,4.150137273217737,8.242844686251878,0.3588115274906158,0.3819476068019867,0.4125125706195831
4.8033974609375,1.6472861455112695,4.116790883933008,8.020236538827419,0.5323907732963562,0.2645609974861145,0.3638432323932647
4.8133625488281275,1.7991344110578298,4.080547019641101,7.696596120858192,0.7010064125061035,0.049647644162178,0.2929517328739166
4.823328613281252,1.9394278478890656,4.107151825711131,7.448297651860117,0.8400870561599731,-0.2004455476999282,0.2114342451095581
4.83329443359375,1.9535089802116157,4.037494644378126,7.297006435674429,0.9268574118614196,-0.3814803063869476,0.137545645236969
4.843259765625,1.804642945346236,3.903479264903068,7.390693019631504,0.9418553709983826,-0.4347034394741058,0.0806478708982467
4.853225585937501,1.5903960912927984,3.8615725525438784,7.53048493668139,0.868892252445221,-0.4018557667732239,0.0557734183967113
4.863191650390625,1.185357931444794,3.859478795135021,7.477808993026613,0.7293983697891235,-0.2780015468597412,0.0240857638418674
4.873156738281249,0.8193678796544671,3.916238208711147,7.4130632568717,0.5635519027709961,-0.1042150929570198,-0.0150366062298417
4.883122558593751,0.4188887713503092,3.8996272656500337,7.047349537804722,0.4169085323810577,0.0599592924118042,-0.0721981301903724
4.893088623046875,0.0878897342465818,4.022214365398884,6.440527553504705,0.3608154356479645,0.2505100667476654,-0.1312915384769439
4.903053710937506,0.0199015090391039,4.0193326724827285,5.979458440485597,0.3916728496551513,0.3803885281085968,-0.178691029548645
4.913019531249997,0.0409485348515212,3.896097922480106,5.262496165555715,0.4937246143817901,0.4302205443382263,-0.2248334884643554
4.922985839843751,-0.0775373401235789,3.974411580738425,4.731542199927568,0.6646124124526978,0.4220155477523803,-0.2594627737998962
4.932950683593752,-0.2057682909782975,4.01964831430316,4.298247229018807,0.8484885096549988,0.315826267004013,-0.2801834940910339
4.94291650390625,-0.2582811164932325,3.931206645262241,3.581118365350365,1.0455832481384275,0.2057331502437591,-0.320572942495346
4.952882812499997,-0.2887689380090683,3.5970933485955,3.1356185773849488,1.2596148252487185,0.0567559227347373,-0.3509540259838104
4.962847656250002,-0.3984379943979904,3.139342566344142,2.6408172906339167,1.4101181030273438,-0.1261621564626693,-0.3560096621513366
4.9728134765625,-0.3222411090979352,2.8313129744827745,2.1963415850192307,1.4331669807434082,-0.3007097244262695,-0.3461011052131653
4.98277880859375,-0.1257275897316634,2.2570143726468084,1.736546145197749,1.328438639640808,-0.3452554047107696,-0.375752717256546
4.992744628906248,-0.1035655518820509,1.5198720639973875,1.4975620325118302,1.1503450870513916,-0.3132601976394653,-0.4556736648082733
