time,ax,ay,az,gx,gy,gz
0.0,3.1957103502541777,-4.448820652323961,1.29366150816679,0.0176015775650739,-1.9577211141586304,0.3027878999710083
0.009964843750000174,2.669092952525616,-3.0951860292315483,2.279245493677258,-0.4235201776027679,-1.7788184881210327,0.4149514436721802
0.019930175781250004,2.0125471523746845,-1.6306909845411777,3.1087364156782624,-0.7359488010406494,-1.324702262878418,0.5768914818763733
0.029895996093749932,1.5047520901463924,-0.1779839928001165,3.755292444473505,-0.9644381999969482,-0.7635456919670105,0.7224140763282776
0.03986083984375011,1.2438007680632173,1.1466045685499906,4.134496344232559,-1.1459294557571411,-0.2305646389722824,0.8211511373519897
0.04982568359374984,0.9778474729742854,2.3814812947928905,4.353599698406458,-1.2974257469177246,0.1833755522966385,0.9031464457511902
0.05979101562500011,0.7798376141030341,3.2962212272733447,4.439270733690262,-1.448340654373169,0.4438807964324951,0.967341959476471
0.06975585937499984,0.4834438072387129,3.8474429049044847,4.413256002467871,-1.5921330451965332,0.5144428610801697,0.982492983341217
0.07972094726562506,-0.0749319068655371,4.290505236589908,4.23416024903357,-1.6959378719329834,0.4206449389457702,0.9003596901893616
0.08968579101562524,-0.6034150254007429,4.69155330388844,3.907368673557043,-1.7311147451400757,0.2527552843093872,0.7685340046882629
0.09965112304687507,-1.0860239161852747,5.071262230560183,3.6403023757249113,-1.6953061819076538,0.1421653777360916,0.6608760356903076
0.10961572265625019,-1.4117548036277294,5.47123828471303,3.6801580007731913,-1.6063374280929563,0.1458876729011535,0.5857226848602295
0.11958081054687497,-1.430338508066535,5.629291250118613,3.747154730725288,-1.4512518644332886,0.2185712605714798,0.5317673683166504
0.12954565429687515,-1.2994080889947712,5.64971912111938,3.711781804049015,-1.244996190071106,0.3316288292407989,0.4749855697154999
0.13951147460937507,-1.0661643465917556,5.577291598290205,3.804767546260357,-1.0275135040283203,0.4318516850471496,0.4129385650157928
0.14947631835937525,-0.8453657328072934,5.453839406144619,3.940175549137592,-0.8044193387031555,0.4302074611186981,0.3501910269260406
0.15944165039062508,-0.6036571635935455,5.212056602650881,3.9514463002145286,-0.6269326210021973,0.313187688589096,0.2435766756534576
0.16940649414062525,-0.3793495918400585,5.0040340299397705,4.096863071408867,-0.5051643252372742,0.1127983927726745,0.1133233159780502
0.17937158203125003,-0.2475165248401463,4.847446460911631,4.258639441251755,-0.4022834002971649,-0.1093313544988632,-0.0028810147196054
0.1893364257812502,-0.2007412565965205,4.5850008086174725,4.551644482460618,-0.3160750269889831,-0.2800815105438232,-0.1071437671780586
0.19930151367187499,-0.2905152702197432,4.425072112467885,4.79631014791429,-0.2508648633956909,-0.369077056646347,-0.2112067490816116
0.2092666015625002,-0.3643539019558579,4.333177088102698,4.941010295271873,-0.1863593906164169,-0.3919658660888672,-0.3216917216777801
0.21923144531249994,-0.5015904354345053,4.250370794600248,4.883135613930225,-0.1056637316942215,-0.3264174461364746,-0.4144972860813141
0.22919653320312516,-0.706258071694523,4.182557487568259,4.914998486658931,-0.0383307635784149,-0.2102429121732711,-0.4887038767337799
0.23916259765625014,-0.8400754443794488,4.145343901461363,4.854049804699421,0.0090591814368963,-0.0892344042658805,-0.5581538677215576
0.24912744140624987,-0.9007030046258121,4.1021676075577735,4.524425051623583,0.0982191488146781,0.0795080140233039,-0.6056886315345764
0.2590925292968751,-0.9197565915986896,4.01112540062964,4.168300998678803,0.218475267291069,0.3047899007797241,-0.5912678837776184
0.2690578613281249,-0.9277339271534234,3.923212723898888,3.919221608436108,0.3467608094215393,0.5016515851020813,-0.5680930614471436
0.27902246093750005,-0.7613063705038279,3.687856738582253,3.506412376195192,0.4902743101119995,0.6069459319114685,-0.5683684945106506
0.28898754882812483,-0.5052684663601219,3.321685338875651,2.957160537332296,0.6353774666786194,0.6044028401374817,-0.5720244646072388
0.298952392578125,-0.2507910895314067,2.821105468723178,2.437213118886948,0.7548313736915588,0.4936566650867462,-0.5707311630249023
0.3089174804687502,-0.1262326897095888,2.247398987561464,1.9415303731262683,0.8169922232627869,0.3243195712566376,-0.5765419602394104
0.318882568359375,-0.1005664796639233,1.669756335994601,1.4325871637761591,0.8062799572944641,0.1303997784852981,-0.5966382622718811
0.32884765625000023,-0.1126285272490233,1.1772609880983829,0.732270318698883,0.7384436130523682,-0.022581236436963,-0.6355438828468323
0.33881347656250016,-0.1022317825276404,0.7018354329466819,-0.074697221326828,0.6527197957038879,-0.1143371611833572,-0.6645277142524719
0.34877880859375,-0.0071970353646203,-0.0723673170745372,-1.085047399303317,0.5524632334709167,-0.136358842253685,-0.6727137565612793
0.3587434082031251,-0.0117488534500822,-0.7844307140469551,-2.218944461971521,0.4291701316833496,-0.0614573769271373,-0.6561449766159058
0.3687084960937499,-0.2237221730809658,-1.3863959059655666,-3.2269086215943097,0.2757994830608368,0.0937172994017601,-0.619813084602356
0.37867333984375007,-0.6827613146424293,-1.9073644841521975,-4.337216718882322,0.1338581591844558,0.3364010155200958,-0.5856244564056396
0.3886386718749999,-1.123553509438783,-2.4961527991116044,-5.475085607790946,0.0739623308181762,0.658815324306488,-0.5780038237571716
0.39860351562500007,-1.01253738582246,-3.3984500141263005,-6.698406920796632,0.1245207861065864,0.9229888916015624,-0.5894031524658203
0.40856860351562485,-0.5217727707089856,-4.265799249878525,-8.28459825387597,0.2863205969333648,1.0675915479660034,-0.5751136541366577
0.418533447265625,0.1962581015667878,-5.155064549362659,-9.556467616951466,0.4721415340900421,1.0890285968780518,-0.5314615964889526
0.42849975585937505,1.5566395137719808,-6.338765215119719,-10.265807141917945,0.6088376045227051,0.959745228290558,-0.4199177920818329
0.4384643554687502,3.258672710123658,-7.917061411035061,-10.52387355621457,0.6370372772216797,0.7010056376457214,-0.2556513845920563
0.44842944335937496,4.533696153315901,-9.298326968374848,-10.328839644414186,0.5417965650558472,0.3661216497421264,-0.0562282763421535
0.45839428710937513,4.746956626680493,-9.826126269364355,-9.622579380762575,0.3172148466110229,0.0185864493250846,0.117973580956459
0.46835961914062496,4.263726535257697,-9.520530042129757,-8.533836049550771,-0.0201661251485347,-0.2802055776119232,0.2197686433792114
0.47832446289062514,3.640869069696963,-8.778176136311888,-7.436824071687459,-0.4040917158126831,-0.4875385463237762,0.294410228729248
0.4882895507812499,3.126976128984988,-7.970797092875838,-6.461084019321203,-0.7444037795066833,-0.5356938242912292,0.4203636050224304
0.4982543945312501,2.838767966663837,-7.416216752466559,-5.551827486687898,-0.950901985168457,-0.4222655296325683,0.6254152655601501
0.5082194824218749,2.6467899353027344,-6.83575027565062,-4.75725590237677,-1.019339680671692,-0.1897417306900024,0.8526628017425537
0.5181855468749998,2.359460455512256,-6.030661973500251,-3.8290234511166807,-1.0092061758041382,0.0617409348487854,1.032914638519287
0.528150390625,2.0679310398139057,-5.0707858452200885,-2.862815781727433,-0.9710870981216432,0.2120377719402313,1.0983601808547974
0.5381154785156252,1.9843691056385635,-4.001564376080036,-1.980877464130521,-0.911882221698761,0.2101455330848693,1.1082806587219238
0.54808056640625,1.863962710929662,-2.822918071103096,-1.0906196464776992,-0.8219970464706421,0.0656908899545669,1.0844285488128662
0.5580454101562502,1.5047453681446612,-1.5217752672702074,-0.1603273400783538,-0.6907708048820496,-0.2089558988809585,1.0016669034957886
0.568010498046875,0.917200112048909,-0.1345803198814392,0.7299258013993501,-0.5296275019645691,-0.5800207853317261,0.8626885414123535
0.5779755859375002,0.2068989024434238,1.1806488769710064,1.655536087462306,-0.3737390339374542,-0.9385855197906494,0.7274852991104126
0.587940673828125,-0.3633528351545333,2.267934995111823,2.642189748030901,-0.2437096685171127,-1.137701153755188,0.6337505578994751
0.5979064941406249,-0.6919549671843648,3.070644877693057,3.778737032946944,-0.1622083336114883,-1.1664520502090454,0.5990563035011292
0.6078713378906251,-0.8921795064304023,3.641660804596543,4.654710304659605,-0.1202840507030487,-1.0367937088012695,0.6096644401550293
0.6178364257812499,-1.0146183568149805,4.076475532418489,5.377878448492289,-0.1087145656347274,-0.7650904059410095,0.6489571928977966
0.6278015136718751,-0.919331132728234,4.340417560750246,5.95464665531218,-0.1052700281143188,-0.4370946288108825,0.6870347857475281
0.6377663574218748,-0.6628511839054525,4.5227620868474245,6.170146432036161,-0.078450821340084,-0.1216802075505256,0.7110996842384338
0.6477314453125,-0.282638691625744,4.554223977559805,6.265023687082529,-0.0348623283207416,0.1185350567102432,0.7221973538398743
0.6576967773437499,0.1445896727204322,4.509059140187501,6.167727095934748,0.0252670906484127,0.241201251745224,0.6967371702194214
0.66766162109375,0.5447716247089207,4.505588833728432,5.962556405523419,0.1097561344504356,0.2277640104293823,0.644467830657959
0.6776264648437502,0.8069409442797303,4.420748404049873,5.713349004986882,0.2013286352157592,0.0830415114760398,0.5503730773925781
0.6875927734375002,0.838902016685903,4.425582984599471,5.529903824171424,0.2847521603107452,-0.1349158436059951,0.4143508076667785
0.6975573730468749,0.7800140666484833,4.507388576626777,5.458668725997209,0.3351233005523681,-0.3471566438674927,0.2765745818614959
0.7075224609375002,0.6808036047033965,4.550599357321858,5.520065736246108,0.3538629114627838,-0.480732262134552,0.146579310297966
0.7174875488281249,0.5050006092041731,4.589608010151982,5.620577782309055,0.3500384986400604,-0.5089939832687378,0.0317834392189979
0.7274526367187502,0.3274401025131344,4.612192182403803,5.677984261617064,0.3186462223529815,-0.4544617533683777,-0.0507423281669616
0.7374177246093749,0.1278773151114583,4.643783252453804,5.63858339459896,0.2687455117702484,-0.337663859128952,-0.1019804552197456
0.7473825683593751,-0.0609630027458071,4.701570840033889,5.4745595380902285,0.2107652872800827,-0.1596661657094955,-0.1632549911737442
0.7573476562499999,-0.3109831809699535,4.867443539279699,5.275700515043735,0.1754472851753235,0.0507999770343303,-0.2439491003751754
0.7673137207031249,-0.648232291444391,5.015048175907134,4.929813193953037,0.1709217727184295,0.2628392875194549,-0.3421987295150757
0.7772783203125,-0.9060878394693136,5.08736405505538,4.498299261242151,0.1936352103948593,0.4781498610973358,-0.4410781860351562
0.7872434082031252,-1.0104569993518293,5.076500715735555,4.090412872356176,0.2703433036804199,0.6302048563957214,-0.5249980688095093
0.79720849609375,-1.0333667502962052,4.871995795756578,3.465639636301994,0.3883046805858612,0.7012549042701721,-0.5875381827354431
0.8071735839843752,-0.9004225071839987,4.515590587782859,2.859104067727923,0.5477516055107117,0.6925112009048462,-0.6200050115585327
0.817138671875,-0.7514931978240609,3.9641543906182046,2.27258486674428,0.7083615064620972,0.5678696036338806,-0.6386430263519287
0.8271035156250002,-0.7272531481239944,3.448685578891635,1.587206063079834,0.8544699549674988,0.3870514035224914,-0.6675527095794678
0.8370695800781252,-0.7955931824438274,2.900702152529359,1.0376467657029629,0.9690807461738586,0.1832395493984222,-0.7182935476303101
0.8470346679687499,-0.7505948607448488,2.0465461603492496,0.4249819005936384,1.0333694219589231,-0.0018621296621859,-0.7766809463500977
0.8569995117187501,-0.9584618045028298,0.9540279867738484,-0.1365431443870067,1.0354691743850708,-0.1151299849152565,-0.8823261260986328
0.8669643554687498,-1.386820268857479,-0.0872884073525667,-0.7113549564421177,0.940853476524353,-0.2040902078151703,-1.0398651361465454
0.8769294433593751,-2.024882025551796,-0.878427094605565,-1.4796721555560826,0.7089952230453491,-0.2495817393064499,-1.2590081691741943
0.8868945312499998,-2.777054730072617,-1.0190735826581716,-2.3256933565974234,0.4060292541980743,-0.161703273653984,-1.490236520767212
0.8968596191406246,-2.8631822769522666,-1.7507932817369698,-3.240421598640084,0.1226479336619377,0.0387799106538295,-1.6620067358016968
0.9068244628906252,-2.2382271084599195,-3.2143244498312478,-4.555559025555849,-0.1443712413311004,0.2542815804481506,-1.7248932123184204
0.9167905273437502,-1.5673293962210415,-4.6251124542534345,-6.117960902246833,-0.3621357083320617,0.5274162292480469,-1.7009382247924805
0.926755615234375,-1.3731243364602326,-5.127858562529087,-7.192745266211032,-0.4715079963207245,0.8254165053367615,-1.5878623723983765
0.9367207031249998,-1.114993113299087,-5.434007162949443,-8.069518748390674,-0.4599847495555877,1.1320961713790894,-1.4068238735198977
0.9466853027343753,-0.4074277949308976,-5.827168276390433,-8.609883516442775,-0.3475330471992492,1.3569029569625854,-1.1907693147659302
0.9566506347656252,1.0678671319216488,-6.638081339171529,-8.981970862194895,-0.2007879763841629,1.408392071723938,-0.9102909564971924
0.9666154785156249,2.9455171535506843,-7.942671068587899,-9.070221977099775,-0.1152669638395309,1.2726632356643677,-0.5778826475143433
0.9765805664062497,4.533963864341378,-9.08369637570083,-8.660891819146276,-0.1080899462103843,0.994038224220276,-0.2774592936038971
0.9865466308593747,5.783834746098518,-9.889016148519516,-7.805700638699531,-0.1852763295173645,0.5344328284263611,0.0482032112777233
0.9965117187500008,6.507765106475353,-10.347475371301174,-6.922106370589137,-0.3737538158893585,-0.1532867401838302,0.5219964981079102
1.0064765625000005,6.615975890347361,-10.54871690557003,-6.259022985363006,-0.6662951111793518,-0.8466506004333496,1.052559494972229
1.0164416503906253,5.863118710693716,-10.338728585743905,-5.257248328030109,-1.037368655204773,-1.2754768133163452,1.476589322090149
1.0264062500000009,4.0571559149205685,-9.083328711432218,-4.002040176898241,-1.4138171672821045,-1.3545018434524536,1.7260711193084717
1.0363715820312507,1.914071142183989,-7.386147777417301,-2.87955064342916,-1.7435563802719116,-1.0932410955429075,1.84475576877594
1.0463364257812504,0.1549101738678291,-5.554310535675287,-1.806539718878269,-2.0110137462615967,-0.677636981010437,1.8198671340942385
1.0563024902343754,-0.926274010668695,-3.6494109803318975,-1.2880343159347771,-2.149422407150269,-0.188913494348526,1.7091786861419678
1.0662675781250002,-1.1475625999271868,-2.010524998897314,-0.7479249839484691,-2.1491644382476807,0.2425524294376373,1.5894005298614502
1.0762326660156258,-0.8793379989054053,-0.6480711095333099,-0.3973281699925661,-2.005513429641724,0.4796428978443146,1.4781163930892944
1.0861975097656256,-0.3930155309578403,0.6692512602061033,-0.1593576182633638,-1.6971445083618164,0.4757456481456756,1.4093769788742063
1.0961625976562503,0.1226665947258472,1.9491595528304573,0.3542547519415617,-1.2599576711654663,0.2124964594841003,1.3595701456069946
1.1061276855468751,0.5645337252773344,3.0693647747546438,0.9667384152650832,-0.7691311836242676,-0.2689681649208069,1.33359956741333
1.116093505859375,0.4719568561278283,4.058447123774886,1.7699106546610592,-0.2785123884677887,-0.7685937881469727,1.2650622129440308
1.1260583496093757,0.0137360452119261,4.935535078731179,2.954629557549953,0.1461310535669326,-1.1383901834487915,1.1172237396240234
1.1360234375000005,-0.4591460360020399,5.534371909496188,4.238288727140427,0.4688462316989898,-1.2672606706619265,0.9485811591148376
1.1459887695312503,-0.7840209642022847,5.80171760879159,5.583505650499463,0.7016621828079224,-1.1503894329071045,0.8128896355628967
1.155953857421875,-0.826672211318463,5.731374491021037,6.691176969543099,0.8604844212532043,-0.8744339942932129,0.7263031601905823
1.1659189453125007,-0.6153190328799187,5.518184744805097,7.436154209601879,0.9727507829666138,-0.5660434365272522,0.6630626320838928
1.1758840332031255,-0.2096418444760143,5.246061163583398,7.906847475534677,1.0209254026412964,-0.3327808976173401,0.5998514294624329
1.1858498535156254,0.1916520142771303,5.001657363936305,8.099177389073372,1.0009359121322632,-0.1969450265169143,0.5328577160835266
1.1958149414062502,0.3627420097798108,4.937848616370559,8.218156819719075,0.9419334530830384,-0.1101645678281784,0.427787035703659
1.2057800292968759,0.3868832022152841,4.8998985326826565,8.382812544390559,0.8282886743545532,-0.042268868535757,0.2971763014793396
1.2157446289062506,0.3486183534897863,4.709067333269119,8.42723328539729,0.6596133708953857,0.0306762773543596,0.127394437789917
1.2257097167968753,0.2677512113563716,4.6096799073219294,8.404044717511534,0.4382814764976501,0.1101388782262802,-0.0648993849754333
1.2356750488281252,0.1193716448336839,4.570770038691163,8.339547987681627,0.176147848367691,0.1822211593389511,-0.2464294284582138
1.245640869140625,0.0930199367418885,4.506855492663383,8.04587717604041,-0.0789595395326614,0.2683504521846771,-0.3959632515907287
1.2556057128906257,0.1116768525473773,4.40917311706841,7.692691514635086,-0.2920775413513183,0.3759892880916595,-0.5235581994056702
1.2655710449218756,0.170915515718609,4.376896987363696,7.226478608986735,-0.4287933111190796,0.4697317481040954,-0.6262699365615845
1.2755358886718753,0.1761499092407524,4.457915812927484,6.603074323198199,-0.4784158766269684,0.5390809178352356,-0.6967542171478271
1.2855009765625,0.1837429947182536,4.539131037846207,5.7947278960347175,-0.4215339422225952,0.584182620048523,-0.7326597571372986
1.2954658203125007,0.1876972853019833,4.392134888505935,5.010687642610073,-0.2511877715587616,0.6024258136749268,-0.735392689704895
1.3054309082031255,0.1337642542582005,4.181815729290247,4.311052350056171,-0.0307888258248567,0.5819873809814453,-0.7381740808486938
1.3153967285156254,0.0800431854646653,3.93210388636291,3.641393678092956,0.2085984498262405,0.5360029935836792,-0.755447268486023
1.3253618164062502,0.0134139736507087,3.4065070638537405,2.991284925252199,0.4258002638816833,0.4326667487621307,-0.7746111154556274
1.3353266601562508,-0.042904856551066,2.7636785311490297,2.172071651637554,0.6031476259231567,0.2926770448684692,-0.8197525143623352
1.3452919921875006,-0.1108975387379527,1.99007374702096,1.3063128999471665,0.7343866229057312,0.1819260120391845,-0.8680473566055298
1.3552568359375003,-0.1677257067013531,1.1182581795096396,0.4811456863641739,0.8111502528190613,0.0934218913316726,-0.9057373404502868
1.3652219238281251,-0.2618642722096294,0.3213444159865379,-0.3678653441429138,0.8113616704940796,0.01263037789613,-0.94838947057724
1.37518798828125,-0.2811064040245488,-0.3686562022596597,-1.2829565742790698,0.7537565231323242,-0.0477304868400096,-1.030448079109192
1.3851530761718758,-0.2277197182845324,-0.8485545189112425,-2.2064117281347517,0.654995322227478,-0.1505801677703857,-1.1295431852340698
1.3951176757812505,-0.175418160900101,-1.3695605064988134,-3.3692128137260675,0.5270829796791077,-0.1979861855506897,-1.1886842250823977
1.4050827636718752,0.1127163881955668,-2.0435107381761077,-4.480653714436293,0.407595157623291,-0.2178315222263336,-1.2083442211151123
1.415047851562501,0.4794130538852885,-2.52148948494196,-6.001382687523961,0.4034913778305053,-0.1289828419685363,-1.17061448097229
1.4250129394531257,0.9943954338017852,-3.320069135850668,-7.273313425397872,0.5502381920814514,0.0666923820972442,-1.035840630531311
1.4349787597656256,1.8131759420223528,-4.575550843226909,-8.323057456129789,0.7585405707359314,0.2483256459236145,-0.8245428204536438
1.4449438476562504,2.7752327753424644,-5.903536645799875,-9.296727131962776,0.9497054815292358,0.3550512790679931,-0.5887752771377563
1.4549089355468752,3.730487673562765,-7.062421434730291,-9.9103839307189,1.0553462505340576,0.3026709854602813,-0.3035045862197876
1.4648740234375008,4.683791729976236,-8.282221587872504,-10.156798485666512,1.0518416166305542,0.1720557063817978,0.0577968992292881
1.4748386230468755,5.2559647179603575,-9.164858409127593,-9.58799555863738,0.8674227595329285,-0.0516819804906845,0.4600791931152344
1.4848037109375003,5.319740147778392,-9.61268576325774,-8.797411582657695,0.4393621981143951,-0.3796188533306122,0.8214067220687866
1.4947697753906253,5.097105696868896,-9.708153385412691,-7.97055159368217,-0.2189206928014755,-0.7184553742408752,1.1533046960830688
1.50473486328125,4.509825740645826,-9.510791907447576,-7.149987489980459,-0.9650508165359496,-0.9615479707717896,1.4652785062789917
1.5146997070312507,3.2789950749233365,-8.806443614897132,-6.605023119178414,-1.565077304840088,-0.9725733399391174,1.7214977741241455
1.5246650390625005,1.6758020458996294,-7.68848587963879,-6.009573008242249,-1.9470360279083248,-0.6507359147071838,1.9055315256118772
1.5346298828125002,0.3016778116818517,-6.509949464777112,-4.935196056035161,-2.1775810718536377,-0.1563107669353485,1.9868584871292116
1.544594970703126,-0.7097735324695706,-5.10784161041677,-4.235519846948981,-2.277822494506836,0.3483785092830658,1.973226547241211
1.5545607910156258,-0.9945722516734152,-3.9459763443708415,-3.700311731007695,-2.2350354194641118,0.7411094903945923,1.8939906358718872
1.5645261230468757,-0.6535030714541673,-2.9671009165883064,-3.0783383548051115,-2.0851402282714844,0.9819706082344056,1.7877349853515625
1.5744907226562503,-0.1271841452155262,-1.851598173266649,-2.1236177095919846,-1.87217378616333,0.9648410081863404,1.6899503469467163
1.5844558105468751,0.4145605328876525,-0.8716980786114931,-1.255773968321085,-1.5886517763137815,0.6751671433448792,1.6142282485961914
1.5944206542968757,0.6672557755399495,-0.0082528645604848,-0.4548001157522201,-1.2450703382492063,0.2520312070846557,1.5627721548080444
1.6043859863281256,0.5338474951125681,0.8814514108628034,0.6313730727106333,-0.8842573165893555,-0.2161575853824615,1.500403881072998
1.6143518066406255,0.2458122051402926,1.644701974236965,1.5631185005277397,-0.5193371772766113,-0.6102558374404907,1.4326015710830688
1.6243168945312503,-0.1318356973484158,2.156349181848764,2.650611539417505,-0.1813314110040664,-0.8301869034767151,1.3695999383926392
1.634281982421875,-0.3943859790608287,2.3499960232049224,3.832117325478792,0.0744150727987289,-0.8961766958236694,1.3036868572235107
1.6442470703125007,-0.582473140463233,2.534557640829682,4.748872104912996,0.2309641987085342,-0.8421118855476379,1.2239491939544678
1.6542119140625005,-0.7106510459564626,2.723985987707972,5.5390317180007695,0.3230114579200744,-0.6913926005363464,1.1581658124923706
1.6641767578125002,-0.7105969776816665,2.808206824183464,6.177201026722789,0.3709329068660736,-0.4793738126754761,1.082388162612915
1.6741428222656252,-0.6358009721554816,2.820191276487708,6.602137334609031,0.3860883712768554,-0.267617404460907,0.9907156825065612
1.6841079101562508,-0.4646550086818635,2.7742852653592824,6.851848593014478,0.3686183094978332,-0.100990891456604,0.8762391805648804
1.6940727539062506,-0.1945603029392659,2.725013577190041,6.999580070891976,0.330870658159256,-0.0107845067977905,0.7334339022636414
1.7040378417968753,0.1133110296204686,2.5962708774209022,6.964225848916173,0.2719333171844482,-0.0107312444597482,0.5680443644523621
1.7140029296875001,0.3588581540837883,2.3939748656630515,6.874688785853982,0.1985819935798645,-0.0659511163830757,0.3848353624343872
1.723968994140625,0.5090792568199336,2.282409510666132,6.879537394928931,0.1069697961211204,-0.1204660236835479,0.1944702267646789
1.7339338378906257,0.6323477629616856,2.2439771964192388,6.921397930058837,-0.0149214919656515,-0.1302765905857086,0.0109571162611246
1.7438991699218755,0.6668170187965035,2.2207196549504995,6.930754956468939,-0.161052867770195,-0.0808613523840904,-0.1477097570896148
1.7538637695312502,0.5681916632629931,2.419856910416484,6.878379457065463,-0.3222280442714691,0.0607231333851814,-0.294962614774704
1.763828857421876,0.3081105481430888,2.8410896876096725,6.7354872359126805,-0.4678097367286682,0.2553304135799408,-0.4144477248191833
1.7737937011718756,0.1312719259858131,3.206282013151049,6.405357455924153,-0.5803282856941223,0.4558004140853882,-0.5073938965797424
1.7837597656250006,0.0835883837908506,3.449225677117705,5.894647821423411,-0.6482335329055786,0.6407108902931213,-0.5911383628845215
1.7937248535156254,0.0296536722466349,3.765634974789619,5.315212441220879,-0.6461853384971619,0.8106744289398193,-0.652281641960144
1.8036899414062502,-0.1138940902054309,4.000774102485179,4.688951012435555,-0.5718753933906555,0.9290953874588012,-0.708162784576416
1.8136547851562508,-0.3038568362213671,4.253897799682617,3.890134045639634,-0.4220417439937591,1.0064517259597778,-0.7680246233940125
1.8236201171875006,-0.4027208228163421,4.332010382410884,3.0675662009000777,-0.17008937895298,1.050225853919983,-0.8253574371337891
1.8335859375000005,-0.2605858497716486,4.005540878495574,2.243249466666579,0.1891746670007705,1.0450814962387085,-0.8577131032943726
1.8435507812500003,0.0599064794301986,3.4068145223677155,1.4857985294818876,0.5655901432037354,0.9010998606681824,-0.849014163017273
1.853515869140625,0.303068023931235,2.774209277513623,0.6999865902096033,0.8853800892829895,0.6393043398857117,-0.8416491150856018
1.8634809570312507,0.27369433766976,2.4229794263511897,0.1097907465398311,1.123463153839111,0.3220185339450836,-0.8544570803642273
1.8734458007812504,0.0758387925773858,2.092068725118041,-0.3877338276952505,1.3075422048568726,-0.0090939905494451,-0.906413733959198
1.8834118652343754,-0.1260887511942535,1.7087246568143366,-1.0547831939429044,1.4560725688934326,-0.3271201550960541,-0.9789827466011048
1.8933769531250002,-0.3705531949874013,1.0183931991785764,-1.7450035924196243,1.5246615409851074,-0.6211262941360474,-1.029488444328308
1.9033417968750008,-0.5983234744153917,0.1898603085547685,-2.65086346835196,1.466854214668274,-0.8735796213150024,-1.062892198562622
1.9133068847656256,-0.8766028017878532,-0.5032072960466146,-3.771446291416883,1.3248411417007446,-1.0071330070495603,-1.1042628288269043
1.9232719726562504,-1.3859730043783782,-1.0754466272652148,-4.694560669010877,1.1541352272033691,-0.9451333284378052,-1.1293474435806274
1.9332370605468752,-2.1147329768687486,-1.3365665839135643,-5.402466361781954,0.971055030822754,-0.706505537033081,-1.114388942718506
1.943202880859375,-2.861970563074946,-1.424891933098435,-6.150947810569405,0.8076120615005493,-0.3094194233417511,-1.0530222654342651
1.9531677246093757,-3.0225363880842924,-1.9816390961527823,-6.909898630923032,0.7294687032699585,0.2051974534988403,-0.9463489651679992
1.9631328125000005,-2.5863056559845803,-3.334931189417839,-7.690417724484205,0.7740265727043152,0.6728596687316895,-0.8335510492324829
1.9730979003906253,-1.7070476635128258,-4.770653144088387,-8.508554308778047,0.8671166300773621,0.903650403022766,-0.7326042056083679
1.9830627441406259,-0.4178283025119453,-6.12098638754785,-9.291126827737688,0.9282835721969604,0.890429675579071,-0.6350401043891907
1.993029052734376,0.699558135664463,-7.131936869505047,-9.448941892734169,0.9338017106056212,0.6953844428062439,-0.5176610350608826
2.0029938964843756,1.569174731826782,-7.837296969446539,-8.927009437951446,0.8267317414283752,0.3807721734046936,-0.3434416055679321
2.0129589843750004,2.1112015878722072,-8.314595332732797,-7.960399617502093,0.5470576882362366,0.0430574566125869,-0.1219560652971267
2.022923828125,2.6563968448206783,-8.670312558442353,-6.642019847664237,0.0612153895199298,-0.2950391173362732,0.1551921963691711
2.032889160156251,3.0349069170966745,-8.997689824852348,-5.575049372321367,-0.5191438794136047,-0.5173754096031189,0.5187721848487854
2.042854980468751,2.810105643542111,-8.994819237852097,-4.56445252610743,-1.0132474899291992,-0.4717938303947449,0.9095985293388368
2.0528198242187505,1.94700544353649,-8.361873801258206,-3.4859792444974183,-1.360687494277954,-0.200201079249382,1.1977806091308594
2.0627846679687503,0.9750191907458008,-7.099877597421408,-2.6581466110974548,-1.6036328077316284,0.1575477421283722,1.3658263683319092
2.07275,0.2437096799030899,-5.647502029591799,-1.9272323831826448,-1.7478612661361694,0.5127954483032227,1.4108519554138184
2.0827148437500007,-0.1721907963514327,-4.27912576444149,-1.1970400398015977,-1.7989557981491089,0.762842059135437,1.298729419708252
2.0926809082031257,-0.1605671401835978,-2.87969852746725,-0.6368079572409391,-1.7515647411346436,0.884641706943512,1.095872163772583
2.1026459960937505,0.1598062388136983,-1.517195538264513,0.0878051247030496,-1.6094752550125122,0.8729919195175171,0.895861804485321
2.1126110839843752,0.6696006581656634,-0.3794961607038974,0.9839163445591926,-1.4278098344802856,0.6811320781707764,0.7323242425918579
2.122575927734376,1.1386057518158108,0.6433224537014961,1.725194145578146,-1.2210582494735718,0.341859757900238,0.6199998259544373
2.1325407714843756,1.4832693032652138,1.5618670391619205,2.517265145245194,-1.00611674785614,-0.0465266294777393,0.5585025548934937
2.1425095214843752,1.7152265860542657,2.236550845810771,3.386623382732272,-0.794689953327179,-0.4234885573387146,0.5460445880889893
2.1524755859375,1.7424251202337442,2.893944494962692,4.225628567531705,-0.6145673394203186,-0.7050445675849915,0.5784910917282104
2.162440673828126,1.6341653826534748,3.4197119978636503,5.112739319330454,-0.4799636602401733,-0.8338161110877991,0.6329825520515442
2.1724057617187507,1.4509600019432602,3.777295601966977,5.929350886014103,-0.3624626100063324,-0.8242939114570618,0.6788063049316406
2.1823708496093754,1.2896471579588948,3.935932504740357,6.487586241799592,-0.2607527673244476,-0.7094327807426453,0.7048277854919434
2.1923359375,1.163197975954413,3.950855933105945,6.905891148847341,-0.1957407891750335,-0.5337242484092712,0.7180758714675903
2.2023017578125,1.2025512044385074,3.874601545464993,7.096918747615814,-0.1433745175600052,-0.3553635776042938,0.7255966067314148
2.2122666015625008,1.3140543078541755,3.704869832703471,7.066336562347412,-0.0697743073105812,-0.1929333209991455,0.7178860902786255
2.2222316894531255,1.4215278634928166,3.5367584146201607,6.998923068287969,0.0343792624771595,-0.06612478941679,0.6929283142089844
2.2321965332031253,1.5482146536454555,3.347801776906848,6.826579127201438,0.1495528221130371,-0.0045415833592414,0.6510960459709167
2.24216162109375,1.5645792207300662,3.174604433861375,6.571110328182578,0.2539734840393066,-0.0043479707092046,0.574715793132782
2.252127685546876,1.518108415325731,3.0721044288516044,6.352369962102174,0.3259772956371307,-0.0459451340138912,0.4755882024765014
2.2620927734375007,1.4354197568535805,2.8701538695305584,6.155733875802159,0.364140123128891,-0.097788356244564,0.3667671680450439
2.2720576171875004,1.2728126352749765,2.71507553602159,6.021584348553419,0.3685765564441681,-0.1226346045732498,0.2484738826751709
2.282022705078125,0.9424223046541214,2.6749422630757094,5.957752804633975,0.3240980207920074,-0.0970035418868064,0.104123368859291
2.291987548828126,0.5979124093964696,2.735890945035219,5.890378473541141,0.2410842180252075,-0.0143371671438217,-0.0625137537717819
2.301953857421876,0.3103184334509074,2.811530415648222,5.736562707313895,0.1457710266113281,0.1194933354854583,-0.2266174703836441
2.3119184570312505,0.1768438828542828,2.903928713360429,5.497587946978211,0.0570673495531082,0.2581714689731598,-0.3533590734004974
2.3218837890625004,0.0880234436288475,2.9313480506837366,5.0859115181595085,0.0004328368231654,0.4334572851657867,-0.4714281857013702
2.3318486328125,0.0566227815844118,3.077802932754159,4.718910681891441,-0.0029835365712642,0.6068722009658813,-0.5650617480278015
2.3418137207031258,0.0869879631012678,3.111158089867234,4.000068584564328,0.0617714934051036,0.7080147862434387,-0.6117379069328308
2.3517795410156257,0.1795388210266828,2.8358804285287857,3.068119158607721,0.2090399861335754,0.7435228228569031,-0.6124959588050842
2.3617448730468755,0.2614088565923273,2.4132220024466515,2.3234417782783505,0.3733066916465759,0.699975311756134,-0.5989969372749329
2.3717097167968753,0.1394962951041758,2.137556218573451,1.505501008817553,0.4966159760951996,0.5916756987571716,-0.6297545433044434
2.381674804687501,-0.1575185662679374,1.8584476007699968,0.7680418893039226,0.5590407252311707,0.4478919208049774,-0.6973479986190796
2.3916394042968756,-0.4224989977367222,1.3223627019941806,-0.001987958946824,0.5453933477401733,0.2453779429197311,-0.7999091148376465
2.4016059570312507,-0.5541599961053579,0.7539233475804329,-1.0695336038291454,0.4866474866867065,0.030907180160284,-0.9298871159553528
2.4115705566406254,-0.902311754996702,0.295707870426774,-2.0564777717769145,0.3568884432315826,-0.1728377938270568,-1.075170636177063
2.42153564453125,-1.6112015634343029,0.0434217930972576,-3.0996874323040244,0.1051752492785453,-0.3390374183654785,-1.25376296043396
2.431500732421876,-2.4706504013255235,0.046339726370573,-4.413476951742172,-0.1775879859924316,-0.3537509441375732,-1.4649128913879397
2.4414658203125006,-2.8926667301118374,0.0150695588380098,-5.778437855491042,-0.3474257588386535,-0.1316393166780471,-1.5634450912475586
2.4514306640625003,-2.997131897714734,-0.4361041831105947,-6.989445045846701,-0.3304652571678161,0.2941414713859558,-1.4338970184326172
2.4613967285156253,-3.0500320055142045,-0.9924252297073602,-8.079163359570503,-0.1423006802797317,0.7561312317848206,-1.1652685403823853
2.47136181640625,-2.577189160332084,-1.3631985702514648,-9.17431772686839,0.1504439413547516,1.0387978553771973,-0.9002025723457336
2.4813269042968757,-1.4407811377562585,-2.111877587437629,-10.36637647112608,0.4837723672389984,1.001697301864624,-0.6500933766365051
2.4912915039062504,0.0985838544793426,-3.6334552863091223,-11.263393115389349,0.764789342880249,0.6918089985847473,-0.3956022560596466
2.501256591796875,1.323854840248078,-4.923119249272347,-11.4243891485095,0.914301872253418,0.0738331004977226,-0.1655434966087341
2.51122265625,1.7311948472976684,-5.332281649443507,-11.265510253673792,0.8754751086235046,-0.6942555904388428,0.0127493822947144
2.521187500000001,1.6322452282458544,-5.508287035647034,-10.491401027154922,0.6083126664161682,-1.4357779026031494,0.1581859439611435
2.5311525878906256,1.2704726480200883,-5.803899629005789,-9.513102522477508,0.1701915711164474,-1.941051721572876,0.3527711927890777
2.5411179199218754,0.8046264567922801,-6.144506963866949,-8.41030085529685,-0.3155288100242615,-2.086199283599853,0.6071075797080994
2.551082763671875,0.1547809579975902,-6.164102475696802,-7.386779061058164,-0.7036435604095459,-2.0115113258361816,0.9093161821365356
2.561048583984375,-0.6713000094294548,-5.831176342988014,-6.74977353541851,-0.9439733624458312,-1.7686424255371094,1.2381999492645264
2.5710136718750007,-1.489752673935145,-5.369940056708455,-5.943427342161536,-1.0302754640579224,-1.4019005298614502,1.5462615489959717
2.5809787597656255,-2.2130900368548927,-4.6277328658849,-4.849109425687789,-1.02823805809021,-1.035222411155701,1.7412065267562866
2.5909436035156252,-2.690968684247136,-3.601367372652888,-3.811279704633355,-0.9838873147964478,-0.7294676899909973,1.7846583127975464
2.600908691406251,-2.727099151292443,-2.601315885850787,-2.660893863978982,-0.9167231917381288,-0.4978908896446228,1.6919597387313845
2.610874755859376,-2.302022265891731,-1.775228634813428,-1.4769892000824212,-0.8375765681266785,-0.3365348577499389,1.5384100675582886
2.6208395996093756,-1.6681394023172555,-1.4241823235243558,-0.3253700182408094,-0.7113081216812134,-0.1460799574851989,1.355476140975952
2.6308046875000004,-0.825543061158061,-1.369375213059783,0.95990009367764,-0.5559643507003784,0.0185766443610191,1.1706299781799316
2.64076953125,-0.0174359957084059,-1.1486492261201142,2.1078227590888736,-0.4746463000774383,0.1279302984476089,1.013381838798523
2.650734863281251,0.5466488167576492,-0.5070557881683111,3.1776655749976634,-0.4675600528717041,0.1889700144529342,0.909341037273407
2.6606997070312506,1.0425208014801144,0.0794645818591117,4.152513646960259,-0.4839818775653839,0.2729711532592773,0.8147825598716736
2.6706657714843756,1.4442431147783994,0.5028960381403565,5.169107687762379,-0.5008208155632019,0.4072735607624054,0.7264783978462219
2.6806308593750003,1.6695561372473835,0.9395654539182782,5.980107844305038,-0.5047149062156677,0.5491800904273987,0.654977023601532
2.690595703125,1.972587482430041,1.3013631685853004,6.4589680500805375,-0.467710793018341,0.6488540172576904,0.6073493361473083
2.7005605468750007,2.3353997809670863,1.5478659863382578,6.677181177416443,-0.3573081195354461,0.7197108864784241,0.5548368692398071
2.7105256347656255,2.621789934080839,1.7945862462341784,6.818001268470287,-0.1883153468370437,0.7273047566413879,0.4877991676330566
2.7204916992187504,2.779181805229187,1.9976368757516143,6.809391261035204,0.0238459128886461,0.691062867641449,0.3835497200489044
2.7304567871093752,2.8373241975963115,2.314702299244702,6.842960937681794,0.247180089354515,0.618739128112793,0.237640842795372
2.740421630859376,2.8970526901111007,2.60615017413944,6.840435803118348,0.4690656065940857,0.5282810926437378,0.0687117353081703
2.7503867187500006,2.891135867282748,2.8779990300729867,6.892408566939831,0.6725213527679443,0.4624786376953125,-0.0997920334339141
2.7603518066406254,2.8147727585703133,3.2201337206318974,7.088526182323694,0.8341198563575745,0.4154858291149139,-0.247649148106575
2.7703178710937504,2.7308488592147824,3.403840182732045,7.195609423470497,0.9476956725120544,0.3865571618080139,-0.3733609616756439
2.780282470703125,2.609775963421166,3.5839737547814843,7.29178080998063,1.0069818496704102,0.3873968422412872,-0.4645372033119201
2.790247802734376,2.4345333782836795,3.762683139246702,7.399678874641657,1.0216888189315796,0.3992109894752502,-0.5233160257339478
2.8002126464843755,2.2809465985067185,3.821208977973461,7.31778092815578,1.003264546394348,0.398104727268219,-0.5633270740509033
2.8101777343750003,2.0890901476986703,3.874765211594105,7.163392330476642,0.9533771276474,0.3791540861129761,-0.5943198800086975
2.820142578125001,1.7832932833254336,3.903871479091048,6.876717661333084,0.8832119107246399,0.3492830097675323,-0.6089193224906921
2.830108642578126,1.411666979213804,3.841047650909424,6.405193789795041,0.8195813894271851,0.3034354150295257,-0.6223522424697876
2.8400737304687507,1.0824733110316098,3.689073128634691,5.727697848334908,0.7661493420600891,0.2646259665489197,-0.6366422176361084
2.8500388183593754,0.6961481810905039,3.405717374780774,4.947641696110368,0.7440679669380188,0.2462271898984909,-0.6944426894187927
2.86000341796875,0.2984147912979126,3.0059166771948336,4.0300791074246165,0.7568373084068298,0.1365001499652862,-0.7644742131233215
2.869968750000001,-0.186111623545736,2.583410811325908,2.7095623255580663,0.7884432077407837,0.0414225310087204,-0.8513429760932922
2.8799345703125008,-0.7882548023797571,2.20510882884264,1.890377693516016,0.803296685218811,-0.0100819421932101,-0.947214663028717
2.8898996582031256,-1.2835590702168642,1.6140139905065296,1.0649655652612446,0.7880319356918335,-0.0177926868200302,-1.0478520393371582
2.8998647460937503,-1.446849790145457,0.8171037341147661,0.1246001931369304,0.7184872031211853,-0.0562591180205345,-1.1467903852462769
2.909829833984375,-1.6898849317878484,0.2041623901516199,-1.169728254505992,0.5823692679405212,-0.1087327376008033,-1.2730437517166138
2.9197946777343757,-2.1838950681611893,0.1705447827100753,-2.614246094572544,0.4499137997627258,-0.1109381020069122,-1.3947759866714478
2.9297604980468757,-2.685461319002509,0.1573527081817388,-3.831404208773374,0.3876540660858154,-0.0180517993867397,-1.4302884340286257
2.9397258300781255,-3.086554394486546,-0.1079857429444789,-4.986681328600644,0.4208256006240845,0.1868584752082824,-1.3625717163085938
2.949690673828125,-3.247116712364554,-0.5825993971914053,-5.989339783030748,0.4902074933052063,0.4574874341487884,-1.2285304069519043
2.959655517578126,-3.0154017138987776,-1.2829887229830026,-7.028025828653574,0.5817105174064636,0.6970906853675842,-1.063717484474182
2.9696206054687506,-2.4757389566361905,-2.1559762568831444,-8.204224155956506,0.7180174589157104,0.8418726325035095,-0.8974382281303406
2.9795866699218756,-1.6717174069344996,-2.8812860889196394,-9.189880037659409,0.8774175047874451,0.8632935285568237,-0.6870439648628235
2.9895515136718753,-0.5844986184088513,-3.8406022452294826,-9.815915840995311,1.0125160217285156,0.7469081282615662,-0.4101192057132721
2.9995166015625,0.7917968589007854,-5.155485989645123,-10.13824809897542,1.0930761098861694,0.4958748519420624,-0.123380646109581
3.0094816894531258,1.8857522256724533,-6.263076060146093,-10.199708237588403,1.0986270904541016,0.1048947051167488,0.1393228024244308
3.0194467773437506,2.353421906000376,-7.002745256924629,-9.950454075300692,0.9626535177230836,-0.4440640211105346,0.3629087507724762
3.0294116210937503,2.5144284605145453,-7.573420992088318,-9.5837039989233,0.698011577129364,-1.0153799057006836,0.5144621133804321
3.0393776855468753,2.661068928284943,-8.140739818039537,-8.860281003546714,0.3670099675655365,-1.4169185161590576,0.6625732779502869
3.0493427734375,2.5563433561801907,-8.691686185860632,-7.70732209753394,-0.018506184220314,-1.6506567001342771,0.8510262370109558
3.0593076171875007,1.9440584302991628,-8.828688764452934,-6.690911012083292,-0.4175302684307098,-1.6567071676254272,1.0426775217056274
3.0692724609375004,1.1044735459156334,-8.43917097595036,-5.358403348171711,-0.7789737582206726,-1.3496676683425903,1.2182010412216189
3.079237548828125,0.2090246624257415,-7.767866874867678,-3.6529280485421416,-1.1582739353179932,-0.7758859395980835,1.314699411392212
3.08920361328125,-0.5873658809408545,-6.680497170096635,-1.968529439210892,-1.5576170682907104,-0.053917471319437,1.3046231269836426
3.099168701171876,-0.9146978469043968,-5.352049010708928,-0.4838508536696433,-1.9324618577957156,0.6082210540771484,1.196987509727478
3.1091335449218755,-0.7426980430804193,-3.937562151768804,0.5909983922243118,-2.240999698638916,1.1190873384475708,1.028595805168152
3.1190988769531254,-0.3927196532838046,-2.4228233590066437,1.3840461279690264,-2.428476572036743,1.3995802402496338,0.8399022817611694
3.129063720703125,0.0242560509867966,-0.9821949275940656,1.9650626398831603,-2.462979316711426,1.4563571214675903,0.6738461852073669
3.13902978515625,0.4672214251037687,0.1975765820205211,2.360359011787176,-2.3472084999084477,1.266656756401062,0.5584208369255066
3.1489946289062507,0.7659376105010509,1.138300266063213,2.547741532051563,-2.071704626083374,0.9254035949707032,0.4912973046302795
3.1589597167968755,0.817509538436681,1.8743676389575004,2.939359507703781,-1.685593843460083,0.517460823059082,0.4409110844135284
3.168924560546875,0.7142780042819679,2.483346509030461,3.431877651953697,-1.2670856714248655,0.1301624476909637,0.3866535425186157
3.178889648437501,0.6047429130036384,2.916808068677782,4.127921057495475,-0.8940523862838745,-0.1339972913265228,0.3185253739356994
3.1888544921875006,0.4975907713390886,3.2106776177614926,4.997292738986015,-0.6073139309883118,-0.2635678648948669,0.2459843456745147
3.1988208007812506,0.4209228344611823,3.3408655479028817,5.718084801337122,-0.4060795903205871,-0.2556540071964264,0.166425347328186
3.2087856445312504,0.3589809036806226,3.444117832584679,6.4008642361581325,-0.2776028513908386,-0.1236258074641227,0.0669945776462555
3.218750732421875,0.3050829439502209,3.648023033104837,6.953430898657441,-0.1998974084854126,0.0599328316748142,-0.0217890888452529
3.2287155761718758,0.3404711412608623,3.8116596438616512,7.28198948380649,-0.1558649837970733,0.2652549743652344,-0.1037017405033111
3.2386806640625005,0.5044319424707442,3.970240432533621,7.512234409719706,-0.1237667053937912,0.4634577929973602,-0.1683244109153747
3.2486467285156255,0.7696800849650055,4.020727341711521,7.561410236299038,-0.0863652676343917,0.6285915970802307,-0.190445676445961
3.2586115722656253,1.209742358051613,3.830058347122371,7.472979673174023,-0.0415887460112571,0.74251389503479,-0.1746147871017456
3.268576660156251,1.5877382702603935,3.5947771806076165,7.316140759733319,-0.0101764108985662,0.7708743214607239,-0.1529654711484909
3.2785417480468757,1.7603589824616908,3.478053419934213,6.9927166148632764,0.0099959690123796,0.7267351150512695,-0.1477368921041488
3.2885065917968754,1.676394166573882,3.489695342411101,6.72901657859385,0.0332876369357109,0.6643795371055603,-0.1606473475694656
3.2984726562500004,1.366846279104054,3.502280098696053,6.506317830276489,0.0504708886146545,0.5610454082489014,-0.1844243258237838
3.308437744140625,0.9119773358993232,3.471436339882016,6.123589263522625,0.0628536567091941,0.4570606052875519,-0.2506542205810547
3.318402587890626,0.4173657265014946,3.590905307610333,5.801315457731485,0.0965716689825058,0.4007624387741089,-0.3328116536140442
3.3283676757812506,0.0175326610159128,3.608725626461208,5.531487878492475,0.1356821954250335,0.3540340065956116,-0.4118905365467071
3.3383325195312503,-0.4681635647920891,3.6245556482777,5.053421453443169,0.2004574686288833,0.3724782764911651,-0.4949113726615906
3.3482985839843753,-0.9504190755616873,3.61528630015105,4.7309378042936325,0.3033430576324463,0.4352730810642242,-0.5705047845840454
3.358263427734376,-1.1774534419305622,3.3601582773938774,4.309961632210016,0.4448618292808532,0.5204899907112122,-0.6214635372161865
3.3682285156250007,-1.1614109464071691,2.95504456809163,3.839502175033093,0.60577392578125,0.5859712362289429,-0.6518651843070984
3.3781936035156255,-1.0055940694905816,2.447600072866678,3.3240140740841624,0.7695266008377075,0.5622392296791077,-0.6686649322509766
3.3881586914062503,-0.7603831912443041,1.897632194688916,2.6626462606042622,0.904813587665558,0.4701885282993316,-0.6821210384368896
3.39812451171875,-0.4987094001054764,1.2972247536063193,2.070721401184797,0.9857470393180848,0.3173494637012481,-0.6928815245628357
3.408089843750001,-0.3768172603508457,0.5251163455158472,1.522020181941986,0.961283564567566,0.121499016880989,-0.7319172024726868
3.4180546875000006,-0.5638949159171432,0.0401402872085571,0.910229177057743,0.8158560395240784,-0.096394695341587,-0.8212356567382812
3.4280197753906254,-0.980462550843507,-0.2284767471969127,0.0658978287994861,0.5631027221679688,-0.3193602561950683,-0.9294252395629884
3.437984375,-1.4090131037041544,-0.5634171423375606,-1.1248866577386856,0.2616331875324249,-0.4745708703994751,-1.0334298610687256
3.44795068359375,-1.77313122414276,-0.953103857666254,-2.4347493591219185,0.0136429602280259,-0.4781561493873596,-1.0822179317474363
3.4579155273437507,-2.2393669261448084,-1.2108750884085893,-3.845599322864413,-0.1079463213682174,-0.2605372667312622,-1.0596269369125366
3.4678806152343755,-2.5991584155559537,-1.3104156590908764,-5.217252417728305,-0.0587350912392139,0.2300735563039779,-0.9418140649795532
3.4778454589843752,-2.3157336881190536,-1.797784165492654,-6.442803097221255,0.1438393294811248,0.8190134763717651,-0.7490102052688599
3.487810791015625,-1.304593090417236,-2.6739199342906472,-7.663058008393645,0.4087601900100708,1.2500240802764893,-0.5312429070472717
3.4977756347656257,0.0277251153368502,-3.711000298282504,-8.801083549168705,0.640680730342865,1.3402777910232544,-0.365578830242157
3.5077416992187507,1.4625519477985798,-4.8287598806202405,-9.62514776994586,0.7977221012115479,1.1124588251113892,-0.2730540633201599
3.5177067871093755,2.886520774702728,-6.300163974046707,-10.033680640041828,0.7960038185119629,0.5435661673545837,-0.2192789763212204
3.5276718750000002,3.708144324329495,-7.448950562810897,-10.308134710037708,0.5661560893058777,-0.2034824341535568,-0.1808549612760543
3.537636474609376,3.6969948615446686,-7.747002950537205,-9.92802480134964,0.1257478147745132,-0.9558421969413756,-0.1262345910072326
3.547602539062501,3.301486308194697,-7.945399616768956,-9.3902862901479,-0.4604123830795288,-1.496079444885254,-0.0105970483273267
3.5575676269531256,2.851627448236942,-8.235423596340418,-8.886517853087186,-1.068095088005066,-1.7136263847351074,0.208460733294487
3.5675327148437503,2.040619108387828,-8.182988475704192,-8.25153301962018,-1.5968525409698486,-1.451748967170715,0.5028708577156067
3.57749755859375,0.8699765885811298,-7.5144450715065,-7.357951025980711,-2.049699306488037,-0.7906779646873474,0.780954122543335
3.5874626464843757,-0.1795617087119259,-6.3516387252181765,-6.698865185958146,-2.376652479171753,0.0457171313464641,0.9981131553649902
3.5974287109375007,-0.94308719830364,-4.984897367793321,-6.262583308193087,-2.5252931118011475,0.8950596451759338,1.146437406539917
3.6073935546875004,-1.2130721600614487,-3.7533220211833713,-5.764706267258525,-2.5204782485961914,1.4896762371063232,1.1752455234527588
3.6173586425781252,-0.9616675417415798,-2.509164256376028,-5.480008451145887,-2.377608299255371,1.6845229864120483,1.0711241960525513
3.627323974609375,-0.5705221885697915,-1.4141492975488303,-5.061373289230466,-2.0695204734802246,1.5252281427383425,0.881526529788971
3.6372885742187506,-0.1479056654006242,-0.5932879644662141,-4.215675328794122,-1.6129993200302124,1.0647526979446411,0.6811848878860474
3.6472543945312506,0.1071680698860436,-0.023487843093276,-3.2348440907686946,-1.060575246810913,0.3836394548416137,0.4945428669452667
3.6572194824218753,0.1662616985633969,0.4681143553555011,-1.9540666140943763,-0.5076034069061279,-0.3508390784263611,0.3252648711204529
3.6671845703125,0.1603379345376044,0.9208633837968112,-0.2749953372657299,-0.0455051660537719,-0.9773715138435364,0.2235324829816818
3.677149658203126,0.0469131606106646,1.3380349029004572,1.5833879660964012,0.3011648952960968,-1.373579502105713,0.18072110414505
3.6871147460937506,-0.131192869400233,1.738717059496045,3.46324134298861,0.5391241908073425,-1.5336440801620483,0.2005270421504974
3.6970808105468755,-0.4134203133439645,2.1647949386328458,5.122184024024009,0.6766911149024963,-1.4859660863876345,0.2539599239826202
3.7070456542968753,-0.8215416434969752,2.5642346939519047,6.550764874768257,0.7370920181274414,-1.2237920761108398,0.2863556444644928
3.7170107421875,-1.2199788707099857,2.897436136470735,7.748295328435301,0.7271823883056641,-0.8696183562278748,0.2704376578330993
3.7269753417968756,-1.4560831901758908,3.118353554329276,8.493437988188862,0.6828904151916504,-0.4976785480976105,0.2343451380729675
3.7369406738281254,-1.430721516034752,3.277773716434836,8.93382554770708,0.6395522952079773,-0.1685917526483535,0.2101425975561142
3.7469064941406254,-1.1505664579182862,3.3737913736879825,9.060670304900407,0.600036084651947,0.0689300373196601,0.1805817484855651
3.75687158203125,-0.673360814416781,3.4403999811053274,8.961636514696478,0.6055117845535278,0.1853453367948532,0.1357729882001876
3.766836669921876,-0.2101933774115517,3.413679147440195,8.637707927435637,0.6581695079803467,0.1965413838624954,0.0827458575367927
3.7768017578125006,0.1734358279764652,3.338996539160609,8.403188977465033,0.7316495776176453,0.1443487554788589,0.0139779737219214
3.7867666015625003,0.5429855450097472,3.270767344804108,8.247641272878646,0.8048681616783142,0.0302644465118646,-0.0365398451685905
3.7967326660156253,0.738243474824354,3.1990605374649164,8.039477830392121,0.8460281491279602,-0.0895112156867981,-0.0776121839880943
3.80669775390625,0.8398052491359412,3.1376383927747606,7.917855191761255,0.8513178825378418,-0.1615777909755706,-0.1169499829411506
3.8166628417968758,0.7985745363421738,3.1126848610430957,7.846792527544498,0.8214257955551147,-0.1859150826930999,-0.1582438945770263
3.8266274414062504,0.6263313522163778,3.1185373864635824,7.71586430042982,0.7696176171302795,-0.1707213968038559,-0.1943840086460113
3.836592529296875,0.4766372324964031,3.0936797163218257,7.489007263389229,0.6967349052429199,-0.1327159702777862,-0.2211245447397232
3.84655859375,0.3727793831368908,3.024190000510216,7.230809331667423,0.5804887413978577,-0.0972354188561439,-0.2615560293197632
3.856523681640626,0.1552503656076267,3.086484251859784,6.746589644685387,0.4653109908103943,-0.07175774872303,-0.3157987594604492
3.8664885253906256,-0.0252631456701084,3.0847026291400192,6.083159053456783,0.4054273962974548,-0.0548828281462192,-0.3583582639694214
3.8764538574218754,-0.0394500764546915,2.747383229908347,5.343492194765806,0.4150325953960418,-0.0488220080733299,-0.3829981088638305
3.8864196777343754,-0.012274886618182,2.3714088135898117,4.506811653521657,0.4793004393577575,-0.0898582190275192,-0.4271793961524963
3.896384521484375,-0.053152986581996,2.0848253298610446,3.5385867990911004,0.5957112312316895,-0.1825886964797973,-0.4991387724876404
3.9063496093750008,-0.2186984266348183,1.6888976743161677,2.536040572863817,0.7375209331512451,-0.3015712201595306,-0.614901065826416
3.9163149414062506,-0.3693599300822243,1.3497487215697763,1.676317594206333,0.8614282011985779,-0.4316887259483337,-0.7602436542510986
3.9262795410156253,-0.5004471836835146,1.1048790579766037,0.8945838641583919,0.888717770576477,-0.5715643763542175,-0.9314784407615662
3.936245361328125,-0.5395204261824489,0.9875555778443812,-0.0496136334747076,0.8434445261955261,-0.6551085114479065,-1.079395413398743
3.946210693359376,-0.5326515998588874,0.6323661754012108,-0.7619488331258296,0.7077827453613281,-0.7144190669059753,-1.1719989776611328
3.9561755371093756,-0.4694459327528253,0.2010743610084056,-1.685982079130411,0.4726860821247101,-0.7489163279533386,-1.2004021406173706
3.9661406250000004,-0.3886556917805224,-0.2458271104484796,-2.86781987362504,0.2216116487979889,-0.6836734414100647,-1.1829357147216797
3.976105712890625,-0.3290538943853229,-0.7221884851455688,-4.215428076034784,0.0474888458847999,-0.4693459272384643,-1.1008195877075195
3.98607177734375,-0.1088185039741918,-1.6002929236680268,-5.623792068180442,0.0014639534056186,-0.1650763303041458,-0.9486243724822998
3.996036621093751,-0.023302092996519,-2.582525845184922,-7.236049570408463,0.0700193122029304,0.1513466238975525,-0.7984663248062134
4.006001708984376,-0.0057227798272855,-3.191961811375618,-8.786334308326245,0.2246898710727691,0.4092494249343872,-0.720479428768158
4.01596630859375,0.3562874633455649,-3.785811501377821,-10.063650246369836,0.3943044543266296,0.4742430746555328,-0.6703211665153503
4.025931640625,1.1699412396695463,-4.827399698182941,-11.12572768897414,0.4740391075611114,0.2693476676940918,-0.6058716177940369
4.035897460937501,2.0296105153784154,-5.888320956489443,-11.742808616960048,0.3871226012706756,-0.1652498841285705,-0.5149052143096924
4.045862548828126,2.5324533620268106,-6.382707232698798,-11.77174946476221,0.1295057982206344,-0.6717901229858398,-0.4051272571086883
4.0558276367187505,2.635357563923299,-6.71183981834352,-11.3663928866148,-0.2318571954965591,-1.0847785472869873,-0.2540256083011627
4.065792724609375,2.392474836363643,-6.971259985336661,-10.59565868948698,-0.6965914368629456,-1.2806775569915771,-0.0511046163737773
4.075758544921875,1.9253110597312448,-6.917656989964843,-9.641152563807369,-1.2004711627960205,-1.2557975053787231,0.2106641381978988
4.085723876953126,1.3771246581427752,-6.604535043400525,-8.728927829018234,-1.591369390487671,-0.9821841716766356,0.5354427099227905
4.095688720703126,0.8211402961544692,-6.146477971678972,-7.8532421420753,-1.7913894653320312,-0.5129093527793884,0.8811737298965454
4.10565380859375,0.3142659289676696,-5.366700636395811,-7.0356029859095806,-1.8334015607833865,-0.0082933465018868,1.1534464359283447
4.115618408203125,0.0196609052162617,-4.392382725787162,-6.331027314344048,-1.754586100578308,0.3657657206058502,1.3008604049682615
4.12558447265625,-0.1494940305706113,-3.380727894952893,-5.57133298214674,-1.584025502204895,0.602262020111084,1.3241695165634155
4.135549560546876,-0.2080916924245655,-2.397655307741463,-4.412858527582884,-1.3582404851913452,0.6443799138069153,1.2586203813552856
4.1455146484375005,-0.1210088175814598,-1.486004865708947,-3.263562820252776,-1.071438193321228,0.5012996196746826,1.1179968118667605
4.1554794921875,0.0284139013186097,-0.7239996262207626,-1.930102970182896,-0.7531304955482483,0.206852525472641,0.9319653511047364
4.16544482421875,0.1797030716776847,-0.1003425347149372,-0.5705377879977226,-0.4372368156909942,-0.1755810379981994,0.7456719279289246
4.175410644531251,0.3737477532450109,0.3735694010034203,0.8884756104111671,-0.157434195280075,-0.5435255169868469,0.5995133519172668
4.185375488281251,0.6354945365548134,0.7500181568354368,2.440955228024721,0.0319462344050407,-0.8381680846214294,0.5275058746337891
4.1953408203125,0.7163432662487029,1.235925066252053,3.9339831242382526,0.126787781715393,-0.9826736450195312,0.5292936563491821
4.205305908203125,0.6298956205692142,1.863156509113312,5.350539190667868,0.1595979183912277,-0.95120507478714,0.5694589614868164
4.215270507812501,0.4957789726767688,2.3905711946994064,6.567871492391824,0.1557683050632476,-0.7918846607208252,0.627993106842041
4.225236328125001,0.3470589221533388,2.793429818551242,7.317451257809997,0.1396162658929824,-0.5419805645942688,0.6797934770584106
4.2352016601562505,0.3316018983677029,3.144432875220477,7.892639501962066,0.1370814740657806,-0.2625683844089508,0.7069031596183777
4.24516650390625,0.4855231707960367,3.352543418475985,8.13465026899278,0.1671884655952453,-0.0275795832276344,0.7047688364982605
4.255131591796875,0.7184022446051239,3.489710247719288,8.145379752799869,0.2476271092891693,0.1400679945945739,0.6773177981376648
4.265097656250001,0.9725919635988772,3.5670784418210384,8.04638161843121,0.359043151140213,0.2244944125413894,0.6210652589797974
4.275062744140626,1.253892100097239,3.609291735911369,7.922533704966306,0.4885156452655792,0.2180016189813614,0.5417723059654236
4.285027587890625,1.4774680696405469,3.638237259888649,7.788279548299312,0.6150841116905212,0.1550931930541992,0.4470947384834289
4.29499267578125,1.6337895350784062,3.631073067347705,7.678978631103038,0.7326397895812988,0.07976995408535,0.3573813438415527
4.304957763671876,1.7665587138846517,3.483859768125414,7.632179470527172,0.8088810443878174,0.0042615234851837,0.2730012536048889
4.314923828125001,1.815267507474124,3.3326582760497927,7.551235463765263,0.8287631273269653,-0.0732034370303154,0.1946228444576263
4.3248884277343755,1.733109156486392,3.1687220978245136,7.428961667749285,0.7819961309432983,-0.117713838815689,0.1194960922002792
4.334853515625,1.55645904263854,3.03511062297523,7.365895262983441,0.6959224939346313,-0.1174475103616714,0.0493156723678112
4.344818603515625,1.297106095662713,2.8912375740915537,7.1993234755575655,0.5674180388450623,-0.0851480588316917,-0.0270121954381465
4.354783691406251,0.92208708037287,2.8746459202528,6.87504709777236,0.4127951860427856,-0.0301921274513006,-0.1234916001558303
4.364749511718751,0.4810778818249702,2.9744004259467123,6.4140276691138745,0.2794679999351501,0.0330032669007778,-0.2255593389272689
4.3747148437500005,0.2095487593650817,2.8770687634855507,5.856413660097122,0.1910103112459182,0.088303804397583,-0.3378240764141083
4.3846796875,0.2132087431773543,2.7328298038989303,5.063747032624483,0.1744325309991836,0.121943898499012,-0.4525679647922516
4.394644775390626,0.2274289917096495,2.5883675569504496,4.150142826175689,0.2351896166801452,0.1007209047675132,-0.5152809023857117
4.404610839843751,0.138222037384659,2.398973112341761,3.295235723367333,0.3340815901756286,0.0723864585161209,-0.5403677225112915
4.414575683593751,0.0592743190065026,2.118245953425765,2.6466777070999146,0.4265329539775848,0.0287204701453447,-0.555718183517456
4.42454052734375,-0.034053076249361,1.628590212869644,1.9944395410150288,0.4837842583656311,-0.0229110736399889,-0.591430127620697
4.434505615234375,-0.0750672236829996,1.1085235519587993,1.3521861778497697,0.497837483882904,-0.1141837313771247,-0.6314358711242676
4.444470458984376,-0.2724572701554745,0.6698726069748401,0.5600158094614743,0.4622110724449157,-0.2065853923559188,-0.6824679374694824
4.454436523437501,-0.8360952156368643,0.5399953502178192,-0.1460679285794496,0.3609763383865356,-0.2264309972524643,-0.7724087238311768
4.4644016113281255,-1.6197478579834104,0.603918664073944,-0.7832832975775003,0.2250701487064361,-0.1806800216436386,-0.8864648938179016
4.474366455078125,-2.208481812407076,0.4526964214712381,-1.6801403673648834,0.0820935517549514,-0.129132941365242,-0.9836071729660034
4.484331787109375,-2.350345567294955,-0.1239005204349756,-2.9357950932204724,-0.0564086623489856,-0.0640811920166015,-1.031831979751587
4.494296875000001,-2.21106291494146,-0.9747837745547294,-4.466391964849829,-0.1821660548448562,-0.0003267121501266,-1.0146244764328003
4.504262695312501,-2.068334798309207,-1.9796751026034356,-6.264415784317254,-0.2640566825866699,0.064768947660923,-0.9346812963485718
4.5142277832031255,-2.0021714504413306,-2.8152222559034823,-7.836298021537065,-0.28142049908638,0.1877720952033996,-0.8224653005599976
4.524192626953125,-1.908801531217992,-3.439845269832015,-9.037570584341884,-0.252325177192688,0.3409501910209656,-0.648388683795929
4.534157470703126,-1.3948983613729475,-4.363998927345872,-10.091277088963984,-0.2105851918458938,0.4535659551620483,-0.429050475358963
4.544123535156251,-0.4988667095590383,-5.350508211007714,-10.88501689862609,-0.17035773396492,0.4808488190174103,-0.1944510191679
4.554088623046876,0.2654503140028565,-6.063446637248992,-11.34026358910203,-0.1595085561275482,0.3268446028232574,0.0414880141615867
4.5640537109375,0.4941603584989905,-6.053125149720906,-11.499446435320376,-0.1963320523500442,0.0075476826168596,0.247335284948349
4.5740185546875,0.61591831394732,-5.927096969607472,-11.303196717989444,-0.3140035569667816,-0.391822338104248,0.4071057736873626
4.583983642578126,0.7673505460388959,-5.9602323464900255,-10.908749656391144,-0.5050916075706482,-0.8129003643989563,0.5718274116516113
4.593949707031251,0.6843112474981695,-6.135138831540941,-10.573642087990043,-0.6567256450653076,-1.0968689918518066,0.7613041400909424
4.6039147949218755,0.1649363682437688,-6.310729791724682,-9.992038131576775,-0.7030678391456604,-1.1688657999038696,0.9366579055786132
4.61387939453125,-0.4673082266043871,-6.164474816140532,-9.047344374859332,-0.6939329504966736,-1.068873405456543,1.0826363563537598
4.623844726562501,-1.0971934719100591,-5.705829130876064,-8.002969177684188,-0.6786132454872131,-0.8752262592315674,1.1496217250823977
4.633809570312501,-1.755204522307962,-4.972422501623631,-6.9176125663012265,-0.6751026511192322,-0.632414698600769,1.0936827659606934
4.643775634765626,-2.227421929068118,-4.018364119711518,-5.697877879610657,-0.6708014011383057,-0.3726774454116821,0.9578151106834412
4.653740478515625,-2.265760281421244,-3.0394235177382827,-4.361380269280076,-0.6380336284637451,-0.1201178953051567,0.8149338364601135
4.663705810546875,-1.9090588669799269,-2.2134926263064143,-2.944559414434433,-0.5492739081382751,0.0957215502858161,0.6937898993492126
4.673670654296876,-1.3427467338532209,-1.4145897347927092,-1.568223714712262,-0.4080302119255066,0.1914480775594711,0.5849140286445618
4.683635742187501,-0.7026829896867275,-0.5598091809734702,-0.3236246358782053,-0.2183488011360168,0.1530843675136566,0.4914966225624084
4.6936018066406255,-0.1100350766897201,0.2213870811969041,0.8963988046258687,-0.015825267881155,-0.0029007119592279,0.399553120136261
4.703566650390625,0.3627329496905207,0.9550237198129296,2.0944939064383505,0.1541091799736023,-0.2191963046789169,0.3220695257186889
4.713531494140626,0.6597324673630297,1.6015014226749538,3.3031203391373154,0.2648700475692749,-0.4376759231090545,0.304354190826416
4.723496582031251,0.8689907193489372,2.1532143909543757,4.369313984888792,0.3391485214233398,-0.6014490723609924,0.3405612707138061
4.733462646484376,0.9174807556211948,2.6644921807318926,5.401628741914034,0.381284236907959,-0.6500762701034546,0.4112535417079925
4.743427490234375,0.7068240350142121,3.137032828097045,6.3358572187185285,0.3952384293079376,-0.5713702440261841,0.4736284911632538
4.753392578125,0.5077513692170381,3.563990704938769,7.14174280872643,0.3936868607997894,-0.4076191186904907,0.5156564116477966
4.763357666015626,0.4284947310201824,3.8661405911117783,7.667142062836885,0.3625897765159607,-0.2145094126462936,0.5495758056640625
4.773322753906251,0.4032398782543838,4.045677366311848,7.890144762536883,0.3193091452121734,-0.0108931679278612,0.556484580039978
4.7832885742187505,0.5608512373723089,4.132807368232309,7.9861676804870365,0.2868094146251678,0.1735071241855621,0.5446747541427612
4.793253662109375,0.7186613339327276,4.100319641603529,7.932053228461742,0.2785967588424682,0.3133590519428253,0.515032947063446
4.80321875,0.8699719854712485,4.070295090217888,7.785559767946601,0.3060729503631592,0.4085356891155243,0.4530117809772491
4.813183593750001,1.094265163373202,4.004367743062973,7.573841263327002,0.3560370504856109,0.427868127822876,0.3782115578651428
4.8231484375,1.343503835830837,3.864065246142447,7.258041037464141,0.420426607131958,0.374292641878128,0.2967428267002105
4.8331147460937505,1.5016506169997157,3.737348791503906,6.9651821267277,0.4869044423103332,0.2846226692199707,0.1861268430948257
4.84307958984375,1.5301593569949268,3.651153440085053,6.716379799860715,0.5297922492027283,0.1887236386537552,0.0610121712088584
4.853044677734376,1.4680727570466696,3.547812308076024,6.512717175924777,0.5382768511772156,0.1274962276220321,-0.0590545795857906
4.863009521484376,1.3088415416419503,3.4512300026774403,6.481997628012299,0.5023965835571289,0.1565473675727844,-0.1641469299793243
4.872974853515625,0.997707554024458,3.3894290878027675,6.466234241691232,0.4159495532512665,0.2300663292407989,-0.2675111293792724
4.882940673828125,0.7549569284118711,3.4070822333931923,6.217161865711212,0.3018669188022613,0.3505987226963043,-0.3768962621688843
4.892905761718751,0.5868310434117913,3.4006805496573445,5.891409570154547,0.2006660252809524,0.4901009500026703,-0.4823803603649139
4.902870361328125,0.5026892635218799,3.304164295232296,5.397242489653825,0.1279875338077545,0.6036803126335144,-0.5690656304359436
4.912835693359375,0.5451218994513154,3.0671207952201365,4.717580310070514,0.1273712813854217,0.679632842540741,-0.6402620077133179
4.922800537109376,0.5737776467017829,2.717067586621642,3.943512000083923,0.1679727435111999,0.6806581020355225,-0.7124899625778198
4.9327666015625,0.6199626209020614,2.32555073325634,2.967777208414674,0.246701642870903,0.6054107546806335,-0.7934234738349915
4.942731689453126,0.5974656885422766,1.954615480148792,1.9628245055675504,0.3499422967433929,0.444336324930191,-0.907171070575714
4.95269677734375,0.6046260816909372,1.4976397739231586,0.7810428251743317,0.5142867565155029,0.2526342868804931,-1.0343947410583496
4.962661621093751,0.3761066643960774,0.7104232285499572,-0.2991851911485195,0.6982302665710449,0.0433693677186965,-1.2014825344085691
4.972626708984375,-0.3367112042054533,0.3862392052233219,-1.282851944860816,0.8535434603691101,-0.1375500857830047,-1.4902796745300293
4.982592773437501,-1.3427438112437724,0.7855646865129471,-2.0407535484224555,0.9302217960357666,-0.3141928911209106,-1.891368389129639
4.9925576171875,-2.034609931100905,1.3760457768648862,-2.8650936635315416,0.9336194396018982,-0.4492934644222259,-2.2815675735473637
