time,ax,ay,az,gx,gy,gz
0.0,-0.1397339032523334,1.809835253292322,6.823052706640959,2.0718884468078613,-0.8943257927894592,0.7212936878204346
0.00996704101562429,0.1871646397300064,1.6928928814321755,7.028489354512095,2.046619415283203,-0.8782600164413452,0.5390133261680603
0.019933105468750156,0.3823910053625702,1.7345000263229011,7.273015903756022,1.9071701765060425,-0.8358496427536011,0.3166537582874298
0.029899902343750284,0.3524567626088857,1.7535536863610148,7.480844415199757,1.671343445777893,-0.7383787631988525,0.0746107622981071
0.03986596679687615,0.1604907139465212,1.818741321064532,7.653591676390171,1.3470240831375122,-0.584057092666626,-0.1880138367414474
0.049833007812498664,-0.0411216994613409,1.9116221415966748,7.611811220759153,0.9497278332710266,-0.4014630317687988,-0.4646757841110229
0.05979980468749879,-0.181134858046472,2.114545637603104,7.243561845734715,0.4902615845203399,-0.1865217089653015,-0.7426846027374268
0.06976586914062288,-0.2323375142782926,2.3808289683640003,6.80070643479824,0.0546627156436443,0.079640194773674,-0.9803887605667114
0.07973291015624895,-0.1187210719704627,2.325203527253866,6.131103292414545,-0.2849926352500915,0.3470341265201568,-1.160024642944336
0.08969897460937482,0.2568434483729302,2.092812236961722,5.089590498933196,-0.4917884171009063,0.5619560480117798,-1.2912288904190063
0.09966577148437494,0.6328473830468953,1.704490672506392,3.7908921656429766,-0.5631237030029297,0.667096734046936,-1.3630820512771606
0.10963281249999923,0.9363964684933423,1.0547536755874751,2.3637287804812197,-0.5314440727233887,0.638208270072937,-1.3675119876861572
0.1195988769531251,1.0151714606530964,0.3801850197508931,1.136874032652378,-0.4194972217082977,0.5536684989929199,-1.3569087982177734
0.1295659179687494,0.8036376649506389,-0.2632473240658641,-0.3255366069793701,-0.3118179142475128,0.3238976299762726,-1.333391785621643
0.13953173828124932,0.2757867799043655,-0.8925029662311077,-1.745405158957839,-0.2405488342046737,0.0873100534081459,-1.3404111862182615
0.14949902343749955,-0.7750067598804831,-0.9956769249796866,-2.620755330336093,-0.1718435287475586,-0.0208129547536373,-1.4511805772781372
0.15946484374999947,-2.231490639811754,-0.7730562103345989,-3.729323305958509,-0.1493005603551864,-0.0117140393704175,-1.6950464248657229
0.16943188476562376,-3.419080129700899,-0.5809945923432708,-4.751593054309487,-0.0990187525749206,0.2157188504934311,-1.9623918533325195
0.17939892578124983,-3.820691968362033,-1.113908459867537,-5.505507049539685,-0.0327563732862472,0.5511670112609863,-2.140613079071045
0.18936474609374976,-3.111005529654026,-1.821699001826346,-6.860747938784956,-0.0507100746035575,0.8523268699645996,-2.174578189849853
0.19933203124999999,-2.218863651820272,-2.392246726696193,-7.94190417586863,-0.0627845972776413,1.124625563621521,-1.9892899990081787
0.20929785156249991,-1.34454793805629,-2.7401500637844203,-8.675399067926406,-0.0119818719103932,1.301087737083435,-1.6838163137435913
0.2192648925781242,-0.0693770492173731,-3.03746946106106,-9.588713936039804,0.1063531190156936,1.3303160667419434,-1.3605077266693115
0.22923095703125007,1.1097542627975343,-3.1806571580290792,-10.072703321397304,0.263891339302063,1.1969431638717651,-0.9969021081924438
0.23919799804687614,2.1921564082890748,-3.179176856343448,-10.15760863300562,0.4010823369026184,0.9073117971420288,-0.5789309740066528
0.24916503906249865,3.179521724258363,-3.5465988406330347,-9.986792632138728,0.5143460035324097,0.4566484689712524,-0.1236012876033783
0.25913085937500036,4.215774989776313,-4.368602037227154,-9.727037534102797,0.5423998832702637,-0.1449751108884811,0.2998413741588592
0.2690981445312488,4.857820555409789,-5.139160293266177,-9.255306741815804,0.4231893718242645,-0.8070181012153625,0.6266996264457703
0.27906396484374874,4.783290507343411,-5.669882203704119,-8.426919981664419,0.1999898254871368,-1.357489824295044,0.8856453895568848
0.2890310058593748,4.135842498144507,-6.029149815371632,-7.188762334054708,-0.0337291918694973,-1.67795729637146,1.1149024963378906
0.29899682617187473,2.9659304115042087,-5.886088082870841,-5.9656572941482064,-0.2725374400615692,-1.8010228872299194,1.271130084991455
0.308963867187499,1.6510498819589614,-5.304253240311145,-4.459227480047941,-0.5642473697662354,-1.6468918323516846,1.300865888595581
0.31893066406249915,0.4104620845928788,-4.404242674928903,-2.772873644995689,-0.9204421043395996,-1.271819233894348,1.2023751735687256
0.328896728515625,-0.2085325680598616,-3.347540203361213,-1.4310650687754154,-1.2800405025482178,-0.799739420413971,1.0046279430389404
0.3388637695312493,-0.1481950037360191,-2.241649922515452,-0.4961632227540016,-1.5625883340835571,-0.2944780588150024,0.8204682469367981
0.34883056640624943,0.5333389610685407,-1.4269628941535948,0.3066699939459562,-1.677653431892395,0.1887610554695129,0.761216938495636
0.3587976074218737,1.5383208900101482,-0.8756263579711318,0.7193745967686176,-1.632310152053833,0.5488894581794739,0.8025651574134827
0.36876391601562375,2.5266683488845825,-0.3909519129589199,1.0875865623921157,-1.478554129600525,0.7563534379005432,0.9222792983055116
0.3787307128906239,3.203244837412238,-0.0020250760868191,1.4780296490460634,-1.2652753591537476,0.8229773044586182,1.075200080871582
0.3886979980468759,3.3155139567643404,0.4703939907252788,1.9077420852929352,-1.0195534229278564,0.7937648296356201,1.201976656913757
0.3986638183593758,2.8733354221761225,0.9160451698601244,2.296751339751482,-0.7335111498832703,0.728870689868927,1.2432039976119995
0.4086308593750001,1.9574232310459017,1.3236498191952704,2.7533739947557447,-0.3998782932758331,0.675733208656311,1.1887317895889282
0.41859667968750003,0.9571738835841416,1.828929245340824,3.1743244478762147,-0.0566355362534523,0.640984833240509,1.0080459117889404
0.4285637207031243,0.2706577464528382,2.1570164135858416,3.641715165132284,0.2721575200557709,0.6511018872261047,0.7696280479431152
0.43852954101562425,0.0571400834567844,2.333305877427757,4.241560296157002,0.5869907140731812,0.7136714458465576,0.5282738208770752
0.44849682617187625,0.2412843524523079,2.3014368672192096,4.599845911049843,0.8835850954055786,0.7885797619819641,0.3587619960308075
0.45846386718749876,0.6816705967962742,2.150956090633571,4.961570852741599,1.182111740112305,0.8682100772857666,0.2803928852081299
0.4684296874999987,1.2129022103220224,2.073293882021308,5.32824786388278,1.485492706298828,0.9337291717529296,0.272172749042511
0.478396728515623,1.6870711895413697,2.097697086393833,5.59033637330234,1.7638732194900513,0.9515258073806764,0.313667744398117
0.48836279296874885,2.015725051758438,2.1673902158230542,5.706438787207008,2.005389213562012,0.8935210704803467,0.3660630285739898
0.4983298339843749,1.9848934217736125,2.210057975682616,5.801196799787879,2.218827724456787,0.7896109223365784,0.4039612710475921
0.5082956542968748,1.6816332362711428,2.348381866006553,5.899626194357872,2.387146472930908,0.6477805376052856,0.4132080376148224
0.5182629394531251,1.192447816640511,2.5044556402936577,5.940336974930763,2.499002456665039,0.5038267970085144,0.3704251646995544
0.5282297363281252,0.6461255284234881,2.6510847098872063,6.047403264942765,2.5253021717071533,0.3951107263565063,0.2894067466259002
0.5381958007812493,-0.0273613965909928,2.767875982838869,6.062150167697668,2.4319663047790527,0.3399629294872284,0.1605287790298462
0.5481628417968754,-0.5986205576658249,2.862195019480586,6.006889468246698,2.261712551116944,0.3821463584899902,-0.014154870994389
0.5581286621093753,-1.007923462286219,2.74055192258358,5.738889104434848,2.0408718585968018,0.5061489343643188,-0.206939697265625
0.5680957031249996,-1.1908384086824952,2.47307353681922,5.179110026338696,1.821911692619324,0.6365460753440857,-0.3489511609077453
0.5780620117187496,-1.286302815967053,1.9375953717648984,4.304840635934472,1.6438220739364624,0.6836567521095276,-0.3944355547428131
0.5880288085937497,-1.4705246802434324,1.5996026033163069,3.340376595342159,1.462672233581543,0.6435341238975525,-0.4027981460094452
0.5979948730468738,-1.962462832648307,1.5729109957456588,2.3687784650862214,1.281245470046997,0.5757307410240173,-0.4633966088294983
0.6079619140624999,-2.506815647423267,1.2975924178749323,1.404929341521859,1.1170320510864258,0.4961578249931335,-0.5723422765731812
0.6179287109375,-3.0732828249812125,1.0790537118464707,0.2738245399206876,0.9415591359138488,0.4151916205883026,-0.7237817049026489
0.6278947753906241,-3.709261637921631,1.0391121620804071,-0.5757879636108875,0.770077109336853,0.3911102414131164,-0.8518640398979187
0.6378618164062502,-4.575527754612267,0.8582762869805097,-1.2105056705743074,0.5488089919090271,0.416572093963623,-0.9415124654769896
0.647827880859376,-5.624992676141858,1.1021873346745967,-1.6532991221904754,0.2538756430149078,0.5020201802253723,-1.0186264514923096
0.6577946777343762,-6.559628564703464,1.3740233311265706,-2.064608471262455,-0.087500013411045,0.6364549398422241,-1.052669882774353
0.6677607421875003,-7.171655131909251,1.411539115050435,-2.3168308357059955,-0.3939302265644073,0.8625764846801758,-1.0381686687469482
0.6777277832031228,-7.2421911419034,1.1790034478515383,-2.92503813688457,-0.609769344329834,1.0632593631744385,-0.9635822772979736
0.6876938476562486,-7.014449723243713,0.7371317872554063,-3.7539685023933647,-0.6884228587150574,1.221073031425476,-0.8639222979545593
0.6976608886718747,-6.085111941090226,0.2568137838870287,-4.547322527608275,-0.6180316805839539,1.2434420585632324,-0.7365763187408447
0.707627929687499,-4.585299791564047,-0.7643634930521249,-5.601696556228399,-0.4779709577560425,0.9721884727478028,-0.5618473887443542
0.7175939941406231,-3.212391435942054,-1.5574737726390362,-6.390989323353767,-0.3514999151229858,0.4753926396369934,-0.3808969557285309
0.727560791015625,-2.4607068071991205,-2.0361492694973946,-6.6257257154673335,-0.2560714185237884,-0.1525314599275589,-0.2020185440778732
0.7375268554687491,-2.446181145979464,-2.4599393299579617,-6.770721046379208,-0.2306261360645294,-0.8667226433753967,-0.0728609561920166
0.7474936523437492,-2.977827185525,-2.899548890841007,-6.555759029793739,-0.3220607042312622,-1.511530876159668,-0.0409544184803962
0.7574597167968751,-3.563012215295434,-3.219041541481018,-6.189565418255329,-0.5744225382804871,-2.0628371238708496,-0.110699288547039
0.7674265136718752,-3.7847196144878863,-3.5442712744683025,-5.918929445242881,-0.8919320106506348,-2.4373602867126465,-0.1761105358600616
0.7773928222656252,-3.5430762194648384,-4.130519257295132,-5.374467178744077,-1.1495921611785889,-2.5669384002685547,-0.1563305258750915
0.7873596191406254,-3.167960465802252,-4.563162486296892,-4.7981899703115225,-1.3238427639007568,-2.4916775226593018,-0.05266884714365
0.7973266601562496,-2.787045085950196,-4.423117471268773,-3.809152044954896,-1.4253883361816406,-2.239894151687622,0.0582255870103836
0.8072927246093737,-2.19921567915082,-4.061402466449141,-2.6203227841377257,-1.4986289739608765,-1.888343334197998,0.1347925364971161
0.8172597656249998,-1.238174014222622,-3.496464982676506,-1.5518284602284431,-1.630512833595276,-1.5585170984268188,0.1594554334878921
0.8272258300781239,-0.1603943408999592,-2.9556740981668232,-0.5346493130147457,-1.8226245641708372,-1.297040939331055,0.176613375544548
0.83719287109375,0.9676506347391752,-2.466198098091781,0.3958335475206375,-2.0299997329711914,-1.1126320362091064,0.2005525827407837
0.8471589355468758,2.031996095340699,-1.858554860536754,1.1194728159964085,-2.1960268020629883,-1.08891761302948,0.1874085515737533
0.857125732421876,2.81615865997076,-1.328736328679323,1.6808534840703009,-2.3120903968811035,-1.2065635919570925,0.109269231557846
0.867091796875,3.402991749209165,-0.917538038766384,2.292573177284002,-2.369842529296875,-1.387464165687561,0.0154633782804012
0.8770585937500002,3.81682740188837,-0.5342173513382673,2.9667531260639426,-2.3671348094940186,-1.5817725658416748,-0.035948023200035
0.8870256347656227,4.144439061576128,-0.2680518017381429,3.625286592900753,-2.28393816947937,-1.7301411628723145,-0.0184654369950294
0.8969916992187503,4.375415224373341,-0.0325359496846795,4.125233425846695,-2.1338276863098145,-1.7857729196548462,0.0494602061808109
0.9069587402343746,4.660430435872078,0.1539186420798301,4.404540196570753,-1.8996727466583248,-1.721682906150818,0.1414545774459839
0.9169248046874987,4.863699092054366,0.1085968605801463,4.424267225825786,-1.5847902297973633,-1.5711320638656616,0.2538273334503174
0.926891845703123,4.795960603824257,0.1862669602379202,4.382876646295189,-1.1649022102355957,-1.279139280319214,0.3716399669647217
0.9368576660156229,4.41653926192224,0.2197314229443669,4.436957780572771,-0.6581583619117737,-0.9149163961410522,0.4495218992233276
0.946824707031249,4.05922395336628,0.3020490561470389,4.13059582966268,-0.1046262010931968,-0.5968039631843567,0.4242338538169861
0.9567907714843749,3.903337810605764,0.4056096761256456,3.914841785916686,0.434508204460144,-0.3508611619472503,0.3363578915596008
0.9667578124999991,3.8140687508299935,0.5656169904693961,3.851861890390515,0.8950963616371155,-0.2224334180355072,0.2051396816968917
0.9767248535156252,3.8241923776984215,0.7651756862178445,3.8637767845898874,1.236924171447754,-0.1762104481458664,0.0313100889325141
0.9866906738281251,3.8651854823440313,0.8628598153784871,3.991473190176487,1.489681601524353,-0.1533503979444503,-0.1478665918111801
0.9966577148437494,3.8029865080624816,0.8032365368038415,4.222790129235387,1.6506129503250122,-0.1150336936116218,-0.3201106190681457
1.0066237792968753,3.883454129484296,0.7741366990476847,4.339478818595409,1.683154821395874,-0.093567818403244,-0.4642827212810516
1.0165908203124996,3.8772070517882704,0.9395721759200096,4.233395109879971,1.597813606262207,-0.0515258535742759,-0.5857439041137695
1.0265566406249995,3.8380209965646266,1.190575227701664,4.150210046193004,1.476306438446045,0.1239809840917587,-0.6119222640991211
1.0365239257812497,3.661859250755608,1.0178706366091963,3.890926657322049,1.3954304456710815,0.4012235403060913,-0.5238615870475769
1.0464897460937497,3.407759694263339,0.9924506564095616,3.5095524277865886,1.3479379415512085,0.7653807401657104,-0.3965036869049072
1.056456787109374,3.1379499429419635,1.1543851394236089,3.1511347109466787,1.294896960258484,1.14361572265625,-0.2772039473056793
1.066423828125,2.9531764361321926,1.240046530096233,2.3880963290184734,1.2505868673324585,1.4390668869018557,-0.191654697060585
1.0763896484375,2.9700547979578373,1.1974369301646948,1.3624194025725125,1.2323352098464966,1.631381869316101,-0.1485331952571869
1.0863566894531242,3.152784523980319,0.7818892128705978,0.0748006817013025,1.2848849296569824,1.712310791015625,-0.1136876046657562
1.0963225097656242,3.2964790014266967,0.1540320393264293,-1.3965601571053263,1.371661901473999,1.6064363718032837,-0.1237200200557708
1.1062897949218762,3.165030549830198,-0.1071951770886778,-2.9271359859466552,1.430552959442139,1.3188520669937134,-0.2203797101974487
1.1162558593750003,2.837458929891884,-0.4673188210636377,-4.300850104993581,1.4201933145523071,0.9177548289299012,-0.3744345009326935
1.1262229003906228,2.386686023829132,-0.8947510374188422,-5.831337086507678,1.3251889944076538,0.4986026287078857,-0.5237579345703125
1.1361887207031227,1.98570006198138,-1.3497960678428411,-6.931240109637379,1.1676219701766968,0.3511828184127807,-0.6148995161056519
1.1461557617187488,1.6388922650448976,-2.1398510515123603,-7.421114461380243,0.9826310873031616,0.6055994033813477,-0.6001714468002319
1.1561215820312487,0.9978526615835726,-2.62434371021688,-7.896226128277182,0.7924247980117798,1.1679229736328125,-0.4603142142295837
1.166088867187499,-0.0404100440606474,-2.103778452134132,-8.268526824519038,0.6052591800689697,1.809955358505249,-0.2151518613100052
1.1760546874999989,-0.7910111153505742,-1.797509440204501,-9.411855732399223,0.444711297750473,2.340146064758301,0.0748908743262291
1.1860217285156232,-0.7690430291704833,-1.76289697650671,-10.497679961293937,0.3920267820358276,2.7570700645446777,0.3038364350795746
1.1959887695312492,-0.3622152094267308,-1.7368436668395997,-11.34984857904911,0.4558078944683075,2.944385528564453,0.4507396221160888
1.2059545898437491,0.2039681096885353,-1.7007383342355489,-12.12843173611164,0.5775766372680664,2.859848022460937,0.4966546297073364
1.2159216308593752,0.9530431404549627,-1.974640031045675,-12.385413277781009,0.709994375705719,2.5687365531921387,0.5327207446098328
1.2258876953124993,1.2859835208848118,-2.179130922499299,-12.130905432748794,0.772904634475708,2.062722682952881,0.6208087801933289
1.2358549804687495,0.8890280566621571,-2.061325796329975,-11.256720213496685,0.6715883016586304,1.4585275650024414,0.7740252017974854
1.2458208007812495,-0.0208169068509712,-1.7553057907253502,-9.923047012937069,0.3252058327198028,0.8118991851806641,0.9062719345092772
1.2557878417968737,-1.2060755791723727,-1.4637801744192838,-8.245725210124254,-0.1951375156641006,0.2975169420242309,0.962279975414276
1.2657536621093737,-2.339710191512108,-1.1191706181794403,-6.353778659856319,-0.7526841759681702,0.0108340429142117,0.9782989025115968
1.2757207031249997,-3.288391556560993,-0.5792109237968921,-4.252092211565375,-1.285303831100464,-0.0016002510674297,0.984028697013855
1.2856865234374997,-3.770978966166079,0.1847486646294593,-2.114792598101497,-1.750165581703186,0.2359899282455444,1.0260144472122192
1.29565380859375,-3.6015865683615207,0.9682225163429976,-0.2811889312088489,-2.094378709793091,0.5967947840690613,1.1138696670532229
1.3056198730468758,-2.8558088255748157,1.5282967779934404,0.9146662827223538,-2.299425840377808,0.9118869304656982,1.2459851503372192
1.3155869140625,-1.8702713095545769,1.8969120637208223,1.788397328466177,-2.351583242416382,1.0939278602600098,1.3777732849121094
1.3255537109375002,-0.874505975639075,2.1265335970386863,2.3089450508922336,-2.26513671875,1.020715594291687,1.498697280883789
1.3355197753906243,-0.277036341574043,2.257403371964395,2.5434213307648896,-2.0358357429504395,0.7033501267433167,1.5953857898712158
1.3454833984374996,-0.1236434038687497,2.327478486448526,2.977860795533657,-1.7267547845840454,0.2110954374074936,1.6219321489334106
1.3554494628906237,-0.2674065626371651,2.373076454541087,3.587897065705061,-1.3879090547561646,-0.351709634065628,1.5424076318740845
1.3654162597656239,-0.5180970413383096,2.3043925021544096,4.343136756581068,-1.0498223304748535,-0.9016257524490356,1.4026761054992676
1.3753823242187497,-0.9766324711613356,2.2678496549159286,5.088772168287634,-0.733771800994873,-1.3753807544708252,1.2066689729690552
1.3853491210937499,-1.3954028037637471,2.302482869140804,5.848235029816627,-0.463851660490036,-1.7239137887954712,0.9915189146995544
1.395315185546874,-1.7459053635649382,2.275343517802656,6.6065645034015175,-0.2623472809791565,-1.853936791419983,0.7735838890075684
1.4052822265625,-1.992542475222051,2.266461123166978,7.303738374277949,-0.1328976899385452,-1.7777504920959473,0.5807121992111206
1.41524853515625,-2.191590591099858,2.282783896936476,7.751293925729393,-0.0615247711539268,-1.5315160751342771,0.4233922958374023
1.4252153320312502,-2.098991510118544,2.336966445761919,7.975432351461053,-0.0374239608645439,-1.2106386423110962,0.2953110337257385
1.435181396484376,-1.6847263799808918,2.281353571872413,7.814168607315421,-0.0154766961932182,-0.9202150106430054,0.2470706552267074
1.4451481933593762,-1.189017769126594,2.1556740590661763,7.546229618301987,0.0562635399401187,-0.6625778675079346,0.2699421644210815
1.4551152343749987,-0.7369561384275555,2.12915576223582,7.269609894704819,0.1812577247619629,-0.4210352003574371,0.3094201683998108
1.4650810546874986,-0.3493484213300049,2.010748286259174,7.005008525681495,0.3551634848117828,-0.2341353446245193,0.3503375053405761
1.4750483398437488,0.0170217158190906,1.862268035840988,6.654039371281862,0.5511197447776794,-0.1237168535590171,0.3555923104286194
1.4850141601562488,0.2448591421991586,1.7173156672880052,6.2635214658260345,0.7789497375488281,-0.0943107679486274,0.3246296048164367
1.4949812011718748,0.3029239392854273,1.5523270574003456,5.959269054415822,1.022384524345398,-0.1245946735143661,0.2357734739780426
1.504947265624999,0.3051348933331668,1.421622409908473,5.732201589494943,1.231015682220459,-0.2042381018400192,0.1060572937130928
1.514914062499999,0.0868058845326304,1.3997951935037969,5.539529730650783,1.3814728260040283,-0.2411956191062927,-0.0464396513998508
1.524880371093749,-0.1523207053638994,1.1917565464407205,5.421935616883635,1.5360203981399536,-0.2475192993879318,-0.1890375465154647
1.5348474121093751,-0.2388002805516123,0.7853679948970675,5.15849452381134,1.6617419719696045,-0.2505377531051636,-0.3417293727397918
1.5448134765624992,-0.3546871520094573,0.5700131796017289,4.916284434816241,1.7069240808486938,-0.2314128130674362,-0.5003682971000671
1.5547802734374994,-0.5144698638170957,0.2380488776624202,4.504733093681931,1.6431912183761597,-0.2219431549310684,-0.6441737413406372
1.5647463378906252,-0.8006709240995347,-0.1552905149549245,3.7801363783508535,1.5061029195785522,-0.1915887147188186,-0.7909088730812073
1.5747131347656254,-1.005910295832902,-0.6523942334294319,2.851982253023982,1.3384582996368408,-0.1170201748609542,-0.9471471309661864
1.5846791992187494,-1.1007895967058836,-1.2634738751739265,1.702201977047324,1.1715291738510132,-0.0321952998638153,-1.0437188148498535
1.5946459960937496,-1.1795343398578464,-1.939647043597698,0.5938683947026729,0.94534170627594,0.0340226106345653,-1.0889291763305664
1.6046123046874996,-1.3152347498103976,-2.207236488521099,-0.5283978514045476,0.6309464573860168,0.1082864478230476,-1.173012137413025
1.614579345703124,-1.347414725664258,-2.487193832108378,-1.6278385177195072,0.2721938192844391,0.1957908272743225,-1.2831329107284546
1.624546142578124,-1.3223342065520585,-3.050222267389297,-2.765117039519548,-0.091833658516407,0.2745357155799866,-1.3599592447280884
1.6345124511718758,-1.309086748574674,-3.356556161248684,-3.868354760029912,-0.4441964030265808,0.3430777788162231,-1.4282091856002808
1.644479248046876,-1.643527085238695,-3.0834266178548333,-4.709114679542184,-0.7341291904449463,0.4192106425762176,-1.4568445682525637
1.6544453125,-2.166846025943756,-2.438873745575547,-5.202410237905383,-0.9557150602340698,0.5122058987617493,-1.4102846384048462
1.6644123535156243,-1.9694395397931337,-2.0225380927741528,-5.671925692230463,-1.094233512878418,0.6407191753387451,-1.3186681270599363
1.6743784179687502,-1.2332301280796527,-2.251141681221128,-6.405085068723559,-1.12775719165802,0.7236011028289795,-1.177261471748352
1.6843452148437503,-0.0900998845767229,-2.7801304842561483,-7.489025968089699,-1.052821397781372,0.6739195585250854,-0.9864482879638672
1.6943112792968762,1.2218939836163074,-3.589676934859156,-8.717246159052848,-0.8911237716674805,0.482153832912445,-0.7045402526855469
1.7042780761718763,2.2330732328280805,-4.418233790880441,-9.519777177935838,-0.6532555818557739,0.2525006830692291,-0.3399417698383331
1.7142443847656228,2.58066589653194,-4.881251115357876,-9.58385539009273,-0.4053824245929718,0.0069339694455266,0.0669854804873466
1.724211181640623,2.1286207785762845,-4.755332240837812,-9.270154766857624,-0.287940502166748,-0.345019519329071,0.4223134815692901
1.7341772460937488,1.1392241759750992,-4.054426782217622,-8.654922097086907,-0.3408659398555755,-0.7697040438652039,0.6309235692024231
1.7441442871093749,0.0732424924738705,-3.4389112038522955,-7.789138795477151,-0.4739611446857452,-1.1194766759872437,0.7266141176223755
1.754110351562499,-0.6715561030823737,-3.077740388911962,-6.97273473406434,-0.569670557975769,-1.321237325668335,0.7760685086250305
1.764077392578125,-1.193280248876661,-2.695970730318129,-5.796262265995145,-0.5567387938499451,-1.2906168699264526,0.8035773634910583
1.7740432128906232,-1.3328585231758654,-2.294201363007724,-4.582847429975867,-0.4741652309894562,-1.1258018016815186,0.804192841053009
1.7840102539062492,-1.1336624501947312,-1.867056146900356,-3.358264134210348,-0.3633862435817718,-0.9123337864875792,0.8015986680984497
1.793976318359375,-0.5971878945142031,-1.295304599198699,-1.940385879266262,-0.236091062426567,-0.7066613435745239,0.826380729675293
1.8039433593749994,0.1657376746892929,-0.8787602720826864,-0.487576011672616,-0.0895932465791702,-0.5494349598884583,0.8676804900169373
1.8139094238281253,0.8687498963303864,-0.3703346568658948,0.9328490051448344,0.056694146245718,-0.4897405207157135,0.9188935160636902
1.8238764648437495,1.327910399249196,0.2923144285961985,2.249081826081872,0.1737288832664489,-0.5446562170982361,0.962097704410553
1.8338422851562495,1.4073988003753124,1.0464540492758154,3.608421382817626,0.2712436318397522,-0.6324724555015564,0.9685910940170288
1.8438093261718738,1.3427185306720435,1.7079162630409002,4.990709268942475,0.3470995128154754,-0.7047485113143921,0.9215245246887208
1.8537751464843737,1.024108069694042,2.2467323403462767,6.093047994786501,0.3839354813098907,-0.777392566204071,0.8183477520942688
1.8637421874999998,0.7442125392965973,2.683904152688384,6.954552596163749,0.3914344012737274,-0.843080997467041,0.6668796539306641
1.873709228515624,0.7019879931598901,2.9456515935853123,7.679979917100072,0.3516848683357239,-0.9101672172546388,0.4830511808395386
1.88367529296875,0.8326713056027889,3.0707392779782414,8.175942648845911,0.2757008969783783,-0.9482144713401794,0.3095949590206146
1.893642333984376,1.2123393157422542,3.112398737578094,8.558260296711325,0.1490446031093597,-0.9539642333984376,0.1603156179189682
1.9036083984375,1.744821221590042,3.049759910574555,8.629918588733673,-0.0179326739162206,-0.9379759430885316,0.0614534877240657
1.9135754394531244,2.1667564479641617,2.9652929903835057,8.606455880081652,-0.2091368734836578,-0.8858468532562256,0.0346821881830692
1.9235412597656243,2.5090356615602967,2.870889782589674,8.520864339774846,-0.4280564486980438,-0.7290812134742737,0.082057423889637
1.9335085449218763,2.904688884077966,2.690192731438577,8.278102462115884,-0.6246786713600159,-0.5318259000778198,0.189249575138092
1.9434743652343762,3.200911718289554,2.3824247131228447,7.738507509392499,-0.7822787165641785,-0.3586384356021881,0.3113104999065399
1.9534414062499987,3.2807325662404296,2.135430312460661,7.0408724507451055,-0.8844912648200989,-0.2015589922666549,0.4102129638195038
1.9634072265624987,3.242460410991311,1.9445219561576843,6.311398484766483,-0.8992116451263428,-0.0672128871083259,0.4976695775985718
1.973374267578123,2.975368978717923,1.698753590159118,5.530108406832814,-0.8563560843467712,0.0173063930124044,0.5477332472801208
1.9833400878906229,2.53991361490488,1.5781944891065358,4.680168571043014,-0.7606367468833923,0.0777769237756729,0.5101030468940735
1.993307128906249,2.2244217243388293,1.3813193333536389,4.077120260062814,-0.6127989292144775,0.1421759724617004,0.4138602018356323
2.003273193359375,2.115836261935532,0.9984764925703404,3.4434061771839857,-0.4235640466213226,0.1612844169139862,0.2860161960124969
2.013240478515625,2.1739245860278604,0.5605000858470797,2.836406498229504,-0.230143517255783,0.1699878722429275,0.127435952425003
2.023206298828123,2.2927684075951573,0.0638303748756647,2.2314117293566462,-0.0807617455720901,0.1923560351133346,-0.0078483643010258
2.0331733398437493,2.3991113517686724,-0.387089392311871,1.5068161830693485,0.0318283848464489,0.172381967306137,-0.1221232116222381
2.043139160156249,2.506133218117058,-0.7072732400864362,0.3937579102903604,0.117462582886219,0.0552068725228309,-0.2501962184906006
2.0531062011718753,2.503592009201645,-1.218676702070236,-0.6354430986285209,0.1791304796934127,-0.0911318510770797,-0.3509275317192077
2.063072021484375,2.18490161485523,-1.6405352099463342,-1.7850544477790593,0.1616207212209701,-0.2667265832424164,-0.4319156110286712
2.0730390624999995,1.6085592322319746,-1.780490793125331,-3.113880792829394,0.0835779830813407,-0.4260064363479614,-0.5130380392074585
2.0830056152343737,0.6920479061648249,-2.32302355286628,-4.480913242155313,-0.0372845195233821,-0.4758376181125641,-0.5757229924201965
2.092972412109374,-0.3979311043217778,-2.967769609630108,-5.599760619729757,-0.1764818131923675,-0.2807340323925018,-0.6431298851966858
2.1029384765624997,-1.4242688327640294,-3.456501513339579,-6.545193796637654,-0.3272483944892883,0.0915894582867622,-0.6844416260719299
2.1129052734375,-2.41429664594084,-3.5629920492902394,-7.819059886488318,-0.4843641817569732,0.5467226505279541,-0.7002910375595093
2.122871337890624,-3.2507267195552587,-3.048843672512472,-8.794030708047748,-0.5900442600250244,1.068175196647644,-0.6887441277503967
2.132838134765624,-3.660478317791224,-2.575864049208164,-9.86748703827858,-0.5800005197525024,1.5140116214752195,-0.6413198113441467
2.14280419921875,-3.325962870064377,-2.4663372143015265,-11.15721237604022,-0.4107113480567932,1.806789517402649,-0.6275616884231567
2.152771240234376,-2.3747037634819743,-2.395743628901243,-12.205096458119153,-0.0970640927553176,1.895547151565552,-0.6664948463439941
2.1627373046875,-1.1714699836067854,-2.442121349194646,-12.98559100176096,0.2772226929664612,1.7419551610946655,-0.6987478137016296
2.1727041015625,0.0388233593910932,-2.5620558886080977,-13.466584712433814,0.6501950621604919,1.3845772743225098,-0.7035085558891296
2.18267041015625,0.8860426841758191,-2.577945823918282,-13.308985920536518,0.9810387492179872,0.8905593156814575,-0.6366181969642639
2.1926372070312503,0.9036902768082916,-2.342219543984532,-12.56252925557494,1.1867574453353882,0.3078373372554779,-0.4343090057373047
2.202603271484376,0.109001203597337,-1.7938631926566362,-11.099864933443069,1.2223154306411743,-0.1979896277189254,-0.1780620217323303
2.212570556640623,-0.8967739215485752,-1.3550024043142794,-9.35878932812214,1.1112051010131836,-0.5401570200920105,-0.0036930567584931
2.222536376953123,-1.8243221899367867,-0.927338717290759,-7.574591789433359,0.9402406215667723,-0.6857081055641174,0.0479304566979408
2.232503417968749,-2.300894284775108,-0.6450058767437935,-5.898108191010356,0.7771381735801697,-0.7039784789085388,0.0195199139416217
2.2424692382812488,-2.387529196655005,-0.3390425697624683,-4.347680829751491,0.6614749431610107,-0.6528998613357544,-0.0359302945435047
2.2524353027343746,-2.0508266141474247,-0.0226978617593646,-2.668776726183295,0.5976296663284302,-0.5376506447792053,-0.0853813663125038
2.262402343749999,-1.3957634537696837,0.3504085979074239,-0.9374158746689556,0.5655550956726074,-0.3621887862682342,-0.1229535043239593
2.272368408203123,-0.5611809077180921,0.7068477081507444,0.6277811856985092,0.5519614219665527,-0.1999927908182144,-0.1426112949848175
2.282335205078123,0.3736827982500195,1.1040607273310423,2.171443290606141,0.5409186482429504,-0.0692720562219619,-0.1226956620812416
2.292301269531249,1.13986356985718,1.661522760656476,3.398514311534166,0.5172088742256165,-0.0799104869365692,-0.0590017661452293
2.302268310546875,1.6519395242750643,2.389568739658594,4.291648561406135,0.4707655012607574,-0.2410061657428741,0.0125754792243242
2.312234374999999,2.0537294959820804,3.109688601836562,4.985829095685482,0.4309938848018646,-0.5149447321891785,0.0695598572492599
2.3222011718749993,2.1786201964981853,3.6133079858154056,5.6160921613276,0.4198315143585205,-0.8087854385375977,0.1039167642593383
2.332167236328125,2.2358600870676337,3.8501106628090143,6.272779123514891,0.4212956428527832,-1.05698823928833,0.1359404474496841
2.3421340332031253,2.195273955787718,3.8921687663376328,6.795962455141544,0.3951434195041656,-1.2391647100448608,0.1660136580467224
2.352103515625,2.042949597162008,3.969258435758948,7.310429396349191,0.3339505493640899,-1.322561264038086,0.2123526334762573
2.3620705566406226,1.776415652640909,4.036980557376146,7.71161248820424,0.222490057349205,-1.292888045310974,0.2857576012611389
2.3720363769531243,1.3837154347099363,4.092797137144208,8.098551366129517,0.0790270939469337,-1.1272717714309692,0.3898927867412567
2.3820034179687486,0.9429301080457866,4.2275721028149125,8.24092044019103,-0.0796118229627609,-0.8968087434768677,0.4787659347057342
2.3919692382812503,0.5804312593720853,4.562443524372577,7.953058022567629,-0.1854818761348724,-0.7200160622596741,0.5114969611167908
2.4019365234374987,0.4402903827540576,4.819752398300171,7.2739575685203075,-0.1751514822244644,-0.638655424118042,0.485628604888916
2.4119023437499987,0.3464747655898332,4.968689160314202,6.565076893237233,-0.0328792035579681,-0.6704810857772827,0.4078161120414734
2.421869384765623,0.3014309242486953,5.136603009998798,5.757222633504867,0.2012113332748413,-0.8138153553009033,0.266105592250824
2.431835449218749,0.3536392503917217,4.993007609012722,5.240978745752573,0.501885712146759,-0.993373155593872,0.0713863670825958
2.441802490234375,0.4935045249387622,4.35335303016901,4.961301972672343,0.8035933375358582,-1.1547633409500122,-0.1121509745717048
2.451768310546875,0.5204948231950401,3.475107137349248,5.127229616975784,0.9775546193122864,-1.2316865921020508,-0.2594068050384521
2.461735595703125,0.3936424672171473,2.620675250837207,5.500321171334385,0.9693837761878968,-1.2215625047683716,-0.3987210094928741
2.471701416015625,0.3156295454710722,1.855006520405412,5.510863608136773,0.8461561799049377,-1.174313187599182,-0.5600054860115051
2.4816684570312493,0.1111219951435923,1.1344593727260828,5.178377035889029,0.7148745656013489,-1.0979238748550415,-0.717081606388092
2.491634277343749,-0.0923617650941014,0.4166057019144296,4.531826267790794,0.606903076171875,-1.0204018354415894,-0.8435196280479431
2.5016013183593753,-0.3117924515262246,-0.2243395012617111,3.6332185549438,0.4996426999568939,-0.98589026927948,-0.978760540485382
2.5115673828124994,-0.9195686678111552,-0.6623498102545737,2.4678981800079343,0.3642745614051819,-1.0239440202713013,-1.1169188022613523
2.5215334472656252,-1.641973426055908,-0.8344500057131051,1.110638936677575,0.2017530351877212,-1.0333737134933472,-1.2547969818115234
2.5315007324218737,-2.3824898873135445,-1.2203081026643514,-0.1339846920758485,0.0643926486372947,-0.9095728993415833,-1.3562021255493164
2.5414665527343736,-2.927307835382223,-1.9729741436600683,-1.496082023087144,-0.0493048839271068,-0.7209662199020386,-1.4518494606018066
2.5514335937499997,-2.870583785380423,-2.877540472650528,-3.0486160012364385,-0.1342689096927642,-0.5513824820518494,-1.5083261728286743
2.5613994140624996,-2.805767029815912,-3.810548467749357,-4.758153727999329,-0.2048101872205734,-0.5292230844497681,-1.4871575832366943
2.571366455078124,-3.754876849409938,-3.7066800969958313,-5.762745196318626,-0.2691084146499634,-0.5208876729011536,-1.45149028301239
2.581332275390624,-5.013365921908616,-2.7501035947829484,-5.897986025935412,-0.3629723191261291,-0.448843777179718,-1.4369441270828247
2.59129931640625,-5.286633412468433,-2.3712165058881043,-6.309933088389038,-0.4073069989681244,-0.2814213633537292,-1.437719464302063
2.6012653808593758,-4.568634487967193,-2.492088618412614,-6.589921996158361,-0.2462190687656402,0.0127636734396219,-1.3748902082443235
2.611232666015624,-2.966407381366193,-3.270117064201832,-6.937316214680672,0.1576953679323196,0.2270287424325943,-1.1726903915405271
2.621198486328124,-0.7804013124004006,-4.479276580864191,-7.50595898271203,0.6512094736099243,0.1594664752483368,-0.873996376991272
2.63116552734375,1.020964218710363,-5.38031765833795,-7.671207412579655,1.0382287502288818,-0.1575926542282104,-0.5867108106613159
2.64113134765625,1.8617267685711385,-5.9550891383826725,-7.389909175777435,1.2091161012649536,-0.6277260780334473,-0.3289053440093994
2.651098388671876,2.095300546646118,-6.369824370250106,-6.630422348850965,1.1485154628753662,-1.0610045194625854,-0.1130852401256561
2.661064208984376,1.9768793344050644,-6.544551407080888,-5.644616829544305,0.929824709892273,-1.3746771812438965,0.1003716439008712
2.6710305175781226,1.8229758898943664,-6.521889493417739,-4.748244328403473,0.668775737285614,-1.601815104484558,0.3958049714565277
2.6809975585937487,1.6237126699611544,-6.2277802903592585,-3.774382344868779,0.4338870942592621,-1.724931001663208,0.7188842296600342
2.6909636230468763,1.0782464871168136,-5.412673283019662,-2.703461086073517,0.2280681729316711,-1.7121727466583252,0.9685392379760742
2.700930664062499,0.2469485156938433,-4.0270267341166734,-1.3692606467694044,0.0598757043480873,-1.4608577489852903,1.0718094110488892
2.7108964843749987,-0.352708107021451,-2.6992051821947096,-0.0968862567812204,-0.0746179521083831,-1.0542758703231812,1.0490113496780396
2.720863525390623,-0.4958297530159354,-1.5627654493063687,0.8686509660005569,-0.1565991044044494,-0.5494872331619263,0.95523202419281
2.730829345703123,-0.0943234205558896,-0.5363385812759399,1.7073796719461678,-0.1886031925678253,-0.0669316500425338,0.8410026431083679
2.740796386718749,0.7785279197439551,0.3513309734493494,2.1678192548900843,-0.1850934028625488,0.3076667189598083,0.697314441204071
2.750762207031249,1.8631471567630769,1.0731704990267752,2.513587918037176,-0.115960456430912,0.5250113010406494,0.5603019595146179
2.760729492187499,3.067711746850609,1.6322615948587655,2.897072856116295,-0.0234768651425838,0.5871889591217041,0.4498699307441711
2.770695556640625,4.130169128683209,1.999855136322975,3.6458483194142577,-0.0003675520420074,0.5570397973060608,0.3889557123184204
2.780661621093749,4.887687285885215,2.4751824917972085,4.467191006273031,-0.1011934950947761,0.4838619828224182,0.4038587510585785
2.7906284179687493,5.194323962083459,2.925810290300846,5.32048892031908,-0.2527058720588684,0.450958639383316,0.5286382436752319
2.800594482421875,5.15129672126174,3.279056741982698,6.196688986524939,-0.4194804728031158,0.5181238651275635,0.7272058725357056
2.8105612792968753,4.769036064280569,3.8380736035346974,6.847083570569753,-0.6101274490356445,0.6721131801605225,0.9278608560562134
2.8205273437499994,4.393053756916522,4.492117357736825,7.102437218776345,-0.7822651267051697,0.8211652636528015,1.0785540342330933
2.8304943847656236,3.9381288457408554,5.074469502168894,6.916944457781314,-0.8853957056999207,0.931304097175598,1.1348823308944702
2.8404606933593737,3.531433127944171,5.402580928072333,6.539750144279003,-0.8833152651786804,1.001176357269287,1.1065013408660889
2.850427490234374,3.263195448245108,5.285836709132791,6.0277773579746485,-0.7720105051994324,1.0773736238479614,1.0222511291503906
2.8603935546874997,3.0460230621337887,5.001583129656314,5.597551126986741,-0.5751831531524658,1.1506824493408203,0.9076185822486876
2.8703593749999996,2.842595415997505,4.781028992152214,5.2231625185549255,-0.3252369165420532,1.2165635824203491,0.7723231315612793
2.8803264160156257,2.8783468205973506,4.610589423382282,4.954572956678271,-0.0685217678546905,1.2391602993011477,0.6354504823684692
2.890292236328124,2.9932781448960304,4.3106285716861485,4.708461768591404,0.1934714615345001,1.2090219259262085,0.5256190896034241
2.900259521484374,2.9681504256412383,4.091435201141238,4.476060541427136,0.4350388050079345,1.1085938215255735,0.4240890443325043
2.9102253417968758,2.827386448688805,3.6883576738417143,4.305401776948571,0.6597676277160645,0.951227068901062,0.298969954252243
2.9201923828125,2.683400002558529,3.200676448228955,4.069002420058847,0.8354443311691284,0.7642731666564941,0.1620416492223739
2.930158447265624,2.3481071407184,2.634605576512217,3.890054550662637,0.966569483280182,0.6454031467437744,0.0666899606585502
2.9401254882812484,1.6703128008335828,1.923718822103739,3.715460784822702,1.0326579809188845,0.6812021136283875,-0.0287904925644397
2.950091552734376,1.0076213375344871,0.9441665179729462,3.21998846694231,1.0097308158874512,0.7874746918678284,-0.1898305714130401
2.9600583496093744,0.6627656975790858,-0.3239063754290342,2.244734736788273,0.9162787199020386,0.8490192890167236,-0.3759493231773376
2.9700244140624985,0.5620215963259338,-1.630783338999748,1.0631038630425929,0.7463147640228271,0.784451425075531,-0.4995585680007934
2.979990234375,0.4302645171716809,-3.029155513963103,-0.4191191460400819,0.4610838592052459,0.5283263921737671,-0.5213749408721924
2.9899575195312487,0.1710726059764623,-4.478654065051675,-1.87636378121078,0.0266382992267608,0.2132785022258758,-0.4562307596206665
2.9999235839843728,-0.3745928988322615,-5.517380442684889,-3.163793116989732,-0.5415202379226685,-0.1527415663003921,-0.3616520464420318
3.009890624999997,-1.0980939278811217,-6.443798537999391,-4.9299002877146005,-1.1508105993270874,-0.4760304391384125,-0.2577499449253082
3.0198564453124987,-1.625460974933207,-7.118509817177057,-6.205473766005039,-1.6358284950256348,-0.7011722326278687,-0.2153279185295105
3.029823486328123,-2.686828515702486,-6.507165387016534,-7.8794433357805,-1.9590115547180176,-1.0875074863433838,-0.275299072265625
3.039789306640621,-5.271807014736533,-4.163734713676572,-9.198896872329712,-2.102688789367676,-1.438151717185974,-0.566764235496521
3.049755371093749,-8.64193343617618,-2.4335844069957733,-9.658822076010704,-2.1023802757263184,-1.3941469192504885,-0.9874294996261596
3.059722412109373,-11.53064353761673,-1.5065484720438718,-8.955978927326202,-2.0083086490631104,-0.4137695431709289,-1.4162259101867676
3.069688476562497,-12.150518480235338,-0.7115273903995752,-8.440745093399286,-1.7268731594085691,1.005255103111267,-1.6412829160690308
3.079655273437499,-10.031707294142246,-0.6454197182416915,-10.158411766082049,-1.2005680799484253,2.098620653152466,-1.5751692056655884
3.089621582031249,-5.869307043939829,-1.240290567985177,-12.146376558125018,-0.4537989497184753,2.622067213058472,-1.29965078830719
3.0995883789062475,-1.9333304077968,-2.0630688406050206,-13.012025419700144,0.3880339860916137,2.6525447368621826,-0.873140811920166
3.1095544433593716,0.7447821558780968,-2.5798715312838554,-12.935424995100496,1.143131971359253,2.265469551086426,-0.4169969260692596
3.1195212402343735,1.760149577494711,-2.301134669402241,-11.805682129502296,1.662356734275818,1.6280505657196045,-0.0174985416233539
3.1294875488281235,1.550361748676747,-1.6909306414484977,-9.92229765587449,1.877251148223877,0.9079286456108092,0.2456026971340179
3.1394533691406217,1.0838207801178097,-1.4569915371924638,-7.780808189505338,1.796456813812256,0.2673502564430237,0.3584863841533661
3.149420410156246,0.7241172612510621,-1.3397481365591286,-5.713598595833778,1.5089030265808103,-0.2120898514986038,0.3578517436981201
3.1593864746093736,0.4012190399512648,-1.28027069619596,-3.8319180035144087,1.1579985618591309,-0.4447185695171356,0.3251638412475586
3.169353515624998,0.4200782003305852,-1.2809452344566583,-2.165007120078802,0.8614283800125122,-0.4516090154647827,0.3228809833526611
3.179319335937496,0.8835203260913491,-1.2771002494663,-0.8739438117116689,0.6098435521125793,-0.362262099981308,0.3836112022399902
3.189286376953124,1.4953274053275585,-0.8133616249769926,0.1124760401010513,0.358049988746643,-0.2730275988578796,0.5159330368041992
3.199252197265622,2.0513468386292457,-0.2124006416648626,1.0481845263302323,0.0902268067002296,-0.1677661687135696,0.7088878750801086
3.209218261718746,2.3917018061645328,0.4336228876888752,2.1907284213125706,-0.1953094154596328,0.0226051770150661,0.9412545561790466
3.2191855468749964,2.5255080729335546,1.1807751336991783,3.171634478139877,-0.4886696636676788,0.2826034724712372,1.1889536380767822
3.229151611328124,2.624405085015297,1.9542811336278916,4.021919766366482,-0.7355497479438782,0.5822240710258484,1.4203619956970217
3.2391184082031224,2.6580747149050232,2.686611658081412,4.593095852267742,-0.9094197750091552,0.8147659301757812,1.6062365770339966
3.2490844726562464,2.5919302178680894,3.369361866807937,4.999374805957078,-0.998743772506714,0.9655464291572572,1.7313657999038696
3.2590515136718743,2.245536846951395,4.055547310680151,5.392233137059211,-1.018260478973389,1.0169672966003418,1.784595251083374
3.2690173339843724,1.575074018998444,4.595841936105489,5.564558373445272,-0.99007385969162,1.012695550918579,1.7465670108795166
3.2789833984374965,1.014157607435435,4.853402154445648,5.757958546563983,-0.8855112791061401,0.9722628593444824,1.5880626440048218
3.2889504394531244,0.5054118203535676,5.019226338374614,5.743870399978756,-0.6972821950912476,0.9061736464500428,1.374469518661499
3.2989165039062485,0.0646015053786337,5.096773103913664,5.670571355012059,-0.3980669379234314,0.7963669896125793,1.1522201299667358
3.308883300781247,-0.2445505146414041,5.023272398895025,5.41355298846364,-0.00434460490942,0.5653800368309021,0.962885320186615
3.318849609374997,-0.529385693398118,4.992862063062191,5.268366518893838,0.4103082418441772,0.2493003755807876,0.8220571279525757
3.3288154296874986,-0.8877006805159151,5.192471612215042,5.277360557210445,0.7573041915893555,-0.0515939518809318,0.6605373620986938
3.338782470703123,-1.4284887885466218,5.319094251090288,5.558784466218948,1.0316200256347656,-0.2596336901187897,0.3826647102832794
3.3487456054687463,-1.8012113634623586,5.408146745505928,5.747917629542947,1.2136882543563845,-0.4121584594249725,0.0162534248083829
3.358712646484374,-1.7795302775301038,5.293943443220853,5.7807227515578266,1.307908535003662,-0.5522146224975586,-0.3505592048168182
3.3686787109374983,-1.4745382997989651,5.057432442650199,5.77582971881926,1.3548238277435305,-0.6653326153755188,-0.6425257921218872
3.3786455078124966,-1.018035764043033,4.524579949924349,6.008227438852191,1.370633602142334,-0.6714195609092712,-0.8353205919265747
3.3886115722656243,-0.5093661109372973,3.932795960280299,6.245831495356559,1.3227611780166626,-0.6236395239830017,-0.9332002401351928
3.3985776367187484,-0.1345604461371898,3.5026036315619944,6.370153456073999,1.1988298892974854,-0.5071746706962585,-0.9655542373657228
3.4085449218749986,0.2307210189923643,3.1245424720972776,6.5422922299772495,1.0480012893676758,-0.3383130431175232,-0.9650042057037354
3.4185107421874967,0.6540712267309426,2.5877351042658088,6.364514573404192,0.8968091607093811,-0.1838081628084182,-0.9644097685813904
3.428477783203121,1.0012029949247836,2.0908049887925384,5.736415992319584,0.7544070482254028,-0.1346044838428497,-0.9813404083251952
3.4384436035156227,1.2026970426499843,1.6894968092530964,4.981359256795049,0.6745482087135315,-0.1984836012125015,-1.0694271326065063
3.448410644531247,1.3724516978956758,1.27769704631567,3.995432741457224,0.6611605882644653,-0.4238680601119995,-1.2417446374893188
3.4583764648437487,1.4303957912117242,0.5860585977345705,2.634535433885455,0.6595056653022766,-0.7874031066894531,-1.468864679336548
3.4683427734374987,1.3410029589258134,-0.1955184804469346,1.500571151199937,0.6327762007713318,-1.166359782218933,-1.6298539638519287
3.478309814453123,1.121967993813008,-1.258252341133356,0.3380950597792864,0.5089815855026245,-1.481140375137329,-1.6273561716079712
3.488275878906247,0.6276208805702627,-2.315148581707477,-0.7234773559123278,0.2976371049880981,-1.535434603691101,-1.505352020263672
3.498242675781249,0.1224788170687854,-2.9986978318572044,-1.4883675031870602,0.0677517130970954,-1.232791543006897,-1.370779514312744
3.508208740234373,-0.0969607833221554,-4.278500326019525,-2.8563270042300224,-0.0719848722219467,-0.7667632699012756,-1.1318243741989136
3.5181745605468713,-0.7569460564024746,-5.098661694139242,-4.21108975456953,-0.1822123080492019,-0.3355607390403747,-0.8016190528869629
3.528141601562499,-2.327715217813849,-4.51706299842298,-5.584248577821255,-0.4022800624370575,-0.0835397765040397,-0.4745377004146576
3.538107666015623,-3.9683734696179616,-3.769758192199468,-6.365070453721285,-0.6809651851654053,0.2392262816429138,-0.3022471666336059
3.5480744628906216,-4.773030102352798,-3.5479233672350645,-6.763250272107124,-0.8299702405929565,0.6917027831077576,-0.2701148092746734
3.558040527343749,-4.38953318157494,-3.993886096537113,-7.643363127842545,-0.6732874512672424,1.0839850902557373,-0.1539314836263656
3.5680068359374992,-2.796936949889361,-5.223270070582628,-8.392212825420499,-0.2947525680065155,1.2146210670471191,0.1471129804849624
3.5779736328124976,-0.9765260881774128,-6.641227820503711,-9.057848233217,0.0821502432227134,0.992039918899536,0.4981223940849304
3.5879396972656217,0.1019701359167695,-7.705632829272747,-8.972333265277744,0.330298364162445,0.5366294384002686,0.7981059551239014
3.5979064941406236,0.0632365006357431,-8.167748236474395,-8.31604202440977,0.4029792249202728,0.0165699925273656,0.98770010471344
3.6078725585937477,-0.9163773244239388,-7.901562228608131,-7.4191738487064836,0.36644047498703,-0.4596019387245178,1.047108173370361
3.6178386230468718,-2.2186161067999897,-7.341688457965851,-6.31556378775239,0.2895592749118805,-0.7934262752532959,1.0022342205047607
3.627805664062496,-3.2449121880576013,-6.901797157531976,-5.157517203211784,0.1658934950828552,-0.8948689103126526,0.87948077917099
3.6377714843749978,-3.942540524703264,-6.6081766147732734,-3.5765976730555296,-0.0274461470544338,-0.6907849907875061,0.6932445764541626
3.647738769531248,-4.216251667377352,-5.965498888716101,-1.7925445112735032,-0.3334596455097198,-0.1939643174409866,0.4657608270645141
3.657704589843746,-3.660710957503319,-4.913342536145448,-0.0540396332234144,-0.7365530133247375,0.4188359677791595,0.2670679688453674
3.6676706542968738,-2.207839276719838,-3.766911570596695,1.0799585517317056,-1.1215074062347412,0.98609858751297,0.131830021739006
3.677637451171872,-0.3111250736586749,-2.5744313860565424,1.6248691465198992,-1.3750061988830566,1.36341392993927,0.1022428348660469
3.687603759765622,1.5035302932664751,-1.285121643358469,1.6731225975573063,-1.4169355630874634,1.4751300811767578,0.1716627180576324
3.697570556640624,2.6333161212235687,0.0378530530542135,1.7673375893026588,-1.2177764177322388,1.3896753787994385,0.3027994334697723
3.707536621093748,2.614978500500321,1.2365893753796815,2.0840198586970566,-0.8317902088165283,1.2355053424835205,0.4118802547454834
3.7175024414062463,1.8803394068434836,2.2210458181649444,2.7276339888215064,-0.368482232093811,1.096259593963623,0.4078966975212097
3.7274697265624965,0.7505712606735527,2.869026326805353,3.6368460977911945,0.0147277787327766,1.0635573863983154,0.3050382137298584
3.7374355468749982,-0.4190148088827728,2.967421819105744,4.856039517211914,0.2160885781049728,1.2656971216201782,0.1461274176836013
3.7474025878906225,-0.7437571967445313,3.2168542605698107,5.820028926029801,0.2612898647785187,1.5922185182571411,-0.0024755708873271
3.7573686523437466,-0.3323227599881589,3.3074136524170634,6.189736098647117,0.1854411661624908,1.943203687667847,-0.0599873289465904
3.7673347167968743,0.3371513491883873,3.320165581962466,6.237483353728056,0.1018819883465766,2.1815061569213867,-0.0483584925532341
3.7773017578124986,1.440487853898108,3.3766467631191013,6.057387483340501,0.0772285684943199,2.1900758743286133,-0.0055058347061276
3.7872675781249967,2.228270070330053,3.35052038821578,5.9060991897642605,0.1089968681335449,1.9923774003982544,0.0422843284904956
3.797234863281247,2.6750141592681405,3.661522273886204,6.003970950451493,0.1484041959047317,1.7486648559570312,0.0325294360518455
3.8072006835937486,3.445468078149855,3.5528152309298515,6.1617749095320695,0.1454065889120102,1.477748155593872,0.1383536905050277
3.8171667480468727,3.560865266394615,3.3965760369479656,6.40124183729887,0.113289400935173,1.301714539527893,0.3758208453655243
3.827133544921871,3.237589005562663,3.32288127066195,6.780460350105166,0.0340867266058921,1.2575523853302002,0.6217902302742004
3.837099853515621,2.6397172204375265,3.5391818423748016,6.7656292761981485,-0.0956888422369957,1.2613719701766968,0.7723155617713928
3.847066650390623,1.7853120758019387,3.918197526085376,6.410578989964724,-0.2098561525344848,1.260300636291504,0.8063532114028931
3.857032714843747,0.9187979026343672,4.088724773138761,5.944364330750704,-0.2649705410003662,1.2726033926010132,0.7343823909759521
3.866998535156249,0.3613233020883053,4.091124820017814,5.447643474113941,-0.2534405291080475,1.3040833473205566,0.600418746471405
3.876965820312499,0.190107597846724,3.905792218020558,4.907883686217666,-0.1688561290502548,1.3347411155700684,0.4655482769012451
3.886931640624997,0.3105792763441801,3.5155350093275306,4.286829762947559,0.0079014990478754,1.3044228553771973,0.3633155524730682
3.896897949218747,0.7008580392818897,2.8222447018861767,3.6097494165509936,0.2252700328826904,1.197219729423523,0.289398729801178
3.906864746093749,1.204153890394792,1.944104607528448,3.121331693357229,0.4206001162528991,1.0732561349868774,0.216922640800476
3.916830810546873,1.662359065350145,1.0876169575303791,2.587674313989281,0.5335530638694763,0.8921340107917786,0.1749062091112136
3.9267976074218716,1.9018191249847407,0.1629799004137516,1.9548007735878228,0.5710442662239075,0.7141371369361877,0.1679987013339996
3.936763671874999,1.811495879980921,-0.6393266620635986,1.4869862779617309,0.5072565078735352,0.5518158674240112,0.1488359272480011
3.9467294921874974,1.4794699109822511,-1.2251713247865437,0.3953618383556604,0.3270846009254455,0.321709394454956,0.0989687666296958
3.9566965332031216,1.0083891070365905,-1.6264315735310315,-1.2142115393549202,0.0495960153639316,0.0787601098418235,-0.0121415071189403
3.9666628417968717,0.4780912672296166,-1.9661177018940448,-2.727543972450494,-0.2363538593053817,-0.0173492860049009,-0.1360033899545669
3.9766296386718736,0.1645410487832501,-2.746975818151236,-4.278357118156552,-0.4293065071105957,0.0654177665710449,-0.220238909125328
3.9865957031249977,-0.1535784686063416,-3.5400323217242957,-5.9576984440982335,-0.5098389983177185,0.232627660036087,-0.2876812517642975
3.9965617675781218,-1.0159709404677153,-3.074193510085344,-7.607740025797486,-0.5521067976951599,0.3642344176769256,-0.3632252812385559
4.006528564453124,-2.0639263342171907,-1.7398299891740083,-8.891088814264535,-0.5522146224975586,0.5186702609062195,-0.4227720499038696
4.016494628906248,-2.5044880812585357,-1.0691133325904607,-9.891600904315707,-0.4434612095355987,0.7067693471908569,-0.4691835045814514
4.026461425781246,-2.169374229247123,-1.220092414087057,-10.795925241243838,-0.1460370123386383,0.934153974056244,-0.4801696538925171
4.036427490234374,-1.038461662282422,-1.772674858677387,-11.403140608775615,0.2997695207595825,1.0602360963821411,-0.3984225988388061
4.046393554687498,0.5523937170851976,-2.526895143377781,-11.836308738434314,0.7453858852386475,0.9502208828926086,-0.2138982862234115
4.056360839843748,2.080259629380703,-3.250060364601016,-11.644838072073458,1.0664368867874146,0.6304218173027039,-0.0095137190073728
4.066326660156246,2.8317607182502744,-3.6511259675562378,-10.996285316503048,1.2026152610778809,0.1843007206916809,0.1832744926214218
4.076292724609374,2.3731452819935974,-3.4011937598764894,-9.934875397896766,1.172396183013916,-0.3133173286914825,0.3647992610931396
4.086259521484372,1.2903567675329743,-2.8218764530956744,-8.833878734311462,1.0070630311965942,-0.7341610789299011,0.4919361472129822
4.096225585937496,0.1840825288709253,-2.844727167329192,-7.360110249841213,0.7897234559059143,-0.9348334670066832,0.4961953461170196
4.106192382812498,-0.7792210165746509,-2.946004937067628,-5.670490106469392,0.5411141514778137,-0.8759716749191284,0.4275935292243957
4.116158691406248,-1.3269465226531028,-2.839021649163961,-3.660979837572575,0.2428888529539108,-0.5772278308868408,0.3658313751220703
4.126124511718746,-1.227340923910588,-2.5953917564988136,-1.629819462403655,-0.0911395326256752,-0.1526091992855072,0.3440946340560913
4.136091796874997,-0.659531903289631,-2.057332927301526,0.0274035552322864,-0.4499131441116333,0.2065521478652954,0.3591015338897705
4.146057617187498,0.1594092753853648,-1.3493027313679455,1.1918383795052767,-0.7896369695663452,0.4377513825893402,0.4202455580234527
4.156024658203123,1.0140126460067926,-0.7460252878069877,2.148224327582121,-1.0357978343963623,0.5264538526535034,0.5548739433288574
4.165990478515624,1.6009449578359722,-0.0694903003334999,2.9251994649261235,-1.164573311805725,0.4505794942378998,0.7190815210342407
4.175956787109374,1.6412550486534834,0.7918623253524303,3.400444987335801,-1.203946232795715,0.2159427404403686,0.8224760890007019
4.185923583984373,1.0590439201273023,1.7351900544136762,3.811418236321211,-1.1688953638076782,-0.1308379471302032,0.8261018991470337
4.195889648437497,0.3403804307701066,2.3954560441315174,4.2328070808589455,-1.071620225906372,-0.5183228254318237,0.7567228078842163
4.2058554687499985,-0.2338288122819736,2.771484820985794,4.56197239972949,-0.9337169528007508,-0.9121716022491456,0.6683127880096436
4.215822753906249,-0.6287753843676298,2.93238616155982,4.886924484819174,-0.7614061832427979,-1.22510027885437,0.6242856383323669
4.225788574218747,-0.8962190641447901,2.928117398199439,5.486577892664075,-0.5664202570915222,-1.363469481468201,0.6510835289955139
4.235755615234371,-1.07349512787126,2.9141607690393925,6.115211895799637,-0.3985585570335388,-1.3562742471694946,0.6981463432312012
4.245721435546873,-1.1200886098071932,2.932401359128952,6.488577006402611,-0.2898785173892975,-1.305289387702942,0.736342191696167
4.255687744140623,-1.1670393807481974,3.0001071141332387,6.6995479075253,-0.2160437107086181,-1.2539066076278689,0.7434994578361511
4.265654785156247,-1.2580185323774813,3.1116017419815063,6.701368693211674,-0.1745938211679458,-1.2366950511932373,0.7111697793006897
4.275620605468749,-1.3528747446358202,3.171140557143092,6.733105309212207,-0.1658535897731781,-1.217515468597412,0.6267518401145935
4.285587890624999,-1.5654516196504231,3.325409912356734,6.726039608609676,-0.161016896367073,-1.2150864601135254,0.4962878823280334
4.295553710937497,-1.8624305329263209,3.561614623457193,6.601399083462357,-0.1549491435289383,-1.2302411794662476,0.3233382105827331
4.305519531249999,-2.105307707528025,3.59476169077754,6.49760728507638,-0.156958982348442,-1.214810132980347,0.1187763065099716
4.315486572265623,-2.246067738957703,3.547709432223439,6.518494590282439,-0.1805705726146698,-1.110558271408081,-0.1053899526596069
4.325452880859373,-2.3002741070501505,3.5711242100805043,6.469132301220298,-0.2157719135284423,-0.9428306818008424,-0.3109362423419952
4.3354187011718714,-2.152752764791995,3.4846827749460934,6.262886090531945,-0.2454491108655929,-0.7572882175445557,-0.5044868588447571
4.345385253906247,-1.911051355971396,3.351559083613753,5.932069497323036,-0.2576339542865753,-0.5793317556381226,-0.6873081922531128
4.355351074218749,-1.6413791134245692,3.268260038158297,5.54328177666068,-0.2126155942678451,-0.4663248062133789,-0.8807793855667114
4.365318115234373,-1.345854490610212,2.9301456891566517,5.21862195251584,-0.1044637933373451,-0.3897789418697357,-1.0999106168746948
4.375283935546872,-1.1298853428088127,2.459838792192936,5.110887553983926,0.0386124067008495,-0.4055475294589996,-1.3533064126968384
4.385249999999999,-1.188628477548063,1.8216764977335929,4.824483518475294,0.1762464642524719,-0.5904899835586548,-1.652249813079834
4.395217285156249,-1.3603618855208155,0.623286796888709,4.558995429745316,0.2278212457895279,-0.9345192909240724,-1.9681944847106931
4.405183105468748,-1.491483735511452,-0.5962631808847189,4.402925747111439,0.0927124917507171,-1.3046598434448242,-2.284008502960205
4.415150146484372,-1.9172296062149103,-1.5225035815447567,4.323324387130141,-0.245125725865364,-1.515400528907776,-2.5182695388793945
4.425116210937496,-2.6536393628060817,-2.258740465787053,3.873576878592372,-0.7834697961807251,-1.507142424583435,-2.612870931625366
4.435082031249998,-3.1436469855397937,-2.677505976083874,2.8046768964916464,-1.330469012260437,-1.185558557510376,-2.6311497688293457
4.445049072265622,-2.838765920837224,-3.32789880656302,1.2387801634222269,-1.751348614692688,-0.6527081727981567,-2.587103843688965
4.455015136718746,-2.5497309523031118,-3.974786259269714,-1.5171575443416834,-1.9752342700958248,-0.3475953936576843,-2.480156183242798
4.464980957031248,-3.112800011855364,-3.179848179733753,-4.566618179708719,-2.150079727172852,-0.3908784687519073,-2.4130077362060547
4.474948242187498,-3.836931740023196,-1.7040210091680288,-6.867118058338761,-2.373119354248047,-0.5093992352485657,-2.485621690750122
4.484914306640622,-3.6515760494112968,-1.0504968949258326,-8.320421262407303,-2.5515077114105225,-0.470663458108902,-2.6370699405670166
4.494881103515624,-2.162746481670439,-1.1435589172437786,-9.645807111614944,-2.5744149684906006,-0.2533220648765564,-2.598050832748413
4.504847167968748,0.2535191993210464,-1.650176313994825,-10.532401730585098,-2.3776116371154785,0.0712959095835685,-2.1390490531921387
4.514813232421872,2.886754875719547,-2.434453591045737,-11.481591629678013,-1.987288475036621,0.2709932923316955,-1.3206894397735596
4.524780029296874,4.588449487766623,-2.8791724577665327,-12.246353182137012,-1.5090091228485107,0.2509994208812713,-0.4536158144474029
4.534746093749998,4.947203304693103,-2.718298589721322,-12.707671886003016,-1.0210657119750977,0.0167528223246336,0.1747847497463226
4.544713378906248,4.4095419503808015,-2.37836696216464,-12.762463798898455,-0.5422712564468384,-0.3233343958854675,0.537976086139679
4.5546791992187465,3.485725269736349,-2.247501571153104,-12.141882753837107,-0.1050960645079612,-0.6082596182823181,0.7198539972305298
4.564645263671874,2.463409636417031,-2.149388402925432,-10.9574707249403,0.2501987218856811,-0.8089791536331177,0.7519898414611816
4.5746120605468725,1.6855001408323644,-2.141519276985526,-9.717524440348148,0.5132899880409241,-0.9160906672477722,0.6979870200157166
4.584578124999997,1.2912524011984468,-2.244451243671775,-8.180724622425437,0.6743466258049011,-0.956468105316162,0.6161462068557739
4.594544189453124,1.0863332743953913,-2.438789866684377,-6.295799349096417,0.7076979279518127,-0.8639588952064514,0.5241912603378296
4.6045112304687486,1.198069309784099,-2.4125106393069027,-4.053371135684848,0.5734174847602844,-0.6296512484550476,0.4389449954032898
4.614477050781247,1.5579156711876392,-2.149187911917269,-2.051716840985417,0.3183961510658264,-0.2627454102039337,0.4333741962909698
4.624444335937497,2.11068282469511,-1.682352782717347,-0.5719406405329704,0.0263462159782648,0.1171246394515037,0.5152891874313354
4.634410156249999,2.7034187082365158,-1.1714464566007257,0.3051046443253755,-0.1966522485017776,0.4148761630058288,0.6838747262954712
4.644376220703123,3.101564916613698,-0.5947448852762579,0.8335077564269304,-0.2918838858604431,0.5818682312965393,0.8838781118392944
4.654343017578121,2.8284651838362214,0.1018462172761559,1.3380910170018672,-0.2478237599134445,0.6744282841682434,1.041346549987793
4.664309326171871,1.8636624128088355,0.9859721080452204,1.844001142266393,-0.0477228946983814,0.7171711325645447,1.027084469795227
4.674276123046873,1.0889522977873682,1.5665253863617776,2.339340189155936,0.2408364564180374,0.6924013495445251,0.8938590884208679
4.684242187499997,0.5928309414137154,1.9330340551987288,2.840971029666066,0.5706937313079834,0.5619111061096191,0.6997308731079102
4.694208007812499,0.3766843181535601,1.957647102929652,3.5257355008244518,0.8880631327629089,0.393391877412796,0.4943909645080566
4.704175292968749,0.6031943683873862,1.861859455040097,4.371271548697353,1.1297959089279177,0.2755264341831207,0.3370275795459747
4.714141113281247,0.8596909030187875,1.7820605266600846,5.471491382691264,1.275495529174805,0.2388166040182113,0.2514064013957977
4.7241081542968715,1.1250117454230786,1.847228287619352,6.302513752043247,1.296616792678833,0.2532273530960083,0.2353214174509048
4.734074218749999,1.322192021602392,1.9858610977619888,7.084775889879465,1.2157025337219238,0.3513171672821045,0.2811208665370941
4.744040283203123,1.4145759985283015,2.1402572942256928,7.559165672242641,1.0682810544967651,0.4787574410438537,0.3893590271472931
4.754007080078122,1.2474338638685645,2.416719489173591,7.750490208131074,0.9074026942253112,0.6170825362205505,0.4807760119438171
4.763973144531249,0.9564888969946652,2.758925783663988,7.764326425781846,0.7304947376251221,0.7491941452026367,0.5218285918235779
4.7739399414062476,0.6081241529397666,3.035138095504045,7.616281644171476,0.5709056258201599,0.8901216983795166,0.5248989462852478
4.783906005859372,0.2906068209607154,3.188205089190602,7.316229607060551,0.4429843723773956,0.9958738088607788,0.4939655661582947
4.793872314453122,0.1226731705971062,3.219968008676171,6.693889735633134,0.3593297004699707,1.077000379562378,0.4435828030109405
4.803839111328124,0.0573174858503043,3.157556852948665,6.111950848177076,0.3440467119216919,1.1538355350494385,0.3954783380031585
4.813805175781248,0.1446386994939297,2.973875525289774,5.333911880993843,0.3826457560062408,1.1418523788452148,0.3545647263526916
4.823772216796872,0.2793866675598547,2.766651409479976,4.381734490522742,0.4419728219509125,1.0705409049987793,0.3181183636188507
4.833738037109374,0.4808915289400145,2.472603581219912,3.661749652901292,0.5152912139892578,1.0041459798812866,0.3100031614303589
4.843704101562498,0.6837276754565537,1.8906606021106245,3.040970454919338,0.5746207237243652,0.9654169082641602,0.324568897485733
4.853671142578122,0.8649468507856131,1.324939274483919,2.2839818745493887,0.6032861471176147,0.9153246879577636,0.3641120493412018
4.863636962890624,0.947986733848229,0.6577011076658964,1.306738431882858,0.5724124908447266,0.8519517183303833,0.4311509132385254
4.873603027343748,0.7621008818823843,0.1840986762881279,0.399711850258708,0.4752728641033172,0.8657642006874084,0.4679315686225891
4.883570312499998,0.2704191153913736,0.1080126309514045,-0.3814841196507215,0.3337807357311249,0.9610263109207152,0.4759569466114044
4.893536132812496,-0.3027982305465266,-0.0409440048068761,-1.335051503175497,0.2025023400783538,1.141183614730835,0.4350060522556305
4.903503173828124,-0.1930505011645145,-0.6544844837069511,-2.324675119465589,0.1193625181913375,1.3445398807525637,0.3974924385547638
4.913468994140622,0.5805496250547468,-1.7693471755594017,-3.6899405591189858,0.0842458084225654,1.4008634090423584,0.4065021574497223
4.923435058593746,1.0938760909903793,-2.1159119575202463,-4.937148359146714,0.0361151546239852,1.2266215085983276,0.3986238539218902
4.933402099609374,0.5404142332170159,-1.352510002976656,-5.829630282589793,-0.0974109470844268,0.9483212232589722,0.3676691353321075
4.943368164062498,-0.2734719270907342,-0.5828875664830208,-6.120325877812505,-0.2684973776340484,0.8108059167861938,0.2307714074850082
4.9533354492187485,-0.5909088873099535,-0.5497369920313357,-6.464283107623458,-0.4144032001495361,0.8249954581260681,0.0373012833297252
4.963301269531247,-0.4465985429875552,-0.7861813571065663,-6.774903885021805,-0.5188672542572021,1.0082741975784302,-0.0319640561938285
4.973267089843748,0.4468810497233644,-1.5126087949961422,-6.836543471854925,-0.5766192078590393,1.3020422458648682,0.1043543666601181
4.983234130859369,1.7615683582514523,-2.575837745723128,-6.8442427941858766,-0.6158419251441956,1.508712649345398,0.3752583265304565
4.993200195312497,2.7104960992768405,-3.2173265542566774,-6.824260913386941,-0.7405178546905518,1.4890769720077517,0.6531378626823425
