time,ax,ay,az,gx,gy,gz
0.0,2.612989372509718,5.217257093903422,7.243899114865064,2.051108360290528,-1.2417179346084597,-0.5308369994163513
0.009965820312499929,3.0289974007919427,4.889184246444702,7.337918876299262,1.8608357906341555,-1.1108328104019165,-0.5382861495018005
0.019932128906249957,3.345247416248917,4.55305727186799,7.30222563162744,1.6403231620788574,-1.0638426542282104,-0.5362006425857544
0.029897949218749886,3.5992695235908028,4.3577503883451225,7.079228777146339,1.3805232048034668,-1.062886357307434,-0.5108683705329895
0.039863769531249815,3.490250345945358,4.167456949070096,6.891131971132755,1.0761401653289795,-0.9969886541366576,-0.4868348836898803
0.04982983398437746,3.1308307585865256,4.138175909528136,6.752696729388832,0.7747094631195068,-0.8439508676528931,-0.4986800849437713
0.05979589843749977,2.636694657745957,4.045478921130299,6.367214480012655,0.515238881111145,-0.6020017862319946,-0.5361917018890381
0.06976196289062386,2.0261520454876125,3.867916953134536,5.895305993071198,0.3453814089298248,-0.2609933614730835,-0.5769053101539612
0.07972778320312379,1.5820494109690189,3.5835932310312986,5.478963326007127,0.2657155394554138,0.0908453911542892,-0.6099627614021301
0.08969384765625144,1.3409697873085735,3.108548784151673,4.757430089899898,0.2566397488117218,0.3172577321529388,-0.6651365160942078
0.09966015625000146,1.4227284714542328,2.6099060195416213,3.656004971769452,0.2876209616661072,0.3616534471511841,-0.7427315711975098
0.10962597656250139,1.7322019785135985,1.8504209461808203,2.3832301842868326,0.3440256714820862,0.2903686165809631,-0.8158808946609497
0.1195920410156237,2.1702945589624343,0.8527256671160459,1.1840315051466226,0.4342389702796936,0.1804898530244827,-0.8691598773002625
0.1295578613281254,2.620484112179279,-0.3513058390080928,0.1323474462628364,0.5255699753761292,0.0705588087439537,-0.8644258379936218
0.13952416992187722,2.824182684211433,-1.6210194853544235,-0.8257435521662235,0.5046703815460205,-0.0677674710750579,-0.8079695701599121
0.14948999023437715,2.695545490643382,-2.440015316826105,-1.7871055350899696,0.3540858924388885,-0.1772755831480026,-0.7563220858573914
0.15945605468750124,2.3261706187203526,-2.9722733507901427,-2.6384973232537505,0.1279600113630294,-0.1521151810884475,-0.7463636994361877
0.16942187500000117,2.015177939269692,-3.8349294602900734,-3.4612434471696614,-0.1170414760708808,0.019666165113449,-0.6947668194770813
0.17938793945312526,1.5572420097097754,-5.087131999865174,-4.750955340927839,-0.3359386324882507,0.3499578833580017,-0.6627992987632751
0.18935498046875132,0.835682031726092,-5.630134130683541,-6.300533976402878,-0.4521762728691101,0.8352031707763672,-0.6490371823310852
0.1993210449218772,0.1955728409826755,-5.916906414982676,-7.733615061175823,-0.4087724089622497,1.3555550575256348,-0.610813319683075
0.20928686523437712,0.1471811505183577,-6.682604956030845,-9.089969464620948,-0.2475361078977584,1.7078819274902344,-0.5421745777130127
0.21925268554687705,0.8409626024775206,-7.7384928963452575,-10.358015470016,-0.0826997011899948,1.8103055953979488,-0.46944659948349
0.2292189941406253,1.7786325980380175,-8.264412959459424,-11.084945596730709,0.0474836006760597,1.7447715997695925,-0.3151100277900696
0.23918481445312523,2.991482785911858,-8.918727931818365,-10.967889243102071,0.1009670943021774,1.5610023736953735,0.0121114607900381
0.2491508789062511,3.982577643798292,-9.620586161118744,-10.396268920564651,0.0038605188019573,1.2118345499038696,0.4518983960151672
0.259116699218751,4.4443268480360505,-9.86252327839136,-9.664982936728,-0.3054591715335846,0.6925743818283081,0.899935245513916
0.2690832519531252,4.267369860196113,-9.544492516997456,-8.865029659378528,-0.7544788122177124,0.1646823137998581,1.3092950582504272
0.27904907226562514,3.580421907518804,-9.047678136858345,-7.697590977114438,-1.2053601741790771,-0.1060607731342315,1.6852099895477295
0.28901489257812507,2.5778622372880577,-8.190812301197647,-6.111671446713805,-1.615722417831421,-0.1059702262282371,2.0279829502105717
0.29898095703125094,1.3492721900992095,-6.641431234121322,-4.783160158962011,-1.9504998922348025,0.0914458706974983,2.288416862487793
0.30894702148437503,0.4342746295958757,-4.787426584234834,-3.5908594226419925,-2.1616106033325195,0.353006899356842,2.485182762145996
0.3189130859375009,-0.1973375125676393,-2.9889024140298366,-2.6159458842277523,-2.2043142318725586,0.4715924263000488,2.612399101257324
0.3288789062500008,-0.8132749696068465,-1.1661410436689852,-2.0790964308202264,-2.0502514839172363,0.3711023032665252,2.6232340335845947
0.3388449707031249,-1.2662852793328463,0.6819850695729255,-1.5732681386202574,-1.7340309619903564,0.1166485249996185,2.536994695663452
0.3488110351562508,-1.47936908095628,2.3237983366310595,-0.8534972360104321,-1.265946865081787,-0.3193245232105255,2.4152657985687256
0.3587768554687507,-1.273987670403719,3.391114264410734,-0.2852069346785545,-0.6676281690597534,-0.9177678227424622,2.278414726257324
0.3687429199218748,-0.6705261024475098,3.85532167545557,0.2087999868243932,-0.0018208902329206,-1.61909282207489,2.17194938659668
0.37870874023437473,-0.221779003123939,4.138004060092568,0.9400924004018306,0.5844947099685669,-2.2200193405151367,2.114281177520752
0.38867504882812476,-0.1033683122768998,4.377359928700328,2.065637229788303,0.9938923120498656,-2.503992319107056,2.0920393466949463
0.39864086914062646,-0.1605927130162716,4.619996718674898,3.623643501868844,1.2006769180297852,-2.374790668487549,2.0835154056549072
0.40860693359375055,-0.4507493790566921,4.8209512526959175,5.201340562847256,1.2402623891830444,-1.9361331462860107,2.0865657329559326
0.4185727539062505,-0.7000313061341643,4.756445170515775,6.239050456914305,1.1200464963912964,-1.2699239253997805,2.069662570953369
0.42853881835937635,-0.7175657937809824,4.650702238062024,6.953042776122689,0.902002215385437,-0.4836576282978058,1.9980666637420652
0.43850488281250044,-0.6754366708427667,4.700044068858027,7.184736147278547,0.6833528876304626,0.2689122259616852,1.8370959758758545
0.44847070312500037,-0.3390983916029333,4.647863799765706,6.698949941632152,0.5650033354759216,0.921941101551056,1.5874512195587158
0.45843676757812624,0.3348240752846002,4.395155113109946,5.99153816985786,0.544855535030365,1.3790597915649414,1.297987937927246
0.46840307617187626,1.2067600543051955,4.3025411268204445,5.097613061869144,0.6151297092437744,1.5787804126739502,1.0335466861724854
0.47836914062500036,2.0285025541365145,4.207461042678356,4.198241378912329,0.7895147800445557,1.5651826858520508,0.805213212966919
0.4883359375000005,2.8100267330870032,3.972455185973644,3.514987312316894,1.0346840620040894,1.4354902505874634,0.5921576619148254
0.49830200195312635,3.3628920862719416,3.94883290284574,3.2061236077189443,1.2795374393463137,1.247167468070984,0.4430674016475677
0.5082678222656263,3.584166354744136,4.043707819804549,3.1988276054918763,1.462093710899353,1.0664005279541016,0.3529476225376129
0.5182341308593763,3.572113805639744,4.220448534545302,3.411746718072891,1.567528486251831,0.9664405584335328,0.3181288242340088
0.5281999511718762,3.448423128563165,4.20920642504096,3.8336347443044185,1.572613000869751,1.013221025466919,0.3079486191272735
0.5381657714843762,3.139392835226655,4.096649720919132,4.368176505291462,1.4846067428588867,1.1802209615707395,0.3014293611049652
0.5481318359375003,2.8356249924629924,4.068018669718504,4.766574934864044,1.3158339262008667,1.401728630065918,0.3037343323230743
0.5580979003906261,2.4234175255075097,4.123817713829875,4.901386725413799,1.1074095964431765,1.6777440309524536,0.277471125125885
0.5680639648437502,1.9035761977851389,4.239976241835952,5.047138427650928,0.913707196712494,1.9668540954589844,0.2061119973659515
0.5780297851562501,1.6302514240801331,4.234723143613338,4.7221080166280265,0.8006554245948792,2.1877572536468506,0.1190275102853775
0.587995849609376,1.5543535947918892,3.984246161532402,3.9023207425177096,0.8031592965126038,2.316021203994751,-0.0174072980880737
0.5979619140625001,1.759245176000893,3.620114158698916,2.879637737190724,0.9201236367225648,2.289597988128662,-0.1221184134483337
0.607927734375,2.1777873989358545,2.7498680324614044,1.6275597007781266,1.050975680351257,2.14332914352417,-0.1398627907037735
0.6178937988281241,2.6334914777904745,1.7365841391205787,0.57638008428514,1.113034963607788,1.9499647617340088,-0.0969511419534683
0.627859619140624,2.835111782243848,0.6786673233270645,-0.5123854587584734,1.1071584224700928,1.829357624053955,-0.0567499250173568
0.637826171875,2.456936348749697,-0.0650906040698289,-1.7156681923419237,1.0725691318511963,1.7067197561264038,0.0002061752602458
0.6477919921874999,1.7456003892689942,-0.7154717441111803,-3.314665230980516,1.007979154586792,1.6575000286102295,0.1223802864551544
0.657758056640624,0.8167498061105608,-1.6937299167782067,-4.821012627494335,0.9539743661880492,1.7577533721923828,0.2600376904010772
0.667723876953124,0.4229696839883923,-3.242596604591608,-6.153899646112323,0.932693600654602,1.908612966537476,0.293161004781723
0.6776901855468758,0.1447355109319091,-4.0077521248042585,-7.641552863550186,0.9279428720474244,1.9706828594207764,0.2822863459587097
0.6876560058593757,-0.2300195927247404,-4.308967360475659,-9.13905235221982,0.994596004486084,1.8903988599777224,0.2520959377288818
0.6976218261718774,-0.1328800918348133,-4.734788049980998,-10.636459486430883,1.1602221727371216,1.579264998435974,0.2114207595586776
0.7075878906249997,0.438837699727714,-5.288176550257206,-12.42608664895296,1.445160150527954,1.0242393016815186,0.1650620549917221
0.7175539550781238,1.4315367779403925,-6.080562607222795,-13.984737648677823,1.8007031679153442,0.3737946450710296,0.2448507845401764
0.7275200195312514,2.386519142829626,-7.405013221406937,-14.641889890289306,2.1153037548065186,-0.1373802274465561,0.5232012271881104
0.7374858398437514,2.823110378804803,-8.579753751116991,-14.075118761348724,2.2931745052337646,-0.4013412296772003,0.954262375831604
0.7474519042968772,2.601920281484723,-9.19526173069775,-12.60260992155075,2.2157649993896484,-0.4696691632270813,1.5049185752868652
0.7574179687500013,1.4847501894727348,-9.121281133207678,-10.734405481398104,1.7926591634750366,-0.4526553153991699,2.120353937149048
0.7673837890625013,-0.2117706731982529,-8.690435893538593,-8.766400942844152,1.1270697116851809,-0.320359319448471,2.6660149097442627
0.7773498535156254,-2.323755374272168,-7.865926267081498,-6.971598423510789,0.4050840139389038,0.0084892343729734,3.0129106044769287
0.7873159179687512,-4.807328677795828,-6.589483020219206,-5.230094948166609,-0.1994633972644806,0.5889068245887756,3.115076065063477
0.797281250000001,-6.726807085850835,-5.160964128795266,-3.6232407662868495,-0.6509209275245667,1.2661336660385132,3.077099323272705
0.8072482910156253,-7.552655267435312,-3.709871001991629,-2.398598433810472,-0.9976298809051514,1.9308600425720213,2.9766013622283936
0.8172145996093771,-7.036970182609558,-2.167391969388724,-1.370671098089218,-1.258409023284912,2.527129888534546,2.872818946838379
0.8271804199218771,-5.969855330359936,-0.3962397902339696,-0.4365542649656534,-1.3848116397857666,3.098784685134888,2.8301029205322266
0.8371464843750012,-4.820262101387978,1.2200596808612345,0.6387947471439838,-1.3499318361282349,3.586079359054565,2.865516662597656
0.8471125488281253,-3.412097138945758,2.3551012373894453,1.2615654112040997,-1.1338692903518677,3.805441617965698,2.930992126464844
0.8570783691406252,-2.2584692476302384,3.2846956246525045,1.386654264640808,-0.7189902067184448,3.694348096847534,2.9522957801818848
0.867044433593751,-1.6631790034309029,4.204395809888839,1.587448639664054,-0.1851162165403366,3.283212661743164,2.906503677368164
0.8770104980468769,-1.5540435059294104,4.955651984086632,2.055297622081637,0.3520732820034027,2.748361825942993,2.75337028503418
0.886976562500001,-1.738946776598692,5.613003547662497,2.96662862290144,0.8196149468421936,2.1925647258758545,2.527008533477783
0.8969423828125009,-1.830256986813247,6.057534782856703,3.962217869597673,1.2070502042770386,1.7484701871871948,2.254662036895752
0.9069082031250009,-1.8167217979356645,6.261293852904439,5.231317767959833,1.4608714580535889,1.4513977766036987,1.9648562669754028
0.9168745117187509,-1.3581827879160642,6.1285880947232245,6.330867739868164,1.5995784997940063,1.2949522733688354,1.6916676759719849
0.9268403320312508,-0.557409426355362,5.672400908526778,7.25147802568674,1.6674721240997314,1.2455778121948242,1.4474273920059204
0.9368063964843749,0.2717234759882092,5.260073322322964,8.04269036269784,1.6742948293685913,1.210792064666748,1.2202386856079102
0.9467722167968748,1.0060536498263477,5.143636561897397,8.557885618180036,1.6030923128128052,1.0986037254333496,1.0030570030212402
0.9567385253906249,1.7558979113996027,5.216641592353582,8.687287074118853,1.474318265914917,0.921308934688568,0.8191964030265808
0.9667043457031248,2.56175369079113,5.219800933167338,8.640056536388396,1.3236331939697266,0.7538546919822693,0.6987312436103821
0.9766701660156247,3.357370692501962,5.098028656932711,8.460818159613012,1.1646089553833008,0.6112638711929321,0.6666314005851746
0.9866362304687506,4.009349915389716,4.940429280513524,7.915709411904215,1.04460346698761,0.5514580607414246,0.7536680698394775
0.9966022949218765,4.618255135704577,4.8459676205307245,7.488253814673423,0.9371576309204102,0.5862509608268738,0.9453294277191162
1.0065683593750006,4.976732766038179,4.9640281827658415,6.938178384467959,0.849591851234436,0.8074203729629517,1.2310932874679563
1.0165341796875005,4.853086220364272,5.063017549306154,6.678692751023173,0.7401707768440247,1.2718559503555298,1.5674574375152588
1.0265004882812505,4.38573758868426,5.256819288963079,6.705659668403864,0.5793113112449646,1.8587088584899905,1.904640316963196
1.0364665527343764,3.850724410793185,5.5404298943609,6.406708286011218,0.3994932472705841,2.4654765129089355,2.170668125152588
1.0464323730468763,3.3789407192751764,5.680923822200298,6.054393562221526,0.2153686732053756,3.040356397628784,2.3383963108062744
1.0563984375000004,2.9495272659748792,5.822732924291492,5.746534066230058,0.014630913734436,3.514232873916626,2.405627012252808
1.0663645019531263,2.3967127661943435,5.869333931946754,5.552172354602813,-0.1466543823480606,3.8654515743255615,2.409233808517456
1.0763305664062504,1.6388596779495477,5.613998988440632,5.307007507455348,-0.1765057891607284,4.070059299468994,2.2917048931121826
1.0862963867187503,1.1613996943607925,5.291873066687583,4.693416175150871,-0.0311925392597913,4.056307792663574,1.997888207435608
1.0962624511718762,1.1363982318341732,5.0484600316435095,3.352922773182392,0.3155784606933594,3.701536893844605,1.5928006172180176
1.1062285156250002,1.344792268206179,4.517504312449693,1.2945868063181638,0.8110869526863098,3.100602865219116,1.2292780876159668
1.116194580078126,1.7103627794101832,3.5884167056649923,-0.2119277634561061,1.3074074983596802,2.4914517402648926,1.040870189666748
1.1261604003906243,2.193520390118658,2.2972423381388185,-0.8302963931649923,1.589618682861328,1.926694750785828,1.0397356748580933
1.1361262207031242,2.3370960634909568,0.9304688320100308,-1.3248884210795164,1.5532516241073608,1.403688669204712,1.0944982767105105
1.146092529296876,2.11894138834402,-0.3771007899999618,-1.980103557148576,1.1471598148345947,0.977035403251648,1.1064976453781128
1.1560593261718761,1.5934164620272817,-1.7704940075069664,-3.0048540163993835,0.5013001561164856,0.7205587029457092,1.0786210298538208
1.1660253906250002,1.3635118739843368,-3.779723705896735,-4.768240237727761,-0.1235940307378768,0.7951839566230774,1.0520451068878174
1.1759912109375001,1.2200097042396665,-5.730448023825884,-6.459287199032306,-0.582848846912384,1.0985382795333862,1.0265790224075315
1.1859572753906242,0.0884556975662708,-6.013278877022862,-8.326162436407804,-0.7823758125305176,1.5357999801635742,0.9611489772796632
1.195923583984376,-1.3235662325650452,-5.200558472558856,-9.854496623802184,-0.7281360626220703,2.1121299266815186,0.9665573835372924
1.2058896484375001,-1.160128651511669,-5.832244849002361,-10.976523800456524,-0.5298160314559937,2.6186320781707764,1.0593408346176147
1.21585546875,-0.2591223530903458,-6.372266502705216,-11.962615735489129,-0.3772704601287842,2.878673791885376,1.1974045038223269
1.2258212890625,0.7257486618451774,-6.717700234809517,-12.594321401154994,-0.3657006323337555,2.96093225479126,1.437974214553833
1.23578759765625,1.3736553745970128,-7.312217448809743,-12.26006138949394,-0.5690092444419861,2.8882200717926025,1.7334460020065308
1.24575341796875,1.456828747846186,-7.421934545591474,-11.810904248064755,-0.988328456878662,2.639756679534912,1.9819573163986208
1.2557194824218758,1.2551878389962017,-7.303607441374659,-11.513582512700555,-1.558713674545288,2.2667415142059326,2.1081013679504395
1.2656853027343757,0.7519318815022706,-6.783705031114816,-11.070306830525398,-2.190659761428833,1.8392612934112549,2.107620477676392
1.275651611328124,-0.1375632812149822,-5.480169194665551,-10.69430143454671,-2.734127998352051,1.4918829202651978,2.056967735290528
1.285617431640624,-0.9629417994610964,-3.8152357487827535,-10.432376006734373,-3.017967700958252,1.4604612588882446,2.111901998519897
1.2955834960937498,-1.704922195791453,-2.452665539562702,-9.624259296673536,-3.094116687774658,1.7219698429107666,2.2794151306152344
1.3055493164062497,-2.2692982462890443,-1.053278926859796,-8.470066464951634,-3.081681489944458,2.1520533561706543,2.4739019870758057
1.3155153808593774,-2.5049431315496564,0.4771703529924154,-7.0717924896657465,-2.9977505207061768,2.564439535140991,2.647713661193848
1.3254814453125014,-2.5943121445685624,1.883313161957264,-5.638689193060994,-2.823155164718628,2.8749706745147705,2.788251638412476
1.3354472656250014,-2.494408293531835,2.789355116458237,-4.178977290993928,-2.5699853897094727,2.9881680011749268,2.8642258644104004
1.3454133300781255,-2.3028075710505247,3.471445107710361,-2.9785195517033336,-2.2032008171081543,2.821932077407837,2.8595259189605717
1.3553793945312513,-2.128641382972896,3.965289239867032,-2.0057167218327523,-1.7414419651031494,2.4391345977783203,2.7850027084350586
1.3653454589843772,-2.023772310744226,4.230530660359562,-0.9153156865417956,-1.2245721817016602,1.9193774461746216,2.6902456283569336
1.3753112792968771,-2.0631319689691066,4.348873546667397,0.2242418861061334,-0.7109527587890625,1.3233890533447266,2.601707696914673
1.385277099609377,-2.1249679551571607,4.4407095343217255,1.3399632406145334,-0.2395008355379104,0.74899822473526,2.4996585845947266
1.3952436523437513,-2.3817263555951413,4.652743388500809,2.7067741561442613,0.145560160279274,0.3023484647274017,2.3980629444122314
1.4052094726562512,-2.7418127362996336,4.801781565062702,4.0711037762522695,0.4348321855068207,0.0949462503194809,2.328662633895874
1.415175537109377,-2.9060844300895927,4.886138302877545,5.524698656743764,0.6171491742134094,0.1347465813159942,2.27341890335083
1.425141357421877,-2.677452784591913,4.712168221893906,6.63326663236618,0.7168081402778625,0.3810903131961822,2.221608161926269
1.4351076660156252,-2.3232345652684567,4.296080114112794,7.302074824979901,0.8034151792526245,0.7056951522827148,2.192832946777344
1.4450734863281252,-2.0495921039164067,3.819058814202249,7.691910593390464,0.9130860567092896,1.0353901386260986,2.145871877670288
1.455039306640625,-1.7495035341873764,3.526713405945897,7.903445558136701,1.0173474550247192,1.1990586519241333,2.041877508163452
1.465005371093751,-1.2800602683156728,3.2586198108926414,7.7400962398886675,1.11705482006073,1.1644822359085083,1.9059429168701167
1.474971435546875,-0.9324214273825288,2.977447830818593,7.54771605746746,1.219307541847229,1.0190619230270386,1.754909634590149
1.484937500000001,-0.6624593350436538,2.710761472214758,7.5279112868011,1.316069483757019,0.8096053600311279,1.611608624458313
1.4949033203125008,-0.4040585011608898,2.4916654245644807,7.536164735883474,1.3828849792480469,0.5468182563781738,1.4810059070587158
1.504869384765625,-0.2466508479215204,2.366145193973184,7.431509598666429,1.4100608825683594,0.2953775227069855,1.3575857877731323
1.5148354492187508,-0.189732955848053,2.3850351878821847,7.344052849009633,1.4215717315673828,0.1313328593969345,1.2441145181655884
1.5248015136718749,-0.2017974145859479,2.416156886854768,7.205544542029499,1.4173028469085691,0.0989536121487617,1.1639046669006348
1.5347673339843748,-0.3021699791129678,2.428675007644296,7.05485129173696,1.3949068784713743,0.2059749662876129,1.127609133720398
1.5447331542968747,-0.4031516885142773,2.486696988502145,6.760556795239448,1.3665721416473389,0.4372241497039795,1.0970370769500732
1.5546994628906248,-0.5196930052928627,2.620010357187688,6.359301807191968,1.3605436086654663,0.7478196024894714,1.0895596742630005
1.5646665039062508,-0.5318445577923209,2.570130766253173,5.795667222711444,1.3672229051589966,1.0467565059661863,1.1040738821029663
1.574632568359375,-0.40658297813721,2.4643679600551724,4.99144693556726,1.402219295501709,1.316959023475647,1.1350868940353394
1.5845983886718749,-0.159071787059307,2.2653885254994037,4.132633472970128,1.4761393070220947,1.4768611192703247,1.1665399074554443
1.5945644531250007,0.1812269202440977,1.8454694612532851,2.962502482882142,1.5672653913497925,1.453346848487854,1.2033326625823977
1.6045305175781248,0.4430418003540486,1.213471534642577,1.6493360637784005,1.610121488571167,1.2768537998199463,1.1856495141983032
1.6144965820312507,0.644029798253253,0.5025830266684294,0.3220440886884927,1.585801601409912,0.9829128384590148,1.1097348928451538
1.6244624023437506,0.7967974436670542,-0.2584574594408274,-0.8573083187311887,1.45178484916687,0.6731448769569397,0.9273842573165894
1.6344282226562505,0.6724093589108436,-0.5881102695673703,-1.9827298139989376,1.2640016078948977,0.3750214576721191,0.6707227826118469
1.6443945312500006,0.3253609581515193,-0.6700970633804798,-3.256214211055636,1.0599421262741089,0.1569423675537109,0.4315642714500427
1.6543603515625005,0.1453949246887117,-0.9353203636944294,-4.769560672676563,0.9301477670669556,0.1844549924135208,0.2951017022132873
1.6643264160156264,0.2114765856225043,-1.7521213154703377,-6.121149469155073,0.9350376129150392,0.5979219675064087,0.2500282526016235
1.6742922363281263,0.4954015176665037,-2.708238967999816,-7.173425064191222,1.0683915615081787,1.2756986618041992,0.3374336659908294
1.6842585449218763,0.7419527776710688,-3.50220206502378,-8.270157056069374,1.2023307085037231,1.941508412361145,0.5222507119178772
1.6942243652343763,1.3757275046959518,-4.084564730849862,-9.456410913440584,1.252300500869751,2.506275177001953,0.7497110366821289
1.7041904296875003,2.48411281722784,-4.921001526466012,-10.020841032212973,1.1772081851959229,2.942657709121704,0.967726707458496
1.7141562500000003,3.627453123284876,-5.778036873474717,-10.201807840216158,1.0105444192886353,3.289249897003174,1.2017391920089722
1.7241223144531261,4.9177124217927455,-6.78095544014573,-10.12133320453167,0.807876467704773,3.39652419090271,1.4843045473098757
1.7340883789062502,5.910547401344775,-7.6815312381953,-10.231957479286192,0.5211657285690308,3.120731830596924,1.7473095655441284
1.7440541992187502,6.125753163558245,-7.950974786552786,-10.319231273591518,0.1143577173352241,2.579412937164306,1.950035810470581
1.754020263671876,5.666555105108023,-7.430973007571697,-9.889586641883849,-0.4195449948310852,1.9331525564193728,2.0432779788970947
1.7639863281250001,5.01181167820394,-6.380012586787343,-9.447083697646857,-1.0093603134155271,1.352567195892334,2.11558198928833
1.7739526367187501,3.8527620541006327,-5.120059286954999,-8.874945488715172,-1.477916240692139,1.0055105686187744,2.2740814685821533
1.78391845703125,2.382626080913841,-3.8728818820655344,-8.034710469859839,-1.7199232578277588,0.8880704641342163,2.4705824851989746
1.79388427734375,1.3038544008791446,-2.433085225301981,-7.155919802638888,-1.83150327205658,1.0253212451934814,2.6939697265625
1.8038544921875008,0.4604704164735972,-0.8589858965545892,-5.866375666663051,-1.8696805238723757,1.3616236448287964,2.94545578956604
1.8138208007812509,-0.2098925678340718,0.4582715912550688,-4.261293170630932,-1.888363003730774,1.6949766874313354,3.149371385574341
1.823786865234375,-0.9078262075692416,1.7937024491369724,-2.7123551711469887,-1.907425880432129,1.92044198513031,3.2689080238342285
1.8337526855468749,-1.541337315221876,3.111577192062139,-1.2909183469384908,-1.887591004371643,1.9061977863311768,3.256864070892334
1.8437187500000007,-2.122261034286022,4.3040094458073375,-0.2901367922961712,-1.769092321395874,1.6487486362457275,3.0671253204345703
1.8536848144531248,-2.5996681186437605,5.17589457142353,0.6522352434754372,-1.5330157279968262,1.1899104118347168,2.7861156463623047
1.8636506347656248,-2.9337334845155474,5.561107356208563,1.4735387673676013,-1.2278273105621338,0.5742839574813843,2.506838798522949
1.8736166992187506,-3.0404028841644526,5.846448146399855,2.298148347067833,-0.9163124561309814,-0.0315484516322612,2.265049695968628
1.8835827636718747,-3.1048069672748446,6.228024620509148,3.515392385986447,-0.6553945541381836,-0.5079501271247864,2.102794647216797
1.8935488281250006,-3.143303578929603,6.590448065859079,4.78208054703176,-0.4766460955142975,-0.7783201336860657,2.009970664978028
1.9035156250000007,-3.013912352123856,6.829343331217766,6.018875674116611,-0.3784399032592773,-0.7749664187431335,1.9829754829406736
1.9134816894531248,-2.70926626522094,6.8633812098979945,7.1182368454545735,-0.3448913395404815,-0.5406862497329712,2.0203664302825928
1.9234475097656247,-2.330864037233591,6.393484647300839,7.815983547782897,-0.3065146505832672,-0.1079380512237548,2.0768001079559326
1.9334135742187506,-2.0582196470081806,5.897269402098655,8.340918691512941,-0.2314928472042083,0.3917643427848816,2.1008145809173584
1.9433796386718765,-1.8147338389888408,5.540414696791768,8.474927348986268,-0.1363628804683685,0.821808934211731,2.073199510574341
1.9533457031250006,-1.5240440889850255,5.286682512307166,8.401304478892683,-0.03263571113348,1.1121059656143188,2.019759178161621
1.9633115234375005,-1.141232520122826,5.003472304403782,8.263699258232116,0.0703926682472229,1.2429661750793457,1.93169367313385
1.9732778320312505,-0.7385458918370306,4.629174881386756,8.033316969674825,0.2003931701183319,1.1754772663116455,1.8000973463058472
1.9832438964843764,-0.497957558824867,4.148851032799482,7.672455951336025,0.3529539406299591,0.8994989991188049,1.6044940948486328
1.9932097167968763,-0.4139456158597022,3.777686354850232,7.180655015444756,0.497295618057251,0.4695571362972259,1.3774067163467407
2.0031757812500004,-0.1737562921024859,3.418938675403594,6.6936413138300175,0.6280112862586975,0.0105432197451591,1.167806625366211
2.0131418457031263,0.1092844044528901,3.162960757818818,6.315122473725676,0.7487396597862244,-0.3683123290538788,1.0279327630996704
2.0231079101562504,0.295776478683576,2.916751370054483,6.1917602979511015,0.8326191306114197,-0.5242734551429749,0.9662398099899292
2.0330737304687503,0.3698969230357557,2.760557476519048,6.345815718153118,0.8604443669319153,-0.4601123332977295,0.9617460370063782
2.04303955078125,0.4190639087215065,2.6947429420888422,6.322738793948292,0.8440579771995544,-0.2603249251842499,0.9765465259552002
2.0530058593750002,0.5073348973706364,2.784692385344207,5.839029394575953,0.8541063666343689,0.0517149940133094,1.0221205949783323
2.0629716796875,0.6551201512619853,2.7331910384267566,5.15386803305447,0.9579254388809204,0.4700107872486114,1.1376363039016724
2.0729377441406243,0.92579820985049,2.401195172305405,4.523392785966396,1.1411532163619995,0.861846923828125,1.3047469854354858
2.082903564453124,1.1857282260619104,2.146333399268985,3.763241357651353,1.2971806526184082,1.1216564178466797,1.44504714012146
2.092869873046876,1.3499598801024255,1.8734797502070664,3.0164427473843096,1.3774147033691406,1.2201944589614868,1.47349214553833
2.102835693359376,1.353223996464908,1.4460264910638332,2.2778297816604374,1.3965119123458862,1.1561270952224731,1.3812485933303833
2.112801513671876,1.6096359215527771,0.6795213098078966,1.3748024988055227,1.3540507555007937,1.0446892976760864,1.2555177211761477
2.122767578125,1.9679275277949868,-0.3495744851708412,0.4728986670225858,1.2194205522537231,0.9668892025947572,1.1187443733215332
2.132733642578124,2.133593160161376,-1.0412263777554034,-0.4156856644600629,0.9835772514343262,1.0131815671920776,0.9987265467643738
2.142700927734376,2.0565221954405306,-1.6345096660465002,-1.219924656304717,0.6161145567893982,1.2086812257766724,0.9004862308502197
2.152666748046876,2.269133264985681,-2.1534493687540293,-2.022065214565396,0.1714241057634353,1.5308295488357544,0.8762737512588501
2.1626328125,2.7180145120829344,-2.711896321463585,-3.081327015227079,-0.275896668434143,1.9298120737075808,0.9226630926132202
2.1725986328125,3.191124191507697,-3.225200064110756,-4.553478127628565,-0.6048423647880554,2.3672592639923096,0.9686638116836548
2.18256494140625,3.7149008128523824,-3.5064281582862136,-6.446676139262318,-0.7560390830039978,2.6288599967956543,1.049477219581604
2.19253076171875,4.109364241063594,-3.558427810114622,-8.814565546554327,-0.7385774850845337,2.8299553394317627,1.1017587184906006
2.202496826171876,4.592839539419114,-3.5132699870049957,-10.377643715071676,-0.6356068849563599,2.96451997756958,1.1433234214782717
2.2124626464843757,5.308215714201331,-3.6558436437278985,-11.44833817937374,-0.5564266443252563,2.9561383724212646,1.259895920753479
2.2224287109375,6.009281916341185,-4.248995999115706,-12.113482004261016,-0.5702326893806458,2.7867751121521,1.4336833953857422
2.232394775390624,6.245412977683544,-4.93240087235868,-12.525424975061416,-0.7788060307502747,2.343416690826416,1.6242828369140625
2.242360595703124,5.70466125614047,-5.330545034909248,-13.127241698420049,-1.2245110273361206,1.6197562217712402,1.7643349170684814
2.2523266601562497,4.18969800697267,-5.17578234322071,-13.773878391236066,-1.8338289260864256,0.8387488126754761,1.7334693670272827
2.2622927246093774,2.103265095784515,-4.357771431133151,-13.964737647700307,-2.4634103775024414,0.3588320016860962,1.5842292308807373
2.2722587890625014,0.1323717404538765,-3.350095440801978,-13.643512474179268,-2.9446024894714355,0.308969110250473,1.5995444059371948
2.2822246093750014,-1.5957520653679966,-2.502592476770282,-13.02121410380602,-3.1366395950317383,0.8244612216949463,1.8368858098983765
2.2921904296875013,-2.711414967687428,-1.5125360220208763,-11.908206099909544,-3.050154209136963,1.6389354467391968,2.1969754695892334
2.3021567382812513,-3.2156030914649367,-0.6155763686418533,-11.065706643253565,-2.7728753089904785,2.4738640785217285,2.501420259475708
2.3121225585937513,-3.2733304732903834,0.2384507364615798,-10.044274514770509,-2.3885011672973637,3.006472587585449,2.64595365524292
2.322088623046877,-2.813204778601229,0.8921583905771374,-9.197104143694045,-1.8848768472671509,3.114183187484741,2.651472330093384
2.332054443359377,-2.511284901791811,1.4864143232926723,-8.187474681207537,-1.26285982131958,2.8044941425323486,2.5331850051879883
2.3420209960937513,-2.496371994820237,2.017137695035338,-7.00134357343316,-0.525394082069397,2.176664352416992,2.317950963973999
2.3519877929687514,-2.561843122640252,2.4107521052017806,-5.491430593392253,0.2322257608175277,1.3760414123535156,2.057796001434326
2.3619538574218772,-2.605909058859944,2.8414406930044294,-3.607628771135211,0.9156056642532348,0.6636549234390259,1.8473098278045652
2.371919677734377,-2.6051088483929634,3.1344048176810144,-1.2407909187227486,1.4782723188400269,0.1048942282795906,1.7434841394424438
2.3818857421875013,-2.470434420487285,3.320395591326058,0.9975970793873072,1.8922433853149412,-0.2398221492767334,1.7749242782592771
2.3918518066406254,-2.3730288160070776,3.471460305279493,3.1583605705469844,2.1581475734710693,-0.3572459816932678,1.9096386432647705
2.4018176269531253,-2.1660462538681924,3.624978257603943,5.096442849045991,2.281648874282837,-0.3075122535228729,2.0648298263549805
2.411783691406251,-2.193053503259271,3.818655494098365,6.425213079994917,2.3104755878448486,-0.1471561342477798,2.1843409538269043
2.421749511718751,-2.548776135796309,4.325696084697545,7.365785957390069,2.282939910888672,0.113257348537445,2.252416610717773
2.431715820312501,-2.8656536355018614,4.623252505600452,8.044350989386439,2.2728359699249268,0.4349976778030395,2.2448458671569824
2.441681640625001,-3.1469632704809305,4.852199500657618,8.407274200952052,2.358441114425659,0.6736845374107361,2.153501510620117
2.451647705078125,-3.0750425281301137,5.107634105145931,8.044103736627102,2.549513578414917,0.7891075015068054,2.0159077644348145
2.461613525390625,-2.7448782613500957,5.1799131594151255,7.731991259366273,2.812204122543335,0.7870744466781616,1.869381546974182
2.471579589843751,-2.3184441161215306,5.218970327562094,7.618022350358962,3.060055017471313,0.6922441124916077,1.7251403331756592
2.481545654296875,-1.6789783378481864,5.448209875825048,7.580524102091789,3.2601537704467773,0.5603593587875366,1.6197295188903809
2.491511474609375,-1.0447059634994715,5.5003387069910765,7.806537674045562,3.366168975830078,0.4880650043487549,1.594423532485962
2.501477539062501,-0.4876846596788615,5.211981783849001,8.262510340708493,3.286243438720703,0.4896562397480011,1.646520733833313
2.511443847656251,0.1015941604775376,4.99704139457345,8.629633342051505,2.991215705871582,0.6015488505363464,1.720716953277588
2.521410888671877,0.4565964611170813,4.818196985551714,8.929298425671458,2.506853580474853,0.8067983984947205,1.7639387845993042
2.531376708984375,0.3615978081807494,4.902444710034132,8.915971326586604,1.8919192552566528,1.0440213680267334,1.7473905086517334
2.541342773437501,0.3318146278029307,5.100750190851092,8.377798515620826,1.231184482574463,1.336291790008545,1.720045804977417
2.551308593750001,0.4382573425564914,5.211846759292483,7.497160759228468,0.7200010418891907,1.6739386320114136,1.7408398389816284
2.561274902343751,0.4781590717688203,5.153783277380466,6.40907443062067,0.4054495096206665,2.0020220279693604,1.7545231580734253
2.571240722656251,0.697685619790852,5.200894572645425,4.900754857251048,0.2512562572956085,2.2206599712371826,1.7136955261230469
2.5812065429687507,0.7673794798724353,5.378414455065131,3.31346286945343,0.2570374608039856,2.3361403942108154,1.6213085651397705
2.591172607421875,0.9692548550654202,5.218628966778517,1.9149211831420656,0.4003799259662628,2.4040961265563965,1.5074313879013062
2.6011386718750007,1.4707912222251296,4.794672902101278,0.5994575930118561,0.6607579588890076,2.281678915023804,1.4477888345718384
2.611104736328125,1.922860451708734,3.7526200103938576,-0.9161831170260906,0.984734296798706,2.0518674850463867,1.3936764001846311
2.6210705566406247,2.2936478207781907,2.478621234074234,-1.5877286256492138,1.2207573652267456,1.7195100784301758,1.3060128688812256
2.6310366210937506,2.662637200514972,1.0899848557054996,-1.9685680176556108,1.280708909034729,1.2579177618026731,1.2220114469528198
2.6410026855468764,2.916563738527894,-0.3857458687484264,-2.590990306669473,1.1784623861312866,0.9136050939559937,1.1465696096420288
2.6509685058593764,2.7885855933904646,-1.4577140062481164,-2.787870723119378,0.9857968688011168,0.7916896939277649,1.180600643157959
2.6609345703125005,2.7186890503436327,-2.973741669777036,-3.2842519725382324,0.6579926013946533,0.7580217719078064,1.2803432941436768
2.6709018554687507,2.2381457137867806,-3.9208571006834494,-5.036776023590565,0.4130880832672119,1.0411438941955566,1.4017516374588013
2.6808676757812506,0.8609927063323557,-4.473360634818673,-6.140199037539959,0.3979168534278869,1.618526577949524,1.516975164413452
2.6908337402343747,-0.2271655550004914,-5.215173273366689,-7.48426795990765,0.5662656426429749,2.208369493484497,1.5269266366958618
2.7007998046875006,-0.5160437620703131,-6.042257134225964,-9.250631735742092,0.8493133187294006,2.7208123207092285,1.414313793182373
2.7107656250000005,0.041460685624741,-7.103255549421906,-10.15063061068654,1.158271312713623,3.063934087753296,1.319571018218994
2.7207316894531264,1.4102385538458824,-8.693067995607853,-10.15562710379958,1.3419908285140991,3.169376373291016,1.3249002695083618
2.7306977539062505,3.3458512273609635,-10.52971059180498,-9.401592697060108,1.2540432214736938,2.9066390991210938,1.4510891437530518
2.7406638183593763,4.7157376048132775,-11.84832650848627,-8.485766722908616,0.8662702441215515,2.390392780303955,1.644959807395935
2.7506296386718763,5.004243873298168,-12.216951731085777,-7.142302196174859,0.1947083920240402,1.851862907409668,1.8227568864822388
2.760595458984376,4.521280323857069,-12.140650581693649,-5.7585804778546095,-0.7001699209213257,1.3705545663833618,1.953431248664856
2.7705617675781262,3.3834178646892306,-11.355430763095615,-4.988842890548706,-1.6071149110794067,1.1075595617294312,2.0913119316101074
2.780527587890626,1.566618763733655,-9.818744926941394,-4.398376413244009,-2.3117825984954834,1.3258724212646484,2.256931781768799
2.7904936523437502,-0.4731251692548394,-7.271718849682808,-3.7205250824749463,-2.7825770378112797,1.9228359460830688,2.3534867763519287
2.8004560546875013,-2.047015531426668,-4.009676370865106,-3.755943601858616,-2.966764211654663,2.6803581714630127,2.3792781829833984
2.8104228515625014,-2.887657377517223,-1.0248422291874886,-3.91524452149868,-2.844449996948242,3.366799831390381,2.412168502807617
2.8203891601562514,-2.8561712291464207,1.310655313065648,-3.931000309035182,-2.4698257446289062,3.649595022201538,2.4248757362365723
2.8303549804687513,-1.8788056214049456,3.417876599130034,-4.047110321724414,-1.8630839586257932,3.191730499267578,2.389942407608032
2.840321044921877,-0.7290986298602073,4.938654672056436,-4.171707007730007,-1.035606026649475,2.104087352752685,2.3267040252685547
2.850286865234377,0.2674077316809445,5.947938097584247,-3.460049853470921,-0.1365155577659607,0.6094194650650024,2.191843748092652
2.8602531738281254,0.8320181023910641,6.826123784649372,-2.0188047514647245,0.6609554886817932,-0.8443394303321838,1.97009551525116
2.8702189941406253,1.1035673908561467,7.241570379656553,0.4846621700525284,1.1794501543045044,-1.922140955924988,1.9070900678634644
2.8801848144531252,1.1847462292872368,7.749103722208738,3.608224983462691,1.3560075759887695,-2.315479516983032,2.0515458583831787
2.8901508789062493,1.3103969543904066,7.99177441445291,6.590048837408423,1.2521753311157229,-2.204374074935913,2.2216148376464844
2.900116943359377,0.5058499195098877,8.529837919825315,8.52397399622798,0.9454508423805236,-1.6350899934768677,2.2522501945495605
2.910083007812501,-0.8806189055614173,9.69571768220961,9.590078210130333,0.6599043011665344,-0.6988586783409119,2.189185619354248
2.920048828124999,-2.026466664394736,10.140346532559397,9.934745634037256,0.574746310710907,0.0939523726701736,2.034980297088623
2.930014892578127,-2.252151004394144,9.858175604575871,9.091517863106729,0.6792716979980469,0.5073609352111816,1.73013436794281
2.939981933593751,-1.7984845688469706,9.56884136083424,7.991339530166983,0.9638029932975768,0.5010921359062195,1.3286575078964231
2.949948242187501,-0.7818624709941446,9.285077026179431,6.660666095945238,1.4355299472808838,-0.0476657785475254,0.9663553833961488
2.9599140624999993,0.5871170207463204,8.343385373887418,5.184270185580849,1.9804340600967407,-0.7839730978012085,0.6616538166999817
2.969880126953127,1.5816506209097805,7.587923564693331,4.916861357921362,2.401237964630127,-1.3663954734802246,0.4389646351337433
2.979845947265625,2.0798048713505266,6.853126357865333,5.565191410651803,2.571946620941162,-1.457486867904663,0.3807783126831054
2.989812011718749,2.1538858604751527,5.803648869115114,7.175371522083879,2.378307342529297,-1.102316975593567,0.4780982136726379
2.999778076171877,2.136187268307805,5.004461315441131,8.243526823297142,1.8651819229125977,-0.5025036334991455,0.7074916958808899
3.009743896484375,2.169965034747124,4.186705254897475,8.639157541722058,1.1208385229110718,0.2826003134250641,0.9825432896614076
3.019709960937499,1.926625941722095,3.63666840313673,8.649215994399786,0.3015540838241577,1.056273102760315,1.2138484716415403
3.0296760253906267,1.4404399231031535,3.4756256082654,7.920417735725641,-0.435240238904953,1.5187439918518066,1.345307469367981
3.039642089843751,0.91401132594496,3.3369314233243466,6.012943945980072,-0.9350207448005676,1.654758334159851,1.2982760667800903
3.049608886718749,-0.1151017124295234,3.4492402901649477,3.8692876569658514,-1.0685533285140991,1.5866552591323853,1.026381492614746
3.059574951171877,-1.2400155504360797,3.554634263050556,1.79374453471303,-0.8976969718933105,1.378109574317932,0.6720178723335266
3.069540771484375,-2.162931921239942,3.288479819366336,-0.2132622269302606,-0.5062713027000427,1.1708513498306274,0.3418203890323639
3.079507324218751,-2.769716934530437,2.7794021699815987,-1.5556097323328255,-0.0564735010266304,1.189753174781799,0.1137603372335434
3.089473144531249,-2.8515862394437197,2.023126706317067,-1.8756518335491417,0.2937436699867248,1.369121551513672,0.0235458221286535
3.099438964843751,-2.5359926420688628,1.0922218209773302,-1.9481763870120048,0.4523141384124756,1.6185390949249268,0.013187457807362
3.109405029296875,-1.7789049852386116,-0.012189619487524,-1.7857962060570716,0.4152795672416687,1.8022964000701904,0.0619744360446929
3.119371093749999,-0.9536872105121612,-1.640408660957217,-1.9895786569803957,0.2103908509016037,1.8019517660140991,0.1486528664827346
3.1293371582031266,-0.678296298057586,-3.146130619049072,-2.6173352927595377,-0.0898575484752655,1.678502321243286,0.195607528090477
3.139302978515625,-1.1890991637997328,-3.970637907418608,-3.345251507902145,-0.392574280500412,1.4042857885360718,0.127070277929306
3.149269042968749,-2.2941890880480407,-4.368104024577141,-4.622835741493105,-0.5746040344238281,1.2161825895309448,-0.0709172338247299
3.159235839843751,-2.761705185249448,-5.1538119189530605,-5.613889098325371,-0.635213315486908,1.2059353590011597,-0.2265539616346359
3.169202148437501,-3.015645459526777,-5.716439956739545,-6.364151585310697,-0.6366764307022095,1.276923656463623,-0.2778594195842743
3.179167968749999,-3.8355435005351897,-5.124731370419264,-6.93608754966855,-0.6465104222297668,1.5338945388793943,-0.267905056476593
3.1891337890625007,-3.7162878832966086,-5.433386985224485,-6.919332814222574,-0.7174282670021057,1.8237725496292116,-0.2744489312171936
3.1990998535156248,-2.8179028732895848,-6.947130921730399,-7.08566202506423,-0.9216354489326476,1.877064824104309,-0.279796302318573
3.209065917968749,-1.8713548670075832,-8.056666865602136,-7.532354822206496,-1.234977960586548,1.8401145935058596,-0.2670000791549682
3.2190319824218765,-0.7964881585221737,-8.843347988924384,-7.279830844467878,-1.5964752435684204,1.8300238847732544,-0.1388529986143112
3.2289978027343746,0.1713955543205142,-9.427872216698526,-6.684746644234657,-2.0207462310791016,1.8506112098693848,0.1198174282908439
3.2389638671875023,0.9170340347670018,-9.566429623517394,-6.064827862474322,-2.520508050918579,1.770085692405701,0.3886046707630157
3.2489301757812523,1.3853873134449124,-9.319021381357311,-5.920280859851837,-3.034731388092041,1.526338815689087,0.5842092037200928
3.2588962402343764,1.2378973892383276,-8.677284151020645,-6.05272767483592,-3.476426839828491,1.1883172988891602,0.7172881960868835
3.2688630371093748,0.6901055399253964,-7.63691935853064,-6.146218443959951,-3.778663158416748,0.8569376468658447,0.7739253044128418
3.278829101562499,-0.0114608302889391,-6.045014323979616,-6.1105374742478125,-3.88780689239502,0.6132301688194275,0.7439775466918945
3.2887949218750006,-0.6368343337912112,-4.219066140276193,-5.510799310728907,-3.84696626663208,0.5158005356788635,0.6848387122154236
3.2987609863281246,-1.0304054162725806,-2.536014853900671,-4.376922121804952,-3.716910600662232,0.4829288423061371,0.6426843404769897
3.3087270507812523,-1.0275859749376772,-1.0490589710772036,-3.255698078227043,-3.528146982192993,0.6103257536888123,0.6689713001251221
3.3186928710937504,-0.5760770462179556,0.3457090419143438,-1.927678373384476,-3.3010921478271484,0.8292319774627686,0.8165666460990906
3.3286589355468745,-0.110674470571801,1.3741671235114334,-0.8886164801865816,-3.014509439468384,1.0553596019744873,1.042349100112915
3.338625000000002,-0.0578121740320697,2.292167226831615,-0.0184936880677938,-2.665895462036133,1.208708882331848,1.236926555633545
3.3485910644531263,-0.3047243397708982,3.074931761232018,0.8711836993485689,-2.303072929382324,1.1774086952209473,1.2901666164398191
3.3585578613281246,-1.2459274048283695,3.9195179610341775,1.4679840558499098,-1.8934608697891235,0.9696531891822816,1.126757264137268
3.3685239257812523,-2.2862930741012093,4.194503945949673,2.2579805873304606,-1.5089651346206665,0.7862866520881653,0.8606748580932617
3.3784899902343764,-2.8994720262125133,4.142508970296383,3.51559170795083,-1.237844705581665,0.7166058421134949,0.6327189207077026
3.3884562988281264,-2.661593244419992,3.810342131522298,4.869615622621774,-1.0655211210250854,0.8825043439865112,0.5097890496253967
3.3984221191406245,-1.6842729371249674,3.435502856713533,6.345002648204565,-0.968048930168152,1.212636947631836,0.5496919751167297
3.4083879394531262,-0.2967085719019174,2.9616707082331177,7.180911620554328,-0.8422982096672058,1.523584485054016,0.762188196182251
3.4183540039062503,0.8114203547161072,2.7544784488663074,7.481708338552713,-0.58137446641922,1.6329677104949951,0.9794811010360718
3.4283200683593744,1.6009370667904614,2.5963898276254533,7.256101009312272,-0.2373025864362716,1.404874563217163,1.0804511308670044
3.438286132812502,2.0004758985698223,2.453427171584964,6.658401073622703,0.1466948688030243,0.9337756037712096,1.1223067045211792
3.4482529296875004,1.7637338657222688,2.264531324148178,6.435693557476997,0.5291029810905457,0.4538424909114837,1.0829375982284546
3.4582189941406245,1.7089483825676142,1.9382848153337835,6.547611963695287,0.8542014360427856,0.0025288243778049,1.042666792869568
3.468184814453126,1.81184396276623,1.6025030009329315,6.598182459503412,1.0781476497650146,-0.2447160482406616,1.028983235359192
3.4781511230468762,1.9006421901598567,1.4193597256734969,7.025453932338952,1.2317020893096924,-0.3021623194217682,1.1208703517913818
3.4881169433593744,2.1279827729336915,1.1839774368718263,7.269770053702592,1.3057732582092283,-0.2680058777332306,1.2856217622756958
3.498083007812502,2.192359091254324,1.16478962906003,7.115950780344009,1.3028544187545776,-0.1554942429065704,1.4292181730270386
3.508048828125,1.9762769845977424,1.405781574437022,6.825608236342668,1.2608397006988523,-0.0032099611125886,1.5398846864700315
3.5180148925781243,1.7666273952066898,1.5498662202447653,6.383873353868722,1.1764732599258425,0.1149742007255554,1.617642521858215
3.527980957031252,1.4451216511785985,1.6278507926791903,5.86234772632122,1.0235217809677124,0.1967338025569915,1.5976645946502686
3.537947998046876,0.8718860023990272,1.772257217787206,5.341079288405179,0.8458375334739685,0.3807350695133209,1.4873965978622437
3.5479140625000003,0.3211705207243561,1.8180284966200588,4.926292034089565,0.7173886299133301,0.629558801651001,1.3519185781478882
3.557879882812502,0.0952047882339917,1.4382827450692652,4.07681046346128,0.6622553467750549,0.8252915740013123,1.2472994327545166
3.567846191406252,0.1544823403771966,0.9125839234903454,2.804461792436242,0.6431935429573059,1.0238529443740845,1.1774698495864868
3.57781201171875,0.4990035607464611,0.3055696314886212,1.6223042644679546,0.6294575333595276,1.2692408561706543,1.185220718383789
3.5877780761718743,1.1477988929010927,-0.7081345330908894,0.6925725145608186,0.5121151804924011,1.507704496383667,1.239229679107666
3.597743896484376,1.7451675508096811,-1.7172610144913196,-0.4858201079159975,0.3083508312702179,1.630456805229187,1.2811603546142578
3.6077099609375,1.979138511508703,-2.4976161496624347,-1.9721137274384497,0.0788149461150169,1.6610095500946045,1.248762845993042
3.617676025390624,1.6947848326586186,-2.7168247177764773,-3.430178446820378,-0.1698228418827057,1.6273857355117798,1.1295480728149414
3.627643066406252,0.9799119312234222,-2.712443433952332,-5.035007260352373,-0.3400445282459259,1.5979939699172974,0.9152745604515076
3.63760888671875,0.2921860529761761,-3.0195427592262623,-6.769930188262462,-0.3224916160106659,1.8002383708953855,0.67524653673172
3.647574707031252,0.1143544377261772,-3.5792779981806877,-7.836915861174464,-0.2331605702638626,2.072762966156006,0.5233901143074036
3.657541015625002,0.8209897087026387,-4.0082200345769525,-9.041423168116808,-0.1086064055562019,2.177933692932129,0.4792508780956268
3.667507080078126,1.5976777727335691,-3.8544273569643495,-10.548339304429293,0.1172212362289428,2.1456005573272705,0.5871296525001526
3.67747314453125,2.6658903570920227,-3.885098389559984,-11.653180368483063,0.4357185065746307,1.9583319425582888,0.8430349230766296
3.6874389648437518,3.8515985632792114,-4.061944025979936,-12.25590777694583,0.7710802555084229,1.4832038879394531,1.089402437210083
3.697405273437502,4.813212767398357,-4.389225138539076,-12.535876226449012,0.9340412020683287,0.711387574672699,1.24406635761261
3.7073720703125,4.924712655943632,-4.701983804748952,-12.15206044898033,0.8107906579971313,-0.1386407762765884,1.2460968494415283
3.7173381347656242,3.833811269915104,-4.695898055094481,-11.086501594001057,0.4868088662624359,-0.8395597338676453,1.1328352689743042
3.727303955078126,1.6557563060842453,-4.85634580668211,-9.579067571294306,0.012319317087531,-1.1241265535354614,0.9263452291488647
3.73727001953125,-0.7099245583128184,-4.65050350061953,-7.67974084764719,-0.6009007096290588,-0.8898769617080688,0.6802502870559692
3.747236083984374,-2.4203984699472785,-3.986430519834161,-5.478704967331886,-1.2965457439422607,-0.1782808899879455,0.553412914276123
3.757201904296876,-2.8779449617981907,-3.268593507896364,-3.2963632660925386,-1.9933842420578003,0.6099799275398254,0.598171591758728
3.76716796875,-2.015697140838206,-2.5730790946647524,-2.165351987993717,-2.533658742904663,1.2136598825454712,0.7353005409240723
3.7771337890625016,-0.8145588719375431,-1.57328216714561,-1.918306149405241,-2.745746374130249,1.536526083946228,0.918458878993988
3.787100830078126,0.1703343548297882,-0.595557955224812,-2.1155857943058014,-2.644818067550659,1.5496885776519775,1.0811975002288818
3.797067138671876,0.5703675459973514,0.4142883648827671,-2.1225591404497623,-2.333282232284546,1.2414202690124512,1.1576600074768066
3.807032958984374,0.6092289723765104,1.3493369258984922,-1.8265578400343656,-1.8960270881652832,0.7255082130432129,1.1815197467803955
3.8169990234375017,0.3429113009545952,1.9814073332235216,-1.1475555856645108,-1.4076582193374634,0.1506081372499466,1.1740338802337646
3.82696484375,-0.2232021677948534,2.482429686446488,-0.0738455729335546,-0.9531772136688232,-0.3209181725978851,1.1717692613601685
3.83693115234375,-0.7146744562536478,2.904249323616922,1.4586352127462625,-0.6126736402511597,-0.6065696477890015,1.2178884744644165
3.8468969726562516,-0.9974645390488208,3.2516999485015865,3.1059464926987883,-0.3871126472949981,-0.6285253167152405,1.3099465370178225
3.85686279296875,-1.2869935747101902,3.5113089160650968,4.775090249752998,-0.2796154916286468,-0.4436303377151489,1.420263171195984
3.866829833984374,-1.3870498398296534,3.639870706309378,5.987868541434407,-0.2460555583238601,-0.2092937678098678,1.5574778318405151
3.876795654296876,-1.5115993256926537,3.569027822323143,6.633468876940012,-0.2068660706281662,-0.004426117055118,1.6837903261184692
3.886761962890626,-1.38864631524086,3.559673426261544,6.92957948294878,-0.1151573956012725,0.1418964117765426,1.774469017982483
3.896727783203124,-1.0258251758102328,3.5145044972360133,6.7457549474269145,0.1197760179638862,0.2056495547294616,1.8462225198745728
3.9066938476562516,-0.615089315777272,3.233573632441461,6.406681398004293,0.4612644016742706,0.1105764284729957,1.8813718557357788
3.9166596679687498,-0.4475441167419776,3.062022303037345,6.141677877920865,0.8384814858436584,-0.0714032277464866,1.800297498703003
3.9266259765625,-1.0055430699557066,2.938208876363933,6.341919879758358,1.172674298286438,-0.2877290248870849,1.5511642694473269
3.936593017578124,-1.7097262350723146,2.7872578519180418,6.754421653485298,1.3960586786270142,-0.4917148947715759,1.1840081214904783
3.9465590820312517,-1.9412251065693795,2.472286770355701,7.206608956390619,1.4768831729888916,-0.580934464931488,0.7825348377227783
3.95652490234375,-1.9699610794492064,2.0324360941931605,7.785605360653996,1.4845130443572998,-0.6139576435089111,0.4447298645973205
3.966490966796874,-1.8484945081628856,1.5327207319155334,8.01799723546803,1.4247033596038818,-0.6336285471916199,0.1887846142053604
3.9764570312500016,-1.5748742586426436,1.3883508394256234,7.997614372652769,1.408568024635315,-0.3872688710689544,-0.0479317754507064
3.9864228515624998,-1.4391621582522989,1.71647658611536,8.260605968391895,1.3029146194458008,-0.2051705867052078,-0.1717586368322372
3.996388916015624,-1.2339986282341182,1.32338970695436,6.57604836910665,1.101676106452942,-0.1214996501803398,-0.2623625695705414
4.006355712890626,-1.2371727282255889,2.10126559253037,5.239391184300184,0.996311902999878,0.0676745623350143,-0.3371859788894653
4.01632177734375,-1.396150261130184,2.3328119564309717,4.575877006441354,1.0493199825286863,0.4361332952976227,-0.3659172058105469
4.026287841796874,-1.4805711502224206,2.1606913027063013,4.1827182310879225,1.211487054824829,0.8165764808654785,-0.3180402219295501
4.036253906250002,-1.2112502053312957,1.878001903806627,3.6959693178892135,1.4275437593460083,1.0145851373672483,-0.2031584084033966
4.0462197265625,-0.5777795027542859,1.505485226726532,3.1269068631410595,1.6089051961898804,0.9794827103614808,-0.0945487394928932
4.056185791015624,-0.1036029247503727,1.307628366459906,2.694790288361907,1.6847487688064575,0.8159462213516235,-0.0362667888402938
4.0661518554687515,-0.3186095841951668,1.120859301918745,2.548761522749066,1.6312488317489624,0.6834267973899841,0.0379982776939868
4.0761179199218756,-0.7932464731872081,0.7380185069620608,2.53901929641366,1.433279037475586,0.6071935296058655,0.0995165035128593
4.0860849609375,-1.1822824695222078,0.497456769695878,2.0404419982552526,1.1622629165649414,0.5941493511199951,0.1746540963649749
4.096051025390624,-1.4194804294437169,0.2523766782224178,1.303495504438877,0.8421600461006165,0.5622074007987976,0.2756164073944092
4.106016845703126,-1.4924546263702212,0.326055077895522,-0.1757996344983577,0.5761565566062927,0.5526788830757141,0.4091202616691589
4.11598291015625,-1.4504137662373482,0.2103238353908061,-1.874719521135092,0.4862351715564728,0.7374234795570374,0.5357727408409119
4.125948974609374,-1.3827318305000662,-0.2735954073399305,-3.189983789300918,0.5260442495346069,0.9858885407447816,0.6341322660446167
4.1359147949218755,-1.160458687183633,-1.2849176452189683,-4.918135615640878,0.6817805767059326,1.1765037775039673,0.5601163506507874
4.1458818359375,-0.523467993786931,-2.308015661087632,-6.417517264795303,0.99038165807724,1.1516510248184204,0.197769209742546
4.1558476562500015,0.5582504802893847,-2.9864608660966154,-7.413588157528638,1.3438724279403689,0.7192967534065247,-0.2775695919990539
4.1658139648437515,1.766557544840872,-3.807945591774583,-8.369436929988861,1.5498857498168943,0.0306199826300144,-0.5791526436805725
4.17577978515625,2.7547701252892614,-4.862063599807024,-8.66985195519328,1.6334278583526611,-0.6492765545845032,-0.6801477074623108
4.185745849609377,3.912603651601076,-6.008063772723078,-7.895881844884157,1.546374797821045,-1.200858235359192,-0.59910649061203
4.1957116699218755,4.512312589025497,-6.917364729019999,-6.880039499232173,1.1878893375396729,-1.6361905336380005,-0.3625355064868927
4.2056779785156255,4.021175085479021,-7.204444471833109,-6.051203826269507,0.5658431053161621,-1.8585772514343264,-0.0309659037739038
4.215643798828127,3.049604135490953,-7.252996613556146,-5.061121360296011,-0.2626676559448242,-1.7925031185150146,0.2957019805908203
4.225611083984374,1.7393173634767531,-7.001634665334224,-4.308431353902817,-1.1631048917770386,-1.3908997774124146,0.5743702054023743
4.235576904296876,0.3067124448481947,-6.3408274083465335,-3.861408301892877,-1.9557901620864868,-0.7526556253433228,0.7401546239852905
4.245542724609377,-0.998563294070959,-5.227066540256143,-3.997069402748346,-2.464664936065674,-0.0311874747276306,0.8185649514198303
4.255509033203127,-1.776998713225871,-4.138488628739118,-4.660916758084297,-2.5552754402160645,0.607611894607544,0.8143633008003235
4.2654748535156255,-1.956142397455126,-3.0761066502302885,-5.516253484481573,-2.257625102996826,1.054499268531799,0.7712254524230957
4.27544091796875,-1.6056709634445607,-1.86207748170495,-5.826597198504209,-1.7368947267532349,1.2120132446289062,0.7271379232406616
4.2854077148437515,-0.666908350341767,-0.8807131597161293,-5.494694563624263,-1.1306365728378296,1.053572177886963,0.7051699161529541
4.295373779296876,0.2331181067293509,-0.2803197471588849,-4.6095969052135946,-0.5038189888000488,0.625268280506134,0.6666659116744995
4.30533984375,0.8998549364291131,0.2496867084860801,-3.3285704222142694,0.1024496257305145,0.0676108673214912,0.6634812951087952
4.315305908203127,1.2598854952931404,0.6662503248244523,-1.616547892898321,0.5489855408668518,-0.5143305659294128,0.6835780143737793
4.3252717285156255,1.358720986445993,1.2675544224858284,0.2975888618677854,0.806110143661499,-0.9377709031105042,0.7407267093658447
4.33523779296875,1.2897994259111585,1.7079396439164876,2.3361259032845494,0.8769952654838562,-1.1228195428848269,0.8180241584777832
4.3452041015625,1.017143345247954,1.9646359389036891,4.086729799929261,0.7743359804153442,-1.1195472478866575,0.8949039578437805
4.355171142578124,0.4832792643267661,2.228486781820654,5.357473373845219,0.5411146879196167,-0.8884925246238708,0.9543768763542176
4.365136962890626,-0.0334726825455203,2.485938863611221,6.358408657744526,0.2516518533229828,-0.4685699343681335,0.993297815322876
4.375102783203127,-0.3070911054348573,2.60434955445826,6.859988060328364,-0.0278714019805192,-0.0160538423806428,1.0300263166427612
4.385068847656251,-0.6663118457533419,2.63553262822926,6.841723504841327,-0.2193518728017807,0.4079656302928924,1.014266014099121
4.3950349121093755,-0.8990604250505566,2.733041400822997,6.562336654618382,-0.2986536026000976,0.7463839054107666,0.9428114891052246
4.4050009765625,-0.9923760568033904,2.7781472014844417,6.049098962944746,-0.26133593916893,0.9431907534599304,0.8133737444877625
4.414966796875001,-0.9648045245930552,2.9191590157181024,5.451420654565095,-0.109127476811409,0.966536581516266,0.6519409418106079
4.4249338378906256,-0.7775640431478619,2.9795699375391003,4.811955460813642,0.1260465383529663,0.8663150668144226,0.5067276358604431
4.434899658203127,-0.5814413862626999,3.03000131713748,4.4117169563323255,0.3911844789981842,0.6977159380912781,0.3682550191879272
4.444865966796877,-0.3980783307727426,3.185170836061239,4.234520899039507,0.6563469171524048,0.490022599697113,0.2278052121400833
4.454831787109375,-0.2716400172221474,3.290843625888228,4.2238790935158725,0.876592218875885,0.3184827864170074,0.1177594065666198
4.4647978515624995,-0.2040143782493658,3.4083348638027906,4.4052416228383775,1.0078414678573608,0.2384232282638549,0.0319396257400512
4.474763671875001,-0.2245027472657151,3.526041790294647,4.669102402627468,1.052059769630432,0.27327761054039,-0.0202013384550809
4.4847309570312515,-0.2935453220980242,3.600009528303146,4.93885165593326,1.0322015285491943,0.3770806789398193,-0.0685477554798126
4.4946970214843756,-0.451122961609438,3.772275727978348,4.949972769406438,0.9781315922737122,0.5162785053253174,-0.1218192353844642
4.5046630859375,-0.69640953544043,3.9203608415991065,4.71982604317069,0.9384724497795104,0.6931746006011963,-0.1705414950847625
4.514628906250001,-0.8313073237732053,3.792587279123068,4.422124368578196,0.9272059202194214,0.8124807476997375,-0.2238529175519943
4.5245947265624995,-0.8331015137135982,3.491396008849144,3.832022632932663,0.9279456734657288,0.793364942073822,-0.2978016138076782
4.5345610351562495,-0.7170396510150283,3.044232087063789,2.9930840836286543,0.967227041721344,0.6924156546592712,-0.3608724474906921
4.544526855468751,-0.472089834857732,2.443962008625269,2.217346379125118,1.0095090866088867,0.5536251664161682,-0.3369918465614319
4.5544938964843755,-0.2281991175656206,1.6935235805511473,1.5432815811574458,0.9885801672935486,0.3298498690128326,-0.2953519821166992
4.564459716796877,0.0770142295649275,0.9999889429599046,0.5093687412858009,0.9041028022766112,0.079302579164505,-0.2960929274559021
4.574425781250001,0.1312844201412051,0.2293307336777448,-0.4704752392679452,0.8153452277183533,-0.0548094138503074,-0.3198429942131042
4.584391845703125,-0.2976942219384014,-0.6018751755475997,-1.131914364418387,0.6786524057388306,-0.0603727884590625,-0.3343299627304077
4.5943579101562495,-0.884403392536193,-1.4336889875382184,-1.9526970793068408,0.4446929097175598,0.027749078348279,-0.3529422581195831
4.604323974609377,-1.2501833087071776,-2.160185983532667,-2.8756536359906195,0.1172616705298423,0.1555247902870178,-0.3876820504665375
4.614289794921875,-1.753156211476028,-2.6479367672503,-4.271353376874328,-0.1495646983385086,0.4139113426208496,-0.4301583766937256
4.6242568359375,-2.320267239895463,-2.624429050412774,-5.611767868387699,-0.2135898023843765,0.8563112020492554,-0.3954445421695709
4.63422314453125,-2.5712916267260906,-2.4128537536561487,-6.692037970286608,-0.0689521953463554,1.2747910022735596,-0.2643054127693176
4.644188964843751,-1.7651842106610536,-2.88331788700819,-8.018549024131893,0.3110112845897674,1.4055389165878296,-0.1153451278805732
4.6541547851562495,-0.3946916109438985,-3.698292207878828,-9.125048376786708,0.76447993516922,1.164458990097046,0.0205376036465168
4.664120849609377,1.1434007310073822,-4.702551667764783,-9.407374787592888,1.158317804336548,0.6844719648361206,0.1490784287452697
4.674086914062501,2.696055485992133,-5.871995260110497,-8.706524858552218,1.4174896478652954,0.0026577175594866,0.2358069270849228
4.6840539550781255,3.751076872605085,-6.758363084587455,-7.689464369282126,1.4913424253463743,-0.7812915444374084,0.2893284261226654
4.694019775390627,3.7646678833231326,-6.916958486306667,-6.23449235521853,1.3174960613250732,-1.4812756776809692,0.3546344637870788
4.703985839843751,3.0942876190871,-6.814518102529645,-4.36198817204535,0.7820420861244202,-1.9528433084487915,0.4356029629707336
4.7139516601562494,2.0280308449715374,-6.57694385664165,-2.404702595904469,-0.1078428477048873,-2.1217598915100098,0.5301622152328491
4.723918212890625,0.94105423117131,-6.126410166162252,-0.925083631840348,-1.1752862930297852,-1.9719531536102293,0.6934438943862915
4.733884033203127,-0.1858138096429407,-5.546649791789054,-0.2974555908769369,-2.110035181045532,-1.443228840827942,0.8802822232246399
4.743850097656251,-1.3075143846914172,-4.542397930687666,-0.1553010363489389,-2.747872829437256,-0.6372003555297852,1.0409470796585083
4.75381689453125,-2.3793341997615998,-3.263745775604248,-0.3019634236901998,-3.1098554134368896,0.309487372636795,1.097545146942139
4.763782958984377,-2.9270921468049287,-1.732858981117606,-0.5401286212086677,-3.2551400661468506,1.112882375717163,1.0335968732833862
4.773749023437501,-2.737595410865545,-0.4372229580074548,-1.0785159517079592,-3.1700754165649414,1.6638463735580444,0.909957766532898
4.7837148437499994,-2.1100888043247163,0.4268827657788991,-1.2821084330171346,-2.932981491088867,1.850009083747864,0.7839834094047546
4.793680908203127,-1.41857968121171,1.31537006662786,-1.1658195566296576,-2.6161234378814697,1.6940178871154783,0.6617374420166016
4.803646240234377,-0.9949201152630148,2.129735900211334,-0.7768155628681183,-2.2271227836608887,1.2901843786239624,0.5502761006355286
4.813613281250001,-0.8355350244708358,2.691789352980256,-0.1788099222302436,-1.8073554039001465,0.7409580945968628,0.4252678453922272
4.823579345703125,-1.011551735785976,3.0821020912528034,0.5988169570207595,-1.3750115633010864,0.1776638478040695,0.3016845881938934
4.833545410156249,-1.2401875460021197,3.170003662067652,1.5970611021399497,-0.9311792850494384,-0.2914282977581024,0.2166429162025451
4.843511230468751,-1.46428622424528,3.227949070557952,2.6557453951746224,-0.535356879234314,-0.5444404482841492,0.1668267995119094
4.853477294921875,-1.5226130332686003,3.3052526749908924,3.879432618883252,-0.2115998864173889,-0.5681343078613281,0.1371016651391983
4.863443359374999,-1.4293758005142212,3.242969529557228,5.131856692254543,0.0174761358648538,-0.4948204457759857,0.104875661432743
4.8734106445312495,-1.148704974895343,3.2029309491574764,5.922452943193912,0.1632072329521179,-0.3991109430789947,0.0667527839541435
4.883376464843751,-0.9007365415692328,3.2262080721095203,6.546783696177601,0.2403612285852432,-0.3066023290157318,0.0165275298058986
4.893342529296872,-0.686741251124069,3.264823341707885,7.011715914365649,0.2863894402980804,-0.2133482843637466,-0.042899839580059
4.903308349609381,-0.4405233512597158,3.247487883764505,7.23909434493184,0.3249648213386535,-0.1555740088224411,-0.0989500060677528
4.9132746582031235,-0.2964860334587283,3.107220750418305,7.221577977463602,0.347493827342987,-0.0829978138208389,-0.1693038046360016
4.923240478515625,-0.2800962406013161,3.110090168374777,7.232433133476972,0.3611102700233459,0.0002369300927966,-0.2340519875288009
4.933206298828123,-0.3322804186837747,3.1553450221180914,7.167799041002988,0.3507007956504822,0.0694993510842323,-0.3106221258640289
4.943173339843751,-0.5300004277629777,3.356919149342179,6.850201410329341,0.3681756258010864,0.1343095898628235,-0.4087181091308594
4.953139160156249,-0.7364686471715569,3.520399985015392,6.474363187611103,0.422904908657074,0.2232048213481903,-0.4943946897983551
4.963105468749999,-0.8124117769062519,3.613637071639299,6.1852580764502285,0.5035394430160522,0.3133755326271057,-0.5590996742248535
4.973071289062501,-0.8990001462306827,3.7713112668603657,5.839638466385007,0.5848289728164673,0.3738468587398529,-0.6370229125022888
4.983037353515625,-0.91275467694737,3.918886092871427,5.448723086044192,0.7017846703529358,0.4710527062416076,-0.7105033993721008
4.993003173828123,-0.7861908555872738,3.783074769890308,5.248863946044445,0.8429391384124756,0.5431679487228394,-0.70540851354599
