time,ax,ay,az,gx,gy,gz
0.0,2.437384529931098,-2.921838464060426,-6.467499731582403,-0.9782927632331848,1.2928380966186523,0.8347298502922058
0.00996606445312409,1.2909189314603804,-2.291344512271881,-6.215926186436414,-1.2800462245941162,0.9513704776763916,0.8801266551017761
0.01993212890624818,-0.3105130061749369,-1.8143483468025925,-6.137769764566421,-1.556046485900879,0.6163869500160217,0.7388215661048889
0.02989941406249841,-1.7231415969625117,-1.3488888898700475,-5.909917286747693,-1.788201928138733,0.3502545952796936,0.4570516347885132
0.039865234375000114,-2.5610332675620917,-1.0744961946725844,-5.394245645925403,-1.9571409225463867,0.2424473315477371,0.1626143157482147
0.0498322753906244,-2.780787194599211,-0.993126948235929,-4.300134065678716,-2.083047151565552,0.30695441365242,-0.0491101890802383
0.059798095703122556,-2.46676888371706,-0.8320607724890112,-3.0493881546527146,-2.2167651653289795,0.4422906041145324,-0.1614440828561782
0.0697641601562502,-1.915816086155176,-0.4935176766812801,-1.6217787792891265,-2.353031635284424,0.5802351236343384,-0.2051689326763153
0.07973095703124855,-1.2041200611904264,-0.1184121521517634,-0.3227566208720207,-2.4561455249786377,0.677320122718811,-0.1979941129684448
0.08969726562499858,-0.4795942922037094,0.2404503858461976,0.6018927112042903,-2.5171236991882324,0.6452484726905823,-0.159763902425766
0.09966406250000048,0.0168754392161965,0.7204328736498952,1.168029049372673,-2.5130510330200195,0.4937039613723755,-0.1041678190231323
0.10963037109375051,0.2451433659680187,1.1176654743134975,1.6761749708652496,-2.388854742050171,0.3053193986415863,-0.0174321234226226
0.11959619140624866,0.0751991794995963,1.3182418226718902,2.114947496402264,-2.147744655609131,0.0677636712789535,0.0299859568476676
0.1295632324218694,-0.3874493116654455,1.570660586470365,2.4237363821983338,-1.8560223579406736,-0.2050723880529403,-0.0112030245363712
0.1395290527343782,-1.1056150441009551,1.8648723731204864,2.7349481112271548,-1.5437926054000854,-0.4975588023662567,-0.1449991166591644
0.1494953613281247,-1.5205945330530404,1.913082277277112,3.0231121421456337,-1.2058616876602173,-0.8061733245849609,-0.2967697381973266
0.15946215820312304,-1.5607348202615976,1.7445345136031507,3.295935396069288,-0.8620820641517639,-1.1099032163619995,-0.4033737182617187
0.16942822265625068,-1.480411868007481,1.5716168642818926,3.567989419186115,-0.5155539512634277,-1.3813555240631104,-0.4815212488174438
0.17939501953124903,-1.2859601400092244,1.6212909957721828,3.693012221649289,-0.1715028584003448,-1.562474489212036,-0.5277419090270996
0.18936132812499906,-1.064313019636646,1.5543744914494455,3.865335119947791,0.223348319530487,-1.6616191864013672,-0.488027811050415
0.1993281249999974,-0.7382460321076214,1.4278988598294555,4.044797953128814,0.6072087287902832,-1.7177734375,-0.4125508368015289
0.2092941894531215,-0.4809629867410287,1.4324001167714595,4.447040198647976,0.9141476154327391,-1.737370491027832,-0.3361655175685882
0.21926025390624915,-0.3901102014377713,1.4029405057922004,4.931946114328503,1.1355822086334229,-1.7073760032653809,-0.2550949454307556
0.2292270507812475,-0.2723512890303507,1.2983935051247475,5.2932040230304,1.2627828121185305,-1.647284984588623,-0.1770624667406082
0.2391931152343787,-0.2119960977182723,1.245195583422482,5.630805746334791,1.3149017095565796,-1.5583068132400513,-0.1189746484160423
0.24915917968749923,-0.2789519659370184,1.2456389432758093,5.852611345204711,1.3161996603012085,-1.432646870613098,-0.0868329554796218
0.2591259765624976,-0.4483107172003016,1.125210482865572,5.987392156094312,1.2953884601593018,-1.2585291862487793,-0.0484198182821273
0.2690920410156288,-0.6251321324944495,0.9314841465324164,6.085094989955425,1.2537246942520142,-1.0461426973342896,-0.0124359857290983
0.2790590820312495,-0.8012272428080439,0.856114140510559,5.93663110615015,1.189947247505188,-0.8579400181770325,-0.0051688076928257
0.2890251464843736,-1.0533613444462415,0.8761047891378402,5.610918558081984,1.0852926969528198,-0.7028111815452576,-0.059312205761671
0.2989921874999979,-1.2940092986911536,0.9029963031947612,5.141657370778918,0.9792250990867616,-0.5253148674964905,-0.1665649861097335
0.308958251953122,-1.1791544736947863,0.6044611003875732,4.424797387179732,0.947953462600708,-0.3544816374778747,-0.2468523532152176
0.3189240722656237,-0.8530740421622991,-0.1621744292497634,3.346647346174717,0.9771100282669068,-0.3242510259151459,-0.3346224427223205
0.328891113281248,-0.589400455508381,-0.6634308834895492,1.9664339282363648,0.9429914951324464,-0.4458568096160888,-0.4961799383163452
0.3388569335937497,-0.4486892316564917,-1.2232771816030144,0.6802332574695348,0.8161329627037048,-0.619003176689148,-0.6749294400215149
0.3488261718750003,-0.5525746266100555,-1.669450046524405,-0.3958423153489828,0.5592532157897949,-0.7532733678817749,-0.9112831354141236
0.35879296874999866,-0.7609068497922271,-1.8111770232900977,-1.642805200704932,0.1842507421970367,-0.8552039861679077,-1.185740351676941
0.3687592773437487,-0.9498365264333783,-1.9627429647639392,-3.207054751089215,-0.3249185085296631,-0.8495956063270569,-1.421786189079285
0.37872631835937653,-0.7161430675014853,-2.426763328804076,-4.457767344367504,-0.7987776398658752,-0.5215703248977661,-1.5382368564605713
0.3886923828125006,0.0559950781401246,-3.5412019500255583,-5.719342692443728,-1.094892144203186,0.0118419034406542,-1.5304125547409058
0.398659179687499,-0.2641983411803841,-3.1960023189380764,-6.848540199118852,-1.1884292364120483,0.5187909007072449,-1.3775484561920166
0.40862524414062307,-1.5252467427730558,-1.493962838976085,-7.777890840753913,-1.1650952100753784,0.9038957357406616,-1.1820253133773804
0.4185910644531248,-1.574289444492012,-0.6720639795392751,-8.499370885369181,-1.0014612674713137,1.202149510383606,-1.063155174255371
0.42855810546874906,-0.4054468137141317,-0.8173734909668564,-9.174798203861712,-0.6189373135566711,1.3369848728179932,-0.9155129790306092
0.4385241699218696,1.5709377959765494,-1.730578468964994,-9.606895489418504,-0.1155218556523323,1.2269771099090576,-0.6625251770019531
0.4484902343750008,3.518658402045071,-2.751300987873971,-9.43718832657635,0.3358424007892608,0.9430624842643738,-0.3234933316707611
0.45845703124999915,4.332963153091073,-3.391287575151026,-8.662069630753994,0.6095455884933472,0.497232973575592,0.0915866643190383
0.4684233398437492,3.993335476917028,-3.3003725017338987,-7.627354826849698,0.6587410569190979,0.0145874982699751,0.4853768348693847
0.4783901367187475,3.0007208621174097,-2.927638090249896,-6.327372883489728,0.588391900062561,-0.3722686767578125,0.7892079949378967
0.48835620117187517,1.5178849818333982,-2.6666312385872004,-5.027825239893794,0.5312851667404175,-0.596227765083313,0.984653651714325
0.49832226562499926,0.1409626230633817,-2.331662201873958,-3.648756900337338,0.496848315000534,-0.6340041160583496,1.0531742572784424
0.5082893066406236,-0.954469008539617,-1.8522385169968008,-2.4779040257155893,0.4657790660858154,-0.5867194533348083,1.0299744606018066
0.5182551269531217,-1.8188243231728671,-1.3206959378257392,-1.4362024316638706,0.4438201785087585,-0.4868380427360534,0.9223533272743224
0.5282221679687495,-2.2833922380931675,-0.8853793979614972,-0.344912338578701,0.4108291864395141,-0.3874486088752746,0.7644135355949402
0.5381879882812477,-2.16981335131675,-0.5431026685833931,0.632197833096981,0.3446723520755768,-0.3347939550876617,0.6108002662658691
0.5481540527343789,-1.6194931525699794,-0.4019824255391955,1.5126158092588184,0.2507961988449096,-0.3310660421848297,0.5361036658287048
0.5581210937499996,-0.9251255712859332,-0.3038248336479067,2.377241173005104,0.1325549930334091,-0.3532384634017944,0.5444192886352539
0.5680871582031237,-0.3128700176298618,-0.2039461170524358,3.109298725736141,0.0175671577453613,-0.3732936680316925,0.6128044724464417
0.578054199218748,0.0305518631953746,-0.2326864738464355,3.7897418265640734,-0.0624145343899726,-0.3468317091464996,0.7173503637313843
0.5880202636718757,0.2371728254802524,-0.212021286958456,4.482890679708123,-0.073815256357193,-0.2723414897918701,0.815267026424408
0.5979860839843738,0.3274984085716307,-0.0751277216985821,4.975408823958039,-0.0310412291437387,-0.208823412656784,0.8830126523971558
0.6079531249999981,0.2099021759126335,0.1887456253111362,5.4245852546095845,0.0363063849508762,-0.1453711986541748,0.8812747001647949
0.6179189453124998,-0.0764149850301444,0.5762912369579076,5.928338494101166,0.1063853204250335,-0.112529307603836,0.7943495512008667
0.62788623046875,-0.2073275031190365,1.0235121496275066,6.283247910559177,0.1875944286584854,-0.1438387632369995,0.6215141415596008
0.6378522949218706,-0.1026925319071859,1.34013742813766,6.525076306760311,0.2759369015693664,-0.244987815618515,0.4090481102466583
0.6478190917968725,0.1877361560076475,1.4571902746349572,6.620981735810637,0.3601868152618408,-0.4139014482498169,0.1893450617790222
0.6577854003906225,0.587836347996816,1.535961029011011,6.862070127299428,0.4238315522670746,-0.5835421681404114,-0.0004723574966192
0.6677512207031242,0.9954808178856968,1.606850090226531,7.268492288851737,0.4337283968925476,-0.6764870285987854,-0.1269741058349609
0.6777182617187485,1.3414957108788192,1.6112693679735064,7.714832034772634,0.3512819409370422,-0.6679753065109253,-0.1594069898128509
0.6876840820312502,1.5917534972511231,1.7624743671804666,7.918037562590837,0.1973786503076553,-0.5828694701194763,-0.1207413524389267
0.6976513671875004,1.7715991922698917,2.0048978066653014,7.953401136916876,0.024219412356615,-0.4151917695999145,-0.0391807928681373
0.7076171874999986,1.8984489178992807,2.0762956941857933,7.747228575986623,-0.1405301243066787,-0.2200720608234405,0.0842764303088188
0.7175834960937486,1.923449357512593,2.0786977868914605,7.37466367585063,-0.2675703763961792,0.0111941350623965,0.2309125661849975
0.7275502929687505,1.8223972132235764,2.157127180483937,7.0365504958927625,-0.3653019964694977,0.2767975926399231,0.359615683555603
0.7375163574218746,1.6682089604221284,2.36811035656631,6.294045198905468,-0.4173798263072967,0.5065035223960876,0.4550964832305908
0.7474831542968694,1.574751362915337,2.371648759825528,5.235592376539111,-0.3648354113101959,0.6675640344619751,0.5207239389419556
0.7574492187500006,1.6628382271692157,2.0774287898689505,4.319568833988905,-0.200749009847641,0.7480769753456116,0.5432955026626587
0.7674150390624987,1.747313038405776,1.9484841377869249,3.196522835680842,-0.0026652170345187,0.7551766633987427,0.5323051810264587
0.777382080078123,1.93632462117672,1.6377593154922128,2.209984325924516,0.2540615200996399,0.7113455533981323,0.5240365862846375
0.7873481445312507,2.3338357465207578,0.8204527522817253,1.204791969102621,0.5190820097923279,0.592580258846283,0.5197811722755432
0.797315185546875,2.471903323996067,-0.0356333311781287,0.116527361318469,0.7149688601493835,0.3832611441612243,0.4833371043205261
0.8072812499999991,2.349994415769726,-0.634295974420011,-1.149503797122836,0.800929844379425,0.0722340419888496,0.3860734105110168
0.8172473144531232,2.075391146561503,-1.2289596111536023,-2.414489245903492,0.7376576066017151,-0.2417233437299728,0.2406277656555175
0.8272141113281215,1.50032272939682,-1.4666197817593811,-3.903246625190973,0.5326938033103943,-0.4580838680267334,0.0443285703659057
0.8371801757812491,0.9399382327534258,-1.8075924428015944,-5.530141140058636,0.2522288262844085,-0.5111899375915527,-0.1368848979473114
0.8471469726562475,0.2857024631105363,-2.343387418720126,-7.3416159772515295,-0.0078520337119698,-0.4146983027458191,-0.253206193447113
0.8571130371093787,-0.6389688616018742,-2.664241713102162,-9.132376527717708,-0.2282707691192627,-0.1868540942668914,-0.3188908696174621
0.8670791015624992,-1.6237147157877685,-2.50170955645591,-10.63892733784914,-0.3952818810939789,0.1554603725671768,-0.3803491592407226
0.8770463867187495,-2.312358804858476,-2.216540031178296,-11.906374208307266,-0.4766455888748169,0.5574007630348206,-0.4483283758163452
0.8870122070312476,-2.421804391222447,-1.9233745387107133,-12.71001464973688,-0.4499314129352569,0.9824863076210022,-0.5066336989402771
0.8969792480468755,-1.871134356124699,-1.9093658871024848,-13.31414491073489,-0.3625298142433166,1.3034943342208862,-0.5125223398208618
0.9069450683593736,-1.0487698519375177,-1.8170692961990835,-13.685111728024484,-0.2891173958778381,1.419113278388977,-0.4526807963848114
0.9169111328124977,-0.6705702338501811,-1.3636428068876263,-13.655953438079356,-0.2977226078510284,1.3258388042449951,-0.3284898102283478
0.9268779296874996,-1.0189414807111024,-0.5202794268786907,-13.101347378706931,-0.376502126455307,1.180453896522522,-0.2233412861824035
0.9368442382812496,-1.6663750229932366,0.1257215983822941,-12.235976749551297,-0.4323789775371551,1.1131887435913086,-0.1827709525823593
0.9468112792968704,-2.060956670756638,0.3727814654961228,-11.294297956740856,-0.404220312833786,1.1319355964660645,-0.1920675188302993
0.956777343749998,-2.10323703873381,0.4796805822476744,-10.051433738875389,-0.2927629947662353,1.1790989637374878,-0.2028152495622635
0.9667431640624997,-1.8307301572829484,0.508212264727056,-8.527191204708814,-0.1585260927677154,1.209123969078064,-0.2216531187295913
0.976710205078124,-1.4170134548082949,0.4940349785536527,-6.608451924583315,-0.0252960734069347,1.2256014347076416,-0.2160442173480987
0.9866760253906257,-0.8465041622526943,0.516468636418879,-4.700515193501115,0.0896685943007469,1.1952629089355469,-0.1843440681695938
0.9966430664062482,-0.2605699946153909,0.5452575085297227,-2.8707115034133195,0.1778851747512817,1.0895872116088867,-0.1257756948471069
1.0066091308593723,0.1795596080863848,0.5920981701597571,-1.186156826737523,0.2460200041532516,0.9135327935218812,-0.04204723238945
1.0165751953124964,0.5133611719228327,0.704237525652349,0.200771578669548,0.3028242290019989,0.6497039794921875,0.0230299606919288
1.0265424804687466,0.5991642360884696,0.8319336389780044,1.3884183517038822,0.3858144581317901,0.3290565013885498,0.0664147213101387
1.0365083007812483,0.5383294262995943,1.0280556382760404,2.44386731607914,0.474490076303482,-0.0306280143558979,0.0795606449246406
1.046475341796869,0.3684337186153978,1.2675655284017324,3.4012592263281345,0.5656247735023499,-0.4126656651496887,0.066351905465126
1.0564411621093743,0.1552934010317549,1.380678989623487,4.379930071449279,0.6481021046638489,-0.7345393300056458,0.041470967233181
1.066406982421869,0.0650711321843788,1.5410867014616727,5.397690233421326,0.696892499923706,-0.9719060659408568,0.030263053253293
1.0763740234374968,0.0111538649653084,1.76210407256335,6.2512038360446684,0.7227188944816589,-1.1131583452224731,0.0351996980607509
1.0863403320312468,-0.0424291196649428,1.9884940766140815,7.005386711344123,0.7193851470947266,-1.1610918045043943,0.0401342697441577
1.0963073730468675,-0.0039738560840138,2.227896999233961,7.670112603080272,0.6806463599205017,-1.1291595697402954,0.0711709707975387
1.1062734374999987,0.0368353182458784,2.4392139373153445,8.151112158972024,0.6058900952339172,-1.0288149118423462,0.1263996064662933
1.116240234374997,0.1115416635940782,2.6860575313299893,8.576576290124654,0.5108017921447754,-0.8862434029579163,0.2044196724891662
1.1262062988281212,0.1395761371410451,2.991740267804265,8.673017725747822,0.4061017334461212,-0.7693591117858887,0.2854578197002411
1.1361721191406264,0.0630745880722999,3.2886835252448914,8.588308228972554,0.3236792087554931,-0.6889060735702515,0.3462183475494385
1.1461391601562472,0.0500874615315347,3.532639581124484,8.425842707821726,0.2803101539611816,-0.6283037066459656,0.3631011843681335
1.1561052246093748,0.0823082077872008,3.632871056680381,8.253573585537076,0.2895035743713379,-0.6070106029510498,0.3658877313137054
1.1660722656249956,0.0224564907515421,3.6321143930941817,7.886036158174276,0.3410333395004272,-0.6433757543563843,0.3461734056472778
1.1760380859374973,-0.0377358564153313,3.659948448698223,7.674408838969469,0.4339818954467773,-0.6772587895393372,0.3104395270347595
1.1860043945312473,-0.2027696936842054,3.5977804540768266,7.547289356487989,0.5254148840904236,-0.7020477056503296,0.2497498095035553
1.1959711914062456,-0.4440270850643515,3.4692046353071926,7.417898421943187,0.6102407574653625,-0.6966502666473389,0.144913837313652
1.2059372558593768,-0.5674802270580083,3.20962927775234,7.168328617835044,0.679310142993927,-0.7043808698654175,0.0081959310919046
1.2159040527343716,-0.4743482082437724,2.789595939476788,6.819968184629082,0.739778459072113,-0.7263825535774231,-0.1378499567508697
1.2258701171874957,-0.3782614312771707,2.2627923715263605,6.144590550497174,0.8195973634719849,-0.8454737663269043,-0.2882440090179443
1.235836181640627,-0.1855755439076572,1.6399918968498706,5.154215823578834,0.9409046173095704,-1.0321730375289917,-0.4545804262161255
1.2458032226562477,0.0893649213656783,0.7906324912965297,4.120916147169471,1.0569970607757568,-1.268561601638794,-0.6009390354156494
1.2557690429687458,0.250821703865379,0.0076373630106449,3.120433283212781,1.0959948301315308,-1.498355507850647,-0.710659384727478
1.265736328124996,0.0590691518232226,-0.483635165092349,2.4434604888439178,0.9698441624641418,-1.6123532056808472,-0.8359062075614929
1.2757021484374977,-0.3911953663259744,-0.7006470999449491,1.877473788279295,0.6413082480430603,-1.5960921049118042,-1.0180461406707764
1.2856682128906218,-0.5891577327936888,-1.2003782443135975,1.117680671882629,0.1545556485652923,-1.4562010765075684,-1.2035586833953855
1.2956350097656237,-0.4198816548451781,-2.299448323750496,-0.0497200164586305,-0.3753075003623962,-1.1799070835113523,-1.3400602340698242
1.3056013183593773,0.0524701919496059,-3.713696697759628,-1.4021703982025384,-0.8648824691772461,-0.8219850659370422,-1.3780746459960938
1.3155681152343721,-0.1453121417760849,-3.874546015885472,-2.776203666201233,-1.3221372365951538,-0.4910073578357696,-1.323760747909546
1.3255341796874962,-1.3117330252997577,-2.668271114748716,-4.183117459538579,-1.764366865158081,-0.2351473569869995,-1.2557427883148191
1.335499999999998,-1.833897535272688,-1.961811529132724,-5.703070187556743,-2.0906219482421875,0.0044455276802182,-1.20906662940979
1.3454685058593743,-1.380263832951337,-2.0208540852099657,-6.963424469405412,-2.213631153106689,0.2737755179405212,-1.124103546142578
1.3554343261718689,-0.225223225293681,-2.5184844579070806,-7.968449068444967,-2.102581739425659,0.5456407070159912,-0.8808653354644775
1.3654013671874967,1.2441861141189932,-3.410921373164653,-8.661696121266484,-1.8552367687225344,0.7229321599006653,-0.445660650730133
1.3753671874999984,2.1996020481199023,-3.921529008595645,-8.996112200272083,-1.6276098489761353,0.7550232410430908,0.0743386149406433
1.3853332519531225,2.296595418537408,-3.735559569999576,-8.954418838402628,-1.5229438543319702,0.6527588963508606,0.5290352702140808
1.3953000488281209,1.6789774610653518,-3.321689430528879,-8.837755868005752,-1.456350803375244,0.5087566375732422,0.8426192402839661
1.4052666015624968,0.9610069589409976,-3.192977710419893,-8.64694980303347,-1.2795430421829224,0.3687507808208465,1.0603870153427124
1.4152333984374987,0.3457069230224937,-3.1311200969219204,-8.315386190849543,-0.9887868762016296,0.2602901458740234,1.181904435157776
1.4251994628906264,-0.1811234598696231,-3.0299329280763865,-7.639508790501952,-0.5993466973304749,0.1816358119249344,1.2016112804412842
1.435165283203121,-0.6568880377173424,-2.8079300530686973,-6.746942111384868,-0.1894920617341995,0.088763803243637,1.134541153907776
1.4451323242187488,-0.919920988380164,-2.5384490953102707,-5.372587940868735,0.1796156615018844,0.0145423086360096,1.011191964149475
1.455098144531247,-0.7908915075588971,-2.380450490440428,-3.681656714898347,0.4814242720603943,-0.0083879129961133,0.8926796317100525
1.4650651855468677,-0.3557361496057361,-2.37097246799916,-1.91771110612154,0.7151771187782288,0.0054370891302824,0.8066856265068054
1.475031249999999,0.205971193139255,-2.3574425398185848,-0.2804974418133497,0.8687166571617126,0.036076970398426,0.7529919743537903
1.484997314453123,0.605951996532455,-2.155597778959572,1.1177625049471855,0.9337624907493592,0.0597431510686874,0.7337471842765808
1.4949643554687473,0.827901460852474,-1.8466563329502936,2.475375384020805,0.9316962361335754,0.1001081317663192,0.7224079966545105
1.5049304199218678,0.8648279005810617,-1.3970847655013203,3.536507654729485,0.8950769901275635,0.1458958685398101,0.6900615096092224
1.5148972167968733,0.7771310585580766,-0.8178340942159295,4.418174754169583,0.8286453485488892,0.193227544426918,0.6328948736190796
1.5248632812499974,0.7375130416579544,-0.3152688954651355,5.03409949785769,0.7487249970436096,0.2116912305355072,0.5561854243278503
1.5348300781249957,0.8838283691272139,0.0185202838137745,5.448507397466898,0.6553326845169067,0.2299845516681671,0.4880081117153168
1.5447963867187458,1.130539422803372,0.2959261893525719,5.951206743991374,0.5541054010391235,0.293727844953537,0.4370061755180359
1.5547622070312475,1.347520816387236,0.5343707883343101,6.272076528203487,0.4544280171394348,0.357332706451416,0.4231524765491485
1.5647294921874977,1.604689989583194,0.7477335530295968,6.396318993943929,0.373124897480011,0.410232663154602,0.4391860365867615
1.5746953124999958,1.8264412279173727,0.9923276145517824,6.505601790961623,0.3246089816093445,0.4488824009895324,0.474446177482605
1.5846623535156237,1.9914728001639248,1.358315766645968,6.480460335442423,0.2898850739002228,0.4345308840274811,0.5116921067237854
1.5946281738281218,2.152638344632089,1.6485373146161435,6.3633542974531645,0.2675244808197021,0.3622376620769501,0.5649992227554321
1.604594238281246,2.155034884379804,1.9347464120745657,6.18980624127388,0.2422047108411789,0.2210291177034378,0.6125856637954712
1.6145612792968738,1.936264999943972,2.229299559508264,5.828231521707773,0.2090988010168075,0.042209468781948,0.6559792160987854
1.6245273437499979,1.6140495002113282,2.464220660538971,5.576856714004278,0.2063709199428558,-0.0682299584150314,0.7053028345108032
1.634494628906248,1.114539889638871,2.5682877687349914,5.295860675019026,0.2281442433595657,-0.1017696037888526,0.7527365684509277
1.6444604492187462,0.606016805396974,2.688637026429176,4.840781157803535,0.2574366331100464,-0.0616778470575809,0.7869864702224731
1.654426269531248,0.1293459263592958,2.6988696666300296,4.50305668490231,0.3015704751014709,0.1059085875749588,0.8210508823394775
1.6643933105468687,-0.2646341022491455,2.4678312522515653,4.144587530136108,0.3680858314037323,0.3372033238410949,0.8296896815299988
1.6743593749999963,-0.4777563361868262,2.192170729075372,3.568094048604369,0.433172196149826,0.6122639179229736,0.7742219567298889
1.6843261718749982,-0.3316765710391104,1.782012888126075,3.0123031633615494,0.5120054483413696,0.875401496887207,0.6942429542541504
1.6942924804687483,0.2559280870936811,0.8967094780102371,2.075534938946366,0.5691390037536621,1.0055385828018188,0.6508392095565796
1.7042583007812464,0.878181010890007,0.2092950768649578,0.9915373409569262,0.5443702936172485,0.9536497592926024,0.6157001256942749
1.7142253417968707,1.0338235541529952,-0.1134343637391924,-0.1821381898701191,0.428037017583847,0.7835307717323303,0.5685350298881531
1.7241914062499983,1.1217611461292951,-0.4949214059993624,-1.285209321641922,0.2450285702943802,0.5713748335838318,0.4689679443836212
1.7341584472656226,0.9746520379338413,-0.8498410515904427,-2.4579274056136606,-0.0228313971310853,0.3684768378734588,0.2956036031246185
1.7441242675781208,0.6647546063739806,-1.112061370696127,-3.9430361992657184,-0.3762477934360504,0.1790446043014526,0.1163315922021865
1.7540905761718708,0.5908627831459045,-1.6547595501318573,-5.6716462907671925,-0.682353138923645,0.1356223672628402,-0.0082607716321945
1.7640573730468692,0.2891630518931895,-2.232829779461026,-7.074983979183435,-0.8473793864250183,0.3251765668392181,-0.0924427583813667
1.7740234374999968,-0.9590554595470429,-1.793995879125595,-8.541551738494634,-0.8497514724731445,0.5651734471321106,-0.1487238854169845
1.7839902343749987,-2.712022578191757,-0.313490779876709,-9.578906827774643,-0.69512540102005,0.8058278560638428,-0.1836310029029846
1.7939562988281228,-3.510150978201628,0.539682338745892,-10.232980392593143,-0.4564731121063232,0.9858782291412354,-0.275905430316925
1.803922119140621,-3.063984250760078,0.7392544784978031,-10.845707801544666,-0.1799629628658294,1.045577049255371,-0.4294489324092865
1.8138894042968676,-1.8953037517413496,0.190775085312128,-11.219154160690309,0.1149890720844268,0.9409091472625732,-0.523030161857605
1.8238552246093764,-0.8117294937305152,-0.6632321460470557,-11.213601202738284,0.3402067422866821,0.6759403347969055,-0.535428524017334
1.8338222656249972,-0.3351147287942469,-0.853503081229329,-10.574950247979164,0.3999167084693908,0.3452998995780945,-0.5083854794502258
1.8437883300781213,-0.5640288444951176,-0.6685784755110741,-9.524706451031566,0.2948262393474579,0.0814152657985687,-0.4467194378376007
1.853754394531249,-1.0184182605545968,-0.6042760992094874,-8.154809844446183,0.1372461318969726,0.0106447609141469,-0.3769431114196777
1.8637211914062473,-1.3300240304023028,-0.6392807770952582,-7.032709018033742,0.0037775575183331,0.0322706960141658,-0.3118855655193329
1.873687255859375,-1.411711695138365,-0.5618117529675364,-5.946733397969603,-0.0732829719781875,0.0816588327288627,-0.2534529864788055
1.8836542968749956,-1.3855889734968545,-0.3080491733446717,-4.705066280934214,-0.1099706813693046,0.1319291889667511,-0.2202042192220688
1.8936203613281197,-1.2860384659424424,-0.0119394441187381,-3.3479870703458783,-0.1258667409420013,0.1413127034902572,-0.2088400274515152
1.9035871582031216,-1.0393880564123392,0.2423509587705135,-1.982135355237126,-0.1386949121952057,0.1162614226341247,-0.2265351414680481
1.913553466796868,-0.587357405373454,0.3619046821728348,-0.6729249802827835,-0.1456025391817093,0.0336913131177425,-0.2591176331043243
1.923519287109377,-0.0431077404457144,0.2795627913117408,0.4475643192797899,-0.1235848516225814,-0.1208436638116836,-0.2863231599330902
1.9334863281249977,0.4509780367134138,0.2399728314623236,1.4885101265281435,-0.0755052790045738,-0.3158406615257263,-0.3022955060005188
1.9434521484374958,0.8769894630178808,0.1304611941248178,2.360909046885371,-0.0171503610908985,-0.561235249042511,-0.298532485961914
1.953419433593746,1.0950081637602298,0.1205500409632921,3.140274294236302,0.0451593771576881,-0.8105897903442383,-0.287660539150238
1.9633852539062477,1.1170388668477536,0.2934273582741618,3.935221141600608,0.1131546720862388,-1.042104959487915,-0.2844799160957336
1.9733515624999978,1.156803233416006,0.5030532745286822,4.7208407731711866,0.1442530006170272,-1.2113796472549438,-0.2850390672683716
1.9833183593749961,1.1203420731116085,0.6411401412263512,5.332939821091294,0.1450793743133545,-1.3401412963867188,-0.2651559114456177
1.9932844238281202,1.11042229825221,0.7607631304726005,5.89032352848351,0.1286357641220092,-1.3901987075805664,-0.223596379160881
2.003251464843748,1.1102472339462488,0.8035571470603347,6.38885757202208,0.0802644938230514,-1.378044605255127,-0.16133514046669
2.013217285156246,1.0375769153371452,0.8758940689966082,6.706627052131295,-0.0124359410256147,-1.3133389949798584,-0.0767204910516738
2.023183105468748,0.9085489688858388,1.086392091910541,7.040738595232367,-0.1503719836473465,-1.197485327720642,0.0291606690734624
2.033150146484372,0.6842793910551815,1.440060860657692,7.066740466973185,-0.3182693123817444,-1.080343246459961,0.1292131543159485
2.043115966796874,0.3001929068863391,1.6981187993869185,6.757317374926805,-0.4638936221599579,-0.975871741771698,0.2037108391523361
2.0530832519531206,-0.1288623806260526,1.8927637118697165,6.46977995147407,-0.5205109715461731,-0.8563011884689331,0.244727075099945
2.0630495605468706,-0.5167170582219958,2.142619931703806,6.08987754805684,-0.498983085155487,-0.7256952524185181,0.2553925216197967
2.0730153808593723,-0.7747557077288627,2.403356734253466,5.676878930723666,-0.4313388764858246,-0.5769645571708679,0.2435203790664672
2.0829824218749966,-0.9938909183457492,2.5818252957001326,5.305265632224082,-0.305599570274353,-0.4067888557910919,0.2113959938287735
2.0929482421874983,-1.0424521201580763,2.57646961388588,5.01419886560142,-0.106930024921894,-0.2101896852254867,0.1727326363325119
2.1029152832031226,-0.9541673952445388,2.38604202683717,4.556149977186322,0.159231349825859,-0.0829502269625663,0.1333418190479278
2.1128811035156208,-0.8406959143653512,2.0671818288818,3.965808587566018,0.5194664597511292,-0.0956971198320388,0.0642633065581321
2.1228476562499967,-0.6362133523486554,1.63647745898813,3.2927707945585247,0.931018590927124,-0.2796773314476013,-0.0795130357146263
2.1328144531249986,-0.3112446083851158,0.9486264199912549,2.652111422586441,1.3663289546966553,-0.6149665713310242,-0.2650336623191833
2.1427805175781227,0.0252731190748512,-0.0854077081725001,2.168708897206187,1.7145942449569702,-1.1217617988586426,-0.4374810755252838
2.152747314453121,-0.0542234653577208,-0.990761972670257,1.5576760172128676,1.8579338788986208,-1.7441840171813965,-0.6340031027793884
2.1627133789062487,-0.7970658853448926,-1.5200482973471283,1.1367524520993233,1.7835179567337036,-2.340382575988769,-0.9349970817565918
2.172679199218747,-2.074964883973449,-2.304791438344121,0.734167092230916,1.4708905220031738,-2.785975933074951,-1.3013348579406738
2.1826462402343747,-3.4496488709658384,-3.086191406393051,0.5790612861931324,0.8700904846191406,-2.929431438446045,-1.684403419494629
2.192612304687499,-4.468607887333631,-3.77374755409658,0.411746571445465,0.038404706865549,-2.658008098602295,-2.062394618988037
2.202579345703123,-4.897556061209738,-5.004824303534627,-0.1132236435979604,-0.856724202632904,-1.9962291717529297,-2.3363566398620605
2.212545410156247,-5.782130280268192,-5.30252890073657,-0.8442997840762138,-1.6709749698638916,-1.2120252847671509,-2.4337167739868164
2.222511474609375,-7.344956519851088,-3.4406396350800987,-1.9456494988828896,-2.4611496925354004,-0.5171504020690918,-2.4647223949432373
2.2324782714843767,-7.492571093350649,-1.1199924559563397,-3.629496904072165,-3.1050212383270264,0.2533952593803406,-2.544541835784912
2.2424443359374973,-6.153692140841484,0.0039215573579072,-4.98167314504981,-3.243976831436157,1.0752140283584597,-2.4924991130828857
2.2524111328124956,-3.3495009820401664,-0.483959574741125,-6.766942696884274,-2.837817668914795,1.672208309173584,-2.168628215789795
2.262377197265627,-0.0774259156383573,-1.4800135163396595,-8.282591005706786,-2.144473075866699,1.820576310157776,-1.60899019241333
2.2723432617187473,1.9938702166944744,-1.9155293781682847,-9.40136181091368,-1.4428237676620483,1.4418476819992063,-1.0137033462524414
2.2823105468749976,2.391568096782267,-1.7079533801808953,-9.53484322964251,-0.8730931878089905,0.7675851583480835,-0.6246699094772339
2.2922763671874957,1.827869214893877,-1.268815820723772,-8.83378696437478,-0.4592472910881042,0.039266001433134,-0.5277413725852966
2.30224340820312,1.5483677983805535,-1.4325941780388354,-7.975789494335651,-0.1613412946462631,-0.5884749293327332,-0.5564545392990112
2.3122092285156217,1.6015603132553398,-1.7975722763076425,-6.827535989534854,0.0579905025660991,-1.0393403768539429,-0.5564224720001221
2.322175292968746,1.806862374961376,-2.053007465317845,-5.683430836585163,0.259892463684082,-1.313819408416748,-0.5019557476043701
2.3321420898437477,1.9911628574319185,-2.076790784226358,-4.483834682559967,0.469203382730484,-1.3890507221221924,-0.4235584437847137
2.3421083984374977,2.0293843054071066,-1.894114834217727,-3.116588882744312,0.6748920679092407,-1.27759051322937,-0.3305366337299347
2.3520749511718737,2.0918739331983027,-1.5775272573694583,-1.6350222917437554,0.8499509692192078,-1.0614389181137085,-0.2318846881389618
2.362040771484372,2.252570398849994,-1.1208967113196848,-0.1697141771048307,0.9595179557800292,-0.8111984133720398,-0.1500374972820282
2.372007080078122,2.575861126598716,-0.5627472802519798,1.0943676008343697,0.9994531273841858,-0.597727358341217,-0.0798767805099487
2.3819738769531202,3.033122664028406,-0.0578904634326696,2.242423537236452,0.9931760430336,-0.3918505907058716,-0.006772743538022
2.391939941406248,3.4500995373427865,0.3257432354673743,3.378266473275423,0.9428278803825378,-0.1656807363033294,0.0839299634099006
2.4019067382812462,3.6465541295960544,0.8100596608221531,4.4157308681488034,0.8239915370941162,0.0637806728482246,0.1687154322862625
2.4118730468749963,3.7895623783439394,1.3749667494565248,5.166497213003039,0.6525377035140991,0.2572609186172485,0.2290377914905548
2.421838867187498,3.926652342958748,1.7853130987152457,5.7584378545135255,0.4748569130897522,0.4354508817195892,0.2738699913024902
2.4318059082031223,3.912384455892443,2.0997437897905704,6.167927002421021,0.3266432583332062,0.5936231017112732,0.2918639183044433
2.441771728515624,3.958712199564278,2.3561036924302576,6.335409474951028,0.2299401760101318,0.6988901495933533,0.2891349792480469
2.4517390136718706,4.000364352640509,2.5549860963523385,6.368149130514264,0.1699836701154709,0.7527225017547607,0.3067431151866913
2.4617048339843723,3.931849619340897,2.805532052016258,6.490539830908179,0.1408343166112899,0.8216989040374756,0.3451493680477142
2.4716711425781224,3.887442906859517,3.1015687160059806,6.631371612399816,0.1222629621624946,0.9169865846633912,0.3967809975147247
2.4816379394531207,3.869616742789745,3.276860108721256,6.560413577601313,0.1208706572651863,0.9560397267341614,0.4786620140075683
2.4916040039062484,3.743955350162089,3.463864735583961,6.344219388872385,0.1323851943016052,0.9403554797172546,0.5787132978439331
2.5015708007812467,3.6375682745859024,3.695027945385873,6.077464641207456,0.1582924276590347,0.8898009061813354,0.6750686168670654
2.5115368652343744,3.3914293217092752,3.810728500491381,5.72025337754786,0.1991974264383316,0.8009617328643799,0.7833142876625061
2.521502685546869,2.9504437962979075,3.8847950226992367,5.335559063678979,0.2418897598981857,0.7536855340003967,0.8663607239723206
2.5314699707031227,2.319042228145152,3.7971366129904975,4.901124859607219,0.3197919428348541,0.7576486468315125,0.9228807091712952
2.541436035156247,1.6434556274376808,3.5107872302785514,4.2917017528980965,0.4252901375293731,0.8064258098602295,0.952933669090271
2.5514028320312487,1.038295000478625,3.2207746488839386,3.636080374115705,0.5223682522773743,0.8545786738395691,0.950786292552948
2.5613688964843764,0.4898803430922329,2.934461798790097,2.8330460818856955,0.610032856464386,0.916227400302887,0.9159140586853028
2.571334960937497,0.101593265428394,2.41874631882608,1.9590087466716768,0.7169888019561768,1.002772092819214,0.8396057486534119
2.581301757812499,0.0032693770594894,1.416723824211955,0.9448732049375772,0.8674675226211548,1.0752214193344116,0.7395837903022766
2.5912678222656265,0.0276014889571815,0.1859095251023769,-0.2850777553409337,0.9948603510856628,1.0695292949676514,0.6227146983146667
2.601234863281247,-0.1737911442201584,-0.4693950428158044,-1.6027409013420342,1.0522444248199463,0.9512568116188048,0.4505769908428192
2.611200927734375,-0.6799499104835093,-0.6082505557984114,-2.8248528385579585,1.0629007816314695,0.8117750287055969,0.2258738577365875
2.621166992187499,-1.226015666656196,-0.7157511455744504,-3.745389474618434,1.0401315689086914,0.7257304191589355,-0.0303438082337379
2.6311340332031197,-1.270610595186055,-1.3595084835618734,-4.834105333301425,0.9591187238693236,0.6464199423789978,-0.2484030723571777
2.6410998535156214,-0.4848449792735278,-2.751940162560344,-5.879675293219089,0.7948871850967407,0.6207294464111328,-0.3704749047756195
2.6510668945312457,-0.1447089882511645,-3.431379639303684,-6.500214252704382,0.5335510969161987,0.6427748799324036,-0.4106937050819397
2.6610327148437474,-1.544647462683171,-2.061480110108852,-6.770537506505846,0.2003957480192184,0.6692339181900024,-0.3568131625652313
2.670998779296868,-2.837814903722703,-0.8213380106836556,-7.197045009231567,-0.1288364678621292,0.7732517123222351,-0.3296741843223572
2.6809660644531217,-3.201768335118889,-0.7925409552663564,-7.897381728053093,-0.299041211605072,0.9626492857933044,-0.3524335324764251
2.690932128906246,-3.2108798623353243,-0.9252204099625349,-8.796264166188239,-0.251028835773468,1.1146693229675293,-0.3480865955352783
2.7008991699218736,-2.370844165444374,-1.460264275252819,-9.565595510780811,-0.0291267968714237,1.2167190313339231,-0.325990617275238
2.7108649902343718,-1.1144250310875474,-2.185702117583156,-9.937581734246017,0.27373006939888,1.1833351850509644,-0.3005856573581695
2.7208308105468735,0.1157997776962816,-2.7340134607255457,-9.849667303949596,0.5435892343521118,1.0195773839950562,-0.2489216476678848
2.7307978515624978,0.9364910149089992,-3.1051708321511744,-9.28202289930582,0.7207176089286804,0.7136433124542236,-0.1382846236228943
2.740763916015622,0.9355809143267572,-2.7993659306019545,-8.238175525397061,0.7496954798698425,0.2835204601287842,0.0307328887283802
2.7507307128906238,0.5651634380156174,-2.317029573148489,-7.102779748603701,0.6239243745803833,-0.2463914602994918,0.1886952370405197
2.760696777343748,-0.0346572161549702,-2.015748286503553,-6.02525631506443,0.3933039605617523,-0.7063851356506348,0.2839418351650238
2.770663085937498,-0.6582978314500302,-1.7208423801094292,-4.836640404736995,0.1365555673837661,-0.9498056769371032,0.3344348073005676
2.780630126953122,-1.0640003004256635,-1.4538789581298828,-3.485768232095241,-0.1060043349862098,-0.9399466514587402,0.3684002161026001
2.790595947265624,-1.1701918534297495,-1.0197270781308412,-2.1116823571264742,-0.3173713982105255,-0.7564588189125061,0.4280932247638702
2.800562988281248,-0.838958130787313,-0.4853057286530733,-0.7974328189611435,-0.4868813455104828,-0.4750801622867584,0.5104786157608032
2.8105288085937463,-0.28843820821736,0.0507306548058986,0.4062286848068237,-0.5969333052635193,-0.1797366738319397,0.6070756316184998
2.820494873046874,0.4589704237068072,0.4327385060697793,1.511771759650111,-0.6543878316879272,0.0614415928721427,0.7196210622787476
2.8304616699218688,1.298383568252623,0.7548866396546363,2.389233808615804,-0.654863715171814,0.1687574982643127,0.8484756946563721
2.8404279785156223,1.997249922260642,1.1841367190867662,3.1880291481018066,-0.6151557564735413,0.1200642585754394,0.9794081449508668
2.8503950195312466,2.3049760011307896,1.615637792316079,3.869199978682399,-0.5408210754394531,-0.0932008475065231,1.0678081512451172
2.8603610839843743,2.2160713907532394,2.09124980995059,4.542852688717842,-0.4355380535125732,-0.4189765453338623,1.0882694721221924
2.870326904296869,1.8770448953427368,2.5444541809439656,5.239020597422122,-0.3040084540843963,-0.77454674243927,1.0590953826904297
2.8802939453124967,1.3501347982779144,2.973343025848269,5.9986745976090425,-0.1854482591152191,-1.066792368888855,0.9692214727401732
2.8902597656249984,0.936600174371898,3.26070275464654,6.696888332927227,-0.106274276971817,-1.2713230848312378,0.8438836932182312
2.9002268066406227,0.5898676346287131,3.348422539153695,7.097582764482498,-0.0715450569987297,-1.3701969385147097,0.7461987137794495
2.910192871093747,0.2757566770270466,3.299022256168723,7.46112323116362,-0.0456289425492286,-1.328826665878296,0.6836081743240356
2.920158935546871,0.0453371251992881,3.150212335404753,7.666794272312521,-0.0230578556656837,-1.1743297576904297,0.6570479273796082
2.9301259765624987,0.0092800156511366,3.059407444363832,7.828081981855631,-0.0081765465438365,-0.9311491847038268,0.6712207198143005
2.9400920410156264,0.1159555527798831,3.0397014578968284,7.945338241970538,-0.001893616747111,-0.6537982821464539,0.7245380282402039
2.950058837890621,0.3919808176152408,3.061564914658665,7.932294051480293,-0.0017446745187044,-0.4124163389205932,0.8128233551979065
2.960024902343749,0.6383516795516013,3.170474786710739,7.657814262521266,0.0216562561690807,-0.2486042380332946,0.8960915803909302
2.969990966796873,0.791706258007884,3.243123258814216,7.425337047511339,0.0686765983700752,-0.1235182732343673,0.967012882232666
2.9799577636718677,0.8294022208042442,3.292373319673538,7.191673837587237,0.1112573444843292,-0.0424079708755016,1.0089211463928225
2.989923828124999,0.7811731735557317,3.2792765222132205,6.6382981967926025,0.1438371986150741,-0.0235246047377586,0.9825384616851808
2.999889892578123,0.6223840028300881,3.016650252655148,6.016856150987744,0.221480056643486,-0.087425023317337,0.8884625434875488
3.0098569335937473,0.3177697723701596,2.539436645042896,5.155035323268175,0.3254886269569397,-0.2218120247125625,0.7483837008476257
3.019822998046868,0.0747758395209908,2.0922189472436905,4.325248048669099,0.4366580247879028,-0.3984469771385193,0.5825846195220947
3.0297897949218733,-0.0626112083442509,1.3868091629415749,3.333246597331762,0.4993533790111542,-0.633915364742279,0.426002025604248
3.0397558593749974,-0.2394010229237377,0.4640069200366735,2.25497848290503,0.48755744099617,-0.8570411205291748,0.3197879791259765
3.0497219238281215,-0.6291174027383327,-0.4922293904364109,1.3022364442884922,0.3649586737155914,-1.025598406791687,0.2430533021688461
3.0596889648437458,-1.2251169642508029,-1.4300374792933463,0.1881494129836559,0.0748064592480659,-1.10666823387146,0.1516160666942596
3.0696547851562475,-2.31638396872133,-2.127306042715907,-1.0020914681971071,-0.3828460276126861,-1.0466071367263794,-0.0008883504197001
3.079621826171868,-4.028082380649448,-2.227262792983651,-2.366099601265788,-0.9170311093330384,-0.7989859580993652,-0.3048714101314544
3.089587646484377,-5.518906044816971,-2.0134394250392917,-3.726498896187544,-1.3990442752838137,-0.2565404176712036,-0.7589623928070068
3.09955395507812,-5.98333089800477,-2.3499638745009896,-5.033200503191352,-1.6812735795974731,0.5276777148246765,-1.2060695886611938
3.109520751953122,-5.630718652573227,-3.251658447447419,-6.231161749491095,-1.707195281982422,1.3360391855239868,-1.5244183540344238
3.1194870605468683,-5.275618097457289,-3.053537383286655,-7.057132680672407,-1.5576553344726562,1.887738347053528,-1.706661343574524
3.129454101562496,-5.210104299539327,-1.3816910892754792,-7.363079036518931,-1.480547308921814,2.0819218158721924,-1.8321105241775515
3.139419921874998,-4.33850675869286,-0.1750207590803504,-7.238053311446309,-1.4796069860458374,2.1126186847686768,-1.9950937032699585
3.149385742187496,-2.876797545328736,-0.3284180076345801,-7.4542580215692515,-1.3281015157699585,1.9541932344436648,-2.0954151153564453
3.159352783203124,-1.2219064777716993,-0.8566068924635648,-7.817192923572659,-0.9826379418373108,1.615476369857788,-2.016292095184326
3.169318603515622,0.7278270755544305,-1.7869874616682528,-7.675138906809687,-0.5909683108329773,1.1589263677597046,-1.733264684677124
3.1792858886718687,2.316726790809631,-2.981773292802274,-7.414377262079715,-0.3165077269077301,0.6206138730049133,-1.2926112413406372
3.1892519531249963,2.6416692312881347,-3.71196914331466,-6.930366833934188,-0.1890322566032409,0.1512157022953033,-0.7899293303489685
3.199218017578124,1.9362885269500316,-4.04053620403111,-6.349932505822181,-0.1264309138059616,-0.1690973341464996,-0.2928857207298279
3.2091850585937483,0.8159512030787766,-4.108477229095995,-5.939135782447457,0.0278861876577138,-0.346112847328186,0.1307579427957534
3.2191508789062464,-0.1674436018243432,-3.836640940383076,-5.6303404669106,0.3239729702472687,-0.5389480590820312,0.4050566256046295
3.2291179199218707,-0.4989847829807549,-3.741367964017391,-5.59307778096497,0.6799327731132507,-0.8665325045585632,0.4942871034145355
3.2390837402343724,-0.5442027387797832,-3.836273860636353,-5.133496276155114,1.0050173997879028,-1.2357099056243896,0.4541721642017364
3.2490498046874965,-0.6964305051632225,-3.81496277706027,-3.969678122475743,1.270702838897705,-1.531410813331604,0.3716695308685303
3.259016845703121,-0.8093136647604405,-3.5765979653164743,-2.376789337584376,1.4357740879058838,-1.6665984392166138,0.305373877286911
3.268983154296871,-0.7468009483546019,-3.17811916398406,-0.5955763676643371,1.4677910804748535,-1.6397743225097656,0.2599872052669525
3.2789489746093725,-0.4927016841232776,-2.629491594499349,1.0651122802555562,1.3866794109344482,-1.4985698461532593,0.2373247742652893
3.288916015624997,-0.1171354102142155,-1.9865514181137085,2.494647655245662,1.229803442955017,-1.2722474336624146,0.2568288147449493
3.2988818359374985,0.2885534686274826,-1.2837708132714032,3.6959085276126857,1.019122838973999,-0.9929466247558594,0.312480092048645
3.308848876953123,0.8046617473013699,-0.4755377833545208,4.544290028044581,0.7974710464477539,-0.7490984201431274,0.3827176690101623
3.318814697265621,1.3373771696440877,0.3936848450541496,5.181683091697097,0.5798391103744507,-0.5822145938873291,0.4338069558143616
3.3287810058593745,1.7989190147414802,1.1193085653454065,5.654598709854484,0.3954572975635528,-0.4927773177623749,0.4731737673282623
3.338748046874999,2.1256191125422714,1.7526386173427104,5.915224745506048,0.2422781437635421,-0.4962151944637298,0.5047346353530884
3.3487150878906267,2.433786651569605,2.4064596687048674,6.3443772097826,0.1071205586194992,-0.4646618962287903,0.5249424576759338
3.3586818847656215,2.536686177290976,2.87005742341876,6.440943148568272,-0.0069657983258366,-0.4725371301174164,0.5772919654846191
3.3686479492187456,2.5598294447302816,3.1721763299316166,6.3594052675664425,-0.045193612575531,-0.4589515626430511,0.6523445248603821
3.378614013671873,2.525340607412159,3.3185645765066143,6.465774807485937,-0.0279989130795002,-0.3943749666213989,0.7402330636978149
3.388580810546868,2.3088336994722485,3.4800410866200924,6.527587412798404,0.002646769862622,-0.3098069131374359,0.8067883849143982
3.3985471191406216,1.8969225851148368,3.802493756109476,6.475254583492875,0.0212055407464504,-0.2023885697126388,0.8398712277412415
3.408514160156246,1.657775975343585,3.948219739383459,6.424859444251656,0.0392411276698112,-0.0944861844182014,0.8366866707801819
3.4184799804687476,1.522946941398084,3.9135219354897735,6.241270471051335,0.0560914799571037,0.0165463294833898,0.8210786581039429
3.428446044921868,1.3115464166864752,3.93316771620214,6.078306937250495,0.0678012743592262,0.1190533488988876,0.7973005175590515
3.438413085937496,1.0579203229248524,3.8942829820126295,5.709905002012849,0.0849182158708572,0.1673993170261383,0.7656533718109131
3.4483789062499977,0.9004346360132097,3.735350311163068,5.361217821070552,0.1043396517634391,0.1890818625688552,0.7137225866317749
3.4583449707031217,0.8482368312641978,3.5077187826186416,5.083866276067495,0.1181537359952926,0.21491639316082,0.6426315903663635
3.468312011718746,0.8467907241091132,3.1395898191034792,4.794543138241767,0.1115260943770408,0.2582168579101562,0.576924741268158
3.4782778320312477,1.022170379629731,2.647611188557744,4.394184806773066,0.0756261497735977,0.2985027432441711,0.513566255569458
3.488245117187498,1.2950412720873952,2.058112679502368,3.5371886227309703,0.0004924819804728,0.294241726398468,0.4691210985183716
3.498211181640622,1.586387147912383,1.2604992432773112,2.454882631090283,-0.0362591408193111,0.264169842004776,0.4669652879238128
3.50817700195312,1.9003174882501364,0.3893377557605504,1.358031981268525,-0.023433793336153,0.2107635140419006,0.4855428040027618
3.518144042968748,2.0836574551254508,-0.5799222869366407,0.1322983464241027,0.0057645724155008,0.183125764131546,0.50888592004776
3.5281101074218686,1.8221996448248623,-1.7958336159467696,-1.2819541192382573,-0.0067237205803394,0.0779713168740272,0.5138350129127502
3.538076904296874,1.0156734188258647,-2.6790871077954765,-2.577266901743412,-0.121391974389553,-0.0159895364195108,0.4539458453655243
3.548042968749998,0.2505456634029745,-3.110803869602084,-3.7692151713639497,-0.3558720350265503,-0.045607928186655,0.2992132008075714
3.5580090332031222,-0.4759834812954068,-3.4793209556519984,-5.21597523739934,-0.5779828429222107,0.1136730685830116,0.1101580560207367
3.5679760742187465,-1.139598781441152,-4.011452732887864,-6.213916600179672,-0.6801651120185852,0.5036939382553101,-0.0361205674707889
3.5779421386718706,-2.170557447682321,-3.624896132278442,-7.176131400540471,-0.6814863085746765,0.9084092378616332,-0.1391284465789795
3.5879082031249983,-3.0927851055696607,-2.240416289067268,-8.303630871126055,-0.6896175742149353,1.174379587173462,-0.2813040018081665
3.5978749999999966,-3.327415114699304,-1.0958970023587344,-9.693526894167064,-0.6883879899978638,1.2897794246673584,-0.5003031492233276
3.6078410644531207,-2.953469866120815,-0.6029580023482441,-11.120551163119076,-0.5406041741371155,1.283204436302185,-0.7171780467033386
3.6178078613281226,-1.91781909654066,-0.7344435710847378,-11.965596797126532,-0.1805368214845657,1.250334620475769,-0.824745237827301
3.6277739257812467,-0.2764947820432484,-1.4765142760470509,-12.13568448371887,0.279045045375824,1.135482668876648,-0.7971309423446655
3.6377399902343743,1.1202407316289842,-2.316984857223928,-12.012482466942071,0.6532082557678223,0.9085707068443298,-0.6871488094329834
3.647707275390621,1.7684256768003106,-2.5484207464873787,-11.32834518777132,0.8471246957778931,0.5953773260116577,-0.5439115166664124
3.6576730957031227,1.5423003150351344,-2.1049936731427907,-10.097690463137626,0.8766927123069763,0.2728584110736847,-0.3806909322738647
3.667640136718747,0.8778497331090271,-1.463962545248866,-8.696554668679832,0.7844119668006897,-0.0185445416718721,-0.2190479189157486
3.6776059570312487,0.2526590022951364,-0.9227771084636448,-7.385389652526378,0.5988498330116272,-0.2401757389307022,-0.0985840931534767
3.687572021484373,-0.276815246169269,-0.3809270702898502,-6.120547996130585,0.4092419743537903,-0.359063982963562,-0.0210534632205963
3.6975388183593747,-0.6436508088730275,-0.013237667235732,-4.818673955413699,0.3038449883460998,-0.3235917389392853,0.0264053996652364
3.707505126953121,-0.8405233342774212,0.360604413229227,-3.4458903952151534,0.2555174529552459,-0.1584818959236145,0.0504107922315597
3.7174709472656264,-0.9731343999125064,0.7825041298985481,-2.1567016485482453,0.2429566383361816,0.0339645110070705,0.056533932685852
3.727438232421873,-0.8080299085602164,1.1766326270669698,-0.8001987765431403,0.233073741197586,0.213207721710205,0.0210610907524824
3.737404052734375,-0.3225952928304672,1.4780910238444804,0.4501625190794467,0.2396445572376251,0.2893280386924743,-0.0003403378650546
3.7473710937499956,0.3489043308243155,1.829964433607459,1.6882003397017715,0.2210180610418319,0.275334745645523,0.0320311747491359
3.7573369140624973,1.1910625728271902,2.0465432377398014,2.904513819772005,0.173641487956047,0.2076936662197113,0.1423449069261551
3.7673032226562473,2.0348093991957605,2.1593571314930915,4.003228509899974,0.071054458618164,0.1068905740976333,0.2897222936153412
3.7772700195312456,2.652602420973777,2.2955232592612504,4.967140761828422,-0.0759400427341461,-0.0514524616301059,0.4780431985855102
3.787236083984377,2.928914101535081,2.4521558364748954,5.708126301902532,-0.2458875179290771,-0.261946827173233,0.6811481714248657
3.797201904296868,2.984574906219542,2.501696404713392,6.441309643793105,-0.4018097519874573,-0.4683197140693664,0.8567423820495605
3.8071691894531217,2.7905905034720897,2.4697955380618573,6.936435340192913,-0.5398268103599548,-0.6610425114631653,0.9848743081092834
3.817135009765627,2.322811371420324,2.505073187670112,7.226066521054506,-0.6549842953681946,-0.827075183391571,1.0574326515197754
3.8271020507812477,1.673622363772988,2.5517016678541897,7.408109433856606,-0.7481726408004761,-0.920009195804596,1.074118971824646
3.8370681152343717,1.093805583037436,2.506467272377014,7.6211366829872125,-0.8333703875541687,-0.9069818258285522,1.017782211303711
3.847034179687496,0.6304349150776862,2.41480050380975,7.667378209680319,-0.9302163124084472,-0.8235825300216675,0.9353501200675964
3.8570009765624977,0.1981479521676898,2.300846500110626,7.58766345245242,-1.033150553703308,-0.6812927722930908,0.8188634514808655
3.866967041015622,-0.0514858570873737,2.095414528414607,7.6186764303535215,-1.1531038284301758,-0.4649405777454376,0.6824682950973511
3.8769338378906237,-0.138963357271254,1.9486425432190295,7.428385329166054,-1.2834336757659912,-0.2683832943439483,0.5582064986228943
3.886899902343748,-0.0712903354927897,1.899959760853648,7.1094392064929,-1.3858764171600342,-0.1125141084194183,0.4572161734104156
3.8968659667968684,-0.0307969970628619,1.7909814997404814,6.763222215056419,-1.4468978643417358,-0.0116111971437931,0.3571100831031799
3.906833007812496,-0.039051322928071,1.8388056194499132,6.247821207869053,-1.4462809562683103,0.0065829120576381,0.2186106592416763
3.916799072265624,-0.1315025198712945,1.9452111074656249,5.633243202614784,-1.3624290227890017,-0.0213888026773929,0.031436763703823
3.926765136718748,-0.2534974989458918,1.977876236487925,4.964889768031239,-1.1746519804000854,-0.1209694221615791,-0.1886198967695236
3.9367319335937463,-0.3269806683078408,1.8998624379590152,4.228476942700147,-0.8663619160652161,-0.2913680672645569,-0.4095306992530823
3.946697998046874,-0.3682607732012867,1.6969997322291137,3.6191193024426696,-0.4669170379638672,-0.5448657274246216,-0.6331589221954346
3.9566647949218687,-0.4549614437937736,1.233283904093504,3.008337766861916,-0.0425465852022171,-0.830409586429596,-0.846362829208374
3.9666308593749964,-0.3605792787879705,0.6575327653616666,2.724063144597411,0.3120588660240173,-1.122961163520813,-1.030125617980957
3.9765971679687464,-0.254683201599121,-0.0863131325796246,2.1857471257686614,0.5455336570739746,-1.450236439704895,-1.1659860610961914
3.9865642089843742,-0.3146647920921445,-1.0606342580586672,1.701517501914501,0.601671040058136,-1.75566565990448,-1.2503018379211426
3.996530029296869,-0.8319608192458748,-2.017035988226533,1.1824562186539171,0.3936187922954559,-1.9576380252838133,-1.3049591779708862
4.0064960937499965,-1.881028558151424,-2.609316821476817,0.6016092180877923,-0.0996884703636169,-1.9377925395965576,-1.3835819959640503
4.016462890624998,-3.03053235527426,-3.0836341231256723,-0.3122878338277339,-0.7372627854347229,-1.651207685470581,-1.4882516860961914
4.0264289550781225,-4.060516623525321,-3.949842079888284,-1.4262754964113236,-1.3401451110839844,-1.1767503023147583,-1.5527876615524292
4.036395996093747,-5.2443268871366975,-4.261910133485496,-3.0455589517533777,-1.8540472984313965,-0.6728330850601196,-1.5764751434326172
4.046362060546871,-6.927039735338092,-2.9523192347809672,-4.511866598823667,-2.233898162841797,-0.2275153398513794,-1.5906744003295898
4.056327880859373,-8.127459480705857,-1.1149550463110207,-5.903565871894359,-2.50437593460083,0.2155422568321228,-1.6469128131866455
4.066295166015623,-8.030393191182613,-0.2147235316544771,-7.1753779518246645,-2.5560526847839355,0.728870153427124,-1.7102054357528689
4.076260986328121,-6.661701868733763,-0.0812979347661137,-8.450762045022845,-2.2825324535369877,1.1854698657989502,-1.650797724723816
4.086228027343749,-4.316285574534535,-0.2920695139244199,-9.360573288929462,-1.6998361349105835,1.4833152294158936,-1.3812295198440552
4.096194091796873,-1.7533996648430823,-1.123669683164358,-10.02640451155901,-0.962389349937439,1.458693504333496,-0.9411141872406006
4.106159912109375,0.2381625671699643,-1.8785352800309656,-10.272186613821985,-0.264200747013092,1.148125410079956,-0.5092388391494751
4.116126953124999,1.1661536108896136,-2.194068671651185,-9.893051687645912,0.2561146020889282,0.6645092368125916,-0.2098883539438247
4.126093017578123,1.2693386755540963,-2.384063127979636,-9.236710762417315,0.594912052154541,0.1411554813385009,-0.0592260621488094
4.136058837890621,1.0266437256515026,-2.4034268768802285,-8.385075228625535,0.8144558668136597,-0.311300128698349,-0.0096971252933144
4.146026123046868,0.8169105496302247,-2.411961188730597,-7.388245041957497,0.9521926641464232,-0.6294599771499634,0.0246400758624076
4.155992187499999,0.7364099027216434,-2.5325448397025463,-6.375483126664161,1.0525994300842283,-0.8082249164581299,0.0928063467144966
4.165958984374997,0.731839526066184,-2.7481670737624166,-5.160554378950596,1.1005277633666992,-0.7709117531776428,0.1895021200180053
4.175925048828121,0.8011129687786102,-2.8159213440835478,-3.642332420247793,1.0873081684112549,-0.515515148639679,0.3063482940196991
4.185891113281249,1.0505573929414151,-2.68446266335398,-2.0912492254287005,1.0240471363067627,-0.1039603054523468,0.4305648505687713
4.195858154296873,1.5163871444910764,-2.5006287754818795,-0.8443453767836093,0.9324122667312622,0.2939806878566742,0.5439902544021606
4.205823974609375,1.968927790878713,-2.050131617620587,0.1498579685121774,0.8488258123397827,0.6082344651222229,0.6117724776268005
4.215790039062496,2.3950863340362907,-1.503248553715646,1.07308749691844,0.8094530701637268,0.8327813148498535,0.6358232498168945
4.22575708007812,2.799480204631388,-0.9211322638660668,1.9782091217041011,0.8110955357551575,0.9585485458374025,0.6337271928787231
4.2357231445312475,3.135734604980051,-0.2928957356154918,2.7455899167507885,0.8367699980735779,0.98967182636261,0.5858118534088135
4.245689941406246,3.487021154765785,0.2791840211272239,3.637786593511701,0.876438558101654,0.9742425084114076,0.5107377767562866
4.255656249999996,3.7657685380414128,0.7912953391194343,4.446711112824082,0.9122604727745056,0.9201955199241638,0.4477488994598388
4.265622070312498,3.939651817524433,1.227548575311899,5.099949395862222,0.9456046223640442,0.8413113355636597,0.3954999446868896
4.275589111328122,4.097795968344808,1.5980165031686424,5.661448137357831,0.9741864800453186,0.737653911113739,0.3546529114246368
4.285554931640624,4.091220389346778,1.8605536331385373,6.014771161407232,1.0023767948150637,0.6170666217803955,0.3472940325736999
4.295520996093748,3.8436923201993114,2.069908331236243,6.436721146959066,1.0080024003982544,0.5249055624008179,0.367688775062561
4.305488037109372,3.640323126251996,2.1584397243872284,6.817927034190297,0.9486689567565918,0.5031592845916748,0.411397248506546
4.315454101562496,3.298287804414332,2.287330015933513,7.165963057747483,0.8147433400154114,0.5693380236625671,0.4691625535488128
4.325420898437498,2.869076595687866,2.4872531610801816,7.386205060562491,0.6313225030899048,0.6648586392402649,0.5336199998855591
4.335387207031248,2.540065298335254,2.61514918089211,7.343931268456577,0.4283545017242431,0.7870620489120483,0.597218930721283
4.345353027343746,2.072565129355341,2.776035616157949,7.098851176983118,0.2453072965145111,0.9025429487228394,0.6566433310508728
4.355314453124999,1.511669176058471,3.045765287980437,6.657315031951666,0.1292805522680282,0.989485800266266,0.6833305954933167
4.365280273437497,1.0379589003920555,3.3520150106877087,6.136493753281235,0.0901226177811622,1.046697020530701,0.6842736005783081
4.375246093749999,0.7322948686182499,3.547754732669889,5.417687896311283,0.0988743007183075,1.0655732154846191,0.6870701909065247
4.3852131347656265,0.6113908996507526,3.5405154290661214,4.689498709446191,0.1865481436252594,1.0959416627883911,0.717768669128418
4.395179199218747,0.582721270005405,3.209550951819122,4.054881540247798,0.3272482752799988,1.151158332824707,0.7505465745925903
4.405146240234375,0.7856177318744361,2.545188632698357,3.2439737381637093,0.4797846674919128,1.180181622505188,0.7525805234909058
4.415112304687499,1.1806912548080086,1.8346099213257432,2.378693709900975,0.6039204001426697,1.156212329864502,0.7449787855148315
4.425078369140627,1.5528285771816968,1.1866419799059629,1.4933452915996313,0.6503663659095764,1.0295836925506592,0.7784746289253235
4.435045410156247,1.904283615402132,0.5082376914292573,0.3403378702700138,0.5936663150787354,0.7829955220222473,0.8283827900886536
4.445011230468749,1.9545681338757277,0.008403671208024,-1.2536819644778967,0.4766612648963928,0.4613843560218811,0.8876104950904846
4.454977294921873,1.5067909024976194,-0.3558662787914275,-2.758648135766387,0.3318113684654236,0.238951563835144,0.9592005610466005
4.464944091796868,0.8711844300009309,-1.211147767870128,-4.387614196211099,0.1827730238437652,0.152438148856163,1.0250076055526731
4.4749101562499956,0.2262719306290149,-2.668533565077185,-6.321538185986876,0.085638478398323,0.210955262184143,1.0430841445922852
4.484877197265627,-1.200709375964105,-3.204239985929429,-7.978054516658187,0.0225541926920413,0.3835213482379913,0.9909620881080629
4.494843505859377,-4.117477404892444,-1.5694918349519371,-8.980273995149135,-0.0679773092269897,0.5551255345344543,0.873712420463562
4.504809326171868,-6.23600275978148,0.0304845701128244,-9.824203192347287,-0.1796235293149948,0.8149479031562805,0.6288250684738159
4.514776367187496,-6.914657808148861,0.3561073940709233,-10.402808551466464,-0.1359982937574386,1.2098709344863892,0.3054493963718414
4.524742187499998,-6.540995175904035,0.3358879051238298,-10.870798988181352,0.1714008599519729,1.5981286764144895,0.0521329157054424
4.534708251953122,-4.701172196105122,-0.2751882294893265,-10.991733060026167,0.6604949235916138,1.8070638179779053,-0.0373863130807876
4.54467504882812,-2.180589012353122,-1.37028502138108,-10.667925468796492,1.0927958488464355,1.7442964315414429,-0.0248422585427761
4.554641357421874,-0.1997794988922774,-2.151767699277401,-9.723025960373878,1.3499480485916138,1.4527828693389893,0.0067505552433431
4.564607177734372,0.6129124101296067,-2.275917810559273,-8.39609054363668,1.3822866678237915,0.9670872688293456,0.0255552902817726
4.574574462890622,0.7378956842999905,-1.9480729266375305,-7.095306051722169,1.2103785276412964,0.3984619379043579,0.0034031167160719
4.58454028320312,0.5904227112282067,-1.889030370560288,-5.564941235283017,0.9484643936157228,-0.0773697718977928,-0.052298080176115
4.594507324218748,0.3004865560706705,-1.981993900939822,-4.2921091646552085,0.6570035219192505,-0.4448210299015045,-0.1070092618465423
4.604473144531246,-0.229019914162904,-1.7572662771433591,-3.0932454165577887,0.3795725107192993,-0.6092750430107117,-0.1761096566915512
4.614439453124996,-0.7863258801437913,-1.461370190668106,-1.820060879230499,0.1249364912509918,-0.5660668611526489,-0.2349719107151031
4.624406249999998,-1.1326577301315963,-1.1582418148517608,-0.5657435394585132,-0.1287055015563964,-0.3785234689712524,-0.2700446844100952
4.634372314453122,-1.1957399169884622,-0.6889186682283878,0.4921621704190969,-0.3792820572853088,-0.1659560650587082,-0.2878535091876983
4.644338134765624,-0.93834058829844,-0.1929606126576662,1.3992857826769352,-0.6023884415626526,0.0217472892254591,-0.2850025594234466
4.654305419921874,-0.5660793472841382,0.3086813337683677,2.149066039103269,-0.786379873752594,0.1443701535463333,-0.2715176343917846
4.664271240234372,-0.0715428489491343,0.7910252900063991,2.801149306887388,-0.9210528135299684,0.1909955888986587,-0.2496109455823898
4.6742382812499965,0.4165469574645161,1.0683177982985972,3.2009523425608872,-1.0011143684387207,0.1449772417545318,-0.1905154138803482
4.684204345703121,0.704187987422198,1.4422545713096857,3.655073243877292,-1.009206771850586,0.0453705564141273,-0.127263069152832
4.694170410156248,0.8657429695993661,1.8316414269089696,4.073416729369759,-0.9888899922370912,-0.0832555964589119,-0.0655165985226631
4.704137207031247,0.9432062946386636,2.1864035438507794,4.473172418770194,-0.9517214298248292,-0.2161426842212677,-0.0030628512613475
4.714103271484374,0.8879271827481686,2.4654309131115677,4.86154863602221,-0.90817129611969,-0.3379562199115753,0.0588484518229961
4.724069091796869,0.7941746939480304,2.6227108483180404,5.117808293157816,-0.8705324530601501,-0.4414845705032348,0.1119718998670578
4.734036376953123,0.7072972054839134,2.7628715986803174,5.318299885842204,-0.8215377330780029,-0.5204113721847534,0.1650204807519912
4.744002197265621,0.6171938868410884,2.837654452463984,5.430120676904917,-0.7494375705718994,-0.5710384845733643,0.2275159507989883
4.753968505859374,0.5994514555320143,2.90734845867604,5.562387459146976,-0.6564341187477112,-0.6027165055274963,0.2816223502159118
4.763935302734373,0.4748132684722542,3.040243894210457,5.630474322423338,-0.5517745018005371,-0.6386953592300415,0.3266685605049133
4.773901367187497,0.2497236794956028,3.1349267957285045,5.615062233757972,-0.4361038208007812,-0.6617743372917175,0.3608318567276001
4.783868164062499,0.0632796091251075,3.2417809042945502,5.716123145875335,-0.3022978901863098,-0.6604804396629333,0.3949604034423828
4.793834228515623,-0.2822247039973735,3.339498935724795,5.696531725698709,-0.175075501203537,-0.6468018889427185,0.4108970463275909
4.803800048828121,-0.6097000239543616,3.337657107250392,5.743991396009922,-0.0685733184218406,-0.6006156802177429,0.3813230395317077
4.813767333984375,-0.938146527031064,3.230334796650708,5.662701352289319,-0.011759040877223,-0.5614091753959656,0.3168846666812897
4.823733398437499,-1.1129622650586068,2.926385167579353,5.536592508155107,-0.0003620414063334,-0.5042905807495117,0.2450359761714935
4.8336994628906265,-1.07528339952752,2.207017000551521,5.386429419216514,-0.034270741045475,-0.4101803004741668,0.1680290699005127
4.843666259765621,-0.9815550222553312,1.5454939965099097,5.216900535550713,-0.0918568968772888,-0.2944152057170868,0.0611579790711402
4.853632324218749,-0.9297351109080016,0.7768520954862237,4.722434179842471,-0.1743150204420089,-0.2571360170841217,-0.0692479684948921
4.863598144531247,-0.9619596565559506,0.1011550201416015,4.000097810658812,-0.2395890206098556,-0.2746671736240387,-0.2825726270675659
4.873565185546868,-0.9032403410837052,-0.4336559131756424,3.333444165730476,-0.2396558672189712,-0.3152036666870117,-0.6013245582580566
4.883531249999999,-0.6080689156211913,-1.281419281709194,2.4071879829794165,-0.1696729511022567,-0.4522204995155334,-0.9675437211990356
4.893497314453123,-0.280527690821141,-2.22162303353101,1.0456582227230071,-0.1023261398077011,-0.7792348265647888,-1.3588443994522097
4.903464355468747,-0.3606669570714235,-2.588221718738973,-0.33654023155272,-0.1248510926961898,-1.2372366189956665,-1.7536202669143677
4.913430419921868,-0.9768082661196588,-2.4526903817430137,-1.5487316632568835,-0.3018346428871155,-1.7233332395553589,-2.128395795822144
4.923397216796873,-1.838718817949295,-2.079539206151664,-2.7416338726013896,-0.5811204314231873,-2.0360145568847656,-2.5009524822235107
4.9333632812499975,-2.440957419981807,-2.326285477271676,-4.1114445544689895,-0.8594018220901489,-2.1190502643585205,-2.749572992324829
4.9433293457031215,-3.2650691331624984,-2.3176070807755,-5.1775803325533865,-1.065503716468811,-1.8194966316223145,-2.807204246520996
4.95329614257812,-4.345134944660962,-1.794143178641796,-5.229941803431511,-1.2047450542449951,-1.1841881275177002,-2.6643996238708496
4.9632622070312475,-4.921050041782856,-1.445534323632717,-5.5601019785583015,-1.3587450981140137,-0.3531876504421234,-2.4364254474639893
4.973228271484372,-4.32093895329833,-1.4007152309581636,-5.783792660522461,-1.4678322076797483,0.6047809720039368,-2.194144487380981
4.983195312499996,-2.499474052488804,-1.793402881668508,-6.028667000290751,-1.425233244895935,1.4839328527450562,-1.776413083076477
