time,ax,ay,az,gx,gy,gz
0.0,-0.3316390885729342,0.7595821039944887,0.6482645862787961,0.9447884559631348,-0.3308318853378296,-0.5663322806358337
0.009965087890620339,-0.8606425777204334,0.441700395682454,-0.8184726843804121,0.7672554850578308,-0.3859939575195312,-0.709913969039917
0.01993090820312915,-1.489136441732943,0.1292021339744329,-2.7383494441032408,0.6650834083557129,-0.3630660474300384,-0.8275912404060364
0.029896972656249687,-1.6711777470998466,-0.6271148307442664,-4.552629401844739,0.6889796853065491,-0.1640922278165817,-0.892533004283905
0.03986206054687358,-1.392593445431441,-1.7414426850676537,-6.095909813958406,0.7661300301551819,0.1211396604776382,-0.884426474571228
0.049827880859375284,-0.8760373499248176,-2.945743655782938,-7.591734647414087,0.8136737942695618,0.3163424432277679,-0.8081253170967102
0.05979418945312531,-0.5464167615674436,-3.930387145572901,-9.001196956190466,0.8141787648200989,0.4166407585144043,-0.7216249108314514
0.06975903320313037,-0.1115582494026981,-4.824968671643734,-10.151185906481745,0.7721974849700928,0.3843358159065246,-0.6063593029975891
0.07972485351562142,0.8832512998916208,-6.145798757243156,-11.13235032198429,0.6286259293556213,0.1969165802001953,-0.4893462359905243
0.089691162109375,2.032133019593358,-7.574166842019557,-11.930524314701556,0.3597555756568908,-0.0995635464787483,-0.3258614242076874
0.0996560058593765,2.326806432405859,-8.451638827857375,-12.19725334340334,0.0281988456845283,-0.2906585037708282,-0.122410662472248
0.1096220703125006,1.8563228637009856,-8.847416261276603,-11.75558158929348,-0.3353855013847351,-0.2502900660037994,0.0977691039443016
0.11958813476562113,1.3661927836313843,-8.986924685209988,-10.909904671645164,-0.7541670799255371,-0.1526751518249511,0.3208041787147522
0.12955273437500026,1.0154907557353376,-8.77179315727651,-10.248426968050005,-1.1702369451522827,-0.0743419826030731,0.5499699711799622
0.13951904296875028,0.6714286042451858,-8.438606912326811,-9.631717211464046,-1.4901944398880005,0.057753138244152,0.7865083813667297
0.1494875488281302,0.2439633258705958,-7.999493026006221,-8.66369752421677,-1.6950805187225342,0.3265537023544311,1.0085984468460083
0.15945336914062125,-0.0015064225075766,-7.373574127048253,-7.370768421977758,-1.819456934928894,0.6108380556106567,1.1483019590377808
0.1694194335937489,-0.0164576887281611,-6.660983491331338,-6.044216451600193,-1.8910176753997805,0.8891762495040894,1.1835590600967407
0.17938452148437634,0.2864163470009341,-5.878764023593067,-4.293257165646553,-1.917038083076477,1.1333160400390625,1.1517176628112793
0.1893503417968745,0.8441133215934038,-5.031215466853976,-2.6699066069960598,-1.931175947189331,1.198500633239746,1.0949838161468506
0.19931665039062096,1.5687743343323468,-4.0215713913202285,-1.355575820288062,-1.9345346689224243,1.094339370727539,0.9904767274856568
0.20928149414062602,2.0277546583786608,-2.9321599515885115,-0.2093886003673076,-1.867233157157898,0.8713960647583008,0.9052353501319884
0.21924731445312773,1.966802177026868,-1.8688871617197989,0.8851338987678289,-1.7383023500442505,0.5632662773132324,0.8721063137054443
0.2292136230468742,1.668570633341372,-0.7868044574409723,1.8074287766724824,-1.5643510818481443,0.2286148369312286,0.8496958017349243
0.2391784667968757,1.2970296694256365,0.1223915771767497,2.6932389672666788,-1.3670125007629397,-0.086320661008358,0.8355591297149658
0.24914428710937386,0.7485586056768894,0.8677344356775283,3.429203464308381,-1.157485842704773,-0.2792887985706329,0.8487769365310669
0.25911059570312744,0.1488127337755635,1.3909487469643351,4.245298898163438,-0.975955069065094,-0.2562828660011291,0.8599204421043396
0.2690754394531254,-0.2636040650816634,1.821619214588404,5.094200623077154,-0.8343020677566528,-0.092992179095745,0.8687410950660706
0.2790415039062495,-0.6102940077921375,2.244368241563439,5.6167363044500345,-0.7071194648742676,0.200972631573677,0.8613496422767639
0.2890075683593736,-0.5994946370866149,2.7475594632580878,6.165703481152653,-0.5776543617248535,0.4943158328533172,0.8305531144142151
0.2989724121093751,-0.5185581925766543,3.208032071688771,6.225601777276396,-0.4050712883472442,0.658206045627594,0.7739328145980835
0.3089384765624992,-0.2483572499806061,3.724318045017123,6.184813255292177,-0.1416378021240234,0.702650249004364,0.7479619383811951
0.3189045410156268,0.3127727678004652,3.927961671991646,6.254896260821819,0.1461491882801056,0.5778915286064148,0.733141303062439
0.3288693847656212,0.4839870472699403,4.116479918287694,6.075371468320489,0.4588628709316253,0.3964588642120361,0.7102359533309937
0.3388356933593748,0.6388291608702391,4.18974681455046,6.110432260307669,0.7909478545188904,0.2206577807664871,0.6658837199211121
0.34880053710937986,0.5070580897232517,4.249665276679396,6.099582949513197,1.1643553972244265,0.0990261435508728,0.6443398594856262
0.35876635742187446,0.3769127931471914,4.116406853051483,5.925569613909721,1.4725414514541626,-0.0293049607425928,0.6379525661468506
0.36873266601562094,-0.0511406238462775,4.030743708813191,5.216414213338494,1.701618790626526,-0.1589963883161544,0.5674251317977905
0.378697509765626,-0.4153074787974357,4.20463663290739,4.833571664816141,1.8735926151275637,-0.1925757825374603,0.3982070088386535
0.3886635742187501,-0.3292449599780142,4.21909010567367,5.175650241273641,2.023634433746338,-0.2677435278892517,0.249017521739006
0.3986296386718742,-0.4067362690027803,3.871296658700704,5.238639489150047,2.0774333477020264,-0.3855019509792328,0.1294413805007934
0.4085944824218757,-0.4355183460466563,3.6156466578960416,5.446234191837907,2.03356409072876,-0.4812564551830292,-0.0075859795324504
0.4185605468749998,-0.4510190628435462,3.342698900809884,5.535595898333192,1.9116735458374023,-0.582465410232544,-0.1158166751265525
0.4285266113281274,-0.7649012531906366,3.033193975698948,5.393210457658768,1.7419873476028442,-0.6264448761940002,-0.1990399360656738
0.43849145507812537,-0.9643918521389364,2.8411843801558017,5.287507857215404,1.513742208480835,-0.6240640878677368,-0.2542472183704376
0.44845751953124946,-1.2678944680951536,2.7129987297475338,5.079797419193387,1.2178972959518433,-0.5618571639060974,-0.2937965095043182
0.45842358398437355,-1.7247667139463123,2.837890014785528,4.626375606057048,0.9091783761978148,-0.3184919357299804,-0.3416589498519897
0.46838842773437506,-1.961294519521296,2.933312044233084,4.30958110845983,0.6889104247093201,0.0772021412849426,-0.4112598598003387
0.4783547363281251,-1.7605018980637193,2.845724946194887,3.7785926560401912,0.6350032687187195,0.4643607437610626,-0.4551179409027099
0.4883205566406268,-1.376473646888137,2.4736107124358413,3.011798720970749,0.68389493227005,0.7096017003059387,-0.4589888453483581
0.4982854003906212,-0.9885855784792452,2.0457441963166,2.2878537475466727,0.7188395857810974,0.7735021114349365,-0.4767014384269714
0.5082517089843748,-0.7746103809740393,1.5496078615695237,1.688173451694846,0.7197428941726685,0.7107609510421753,-0.5241909027099609
0.5182175292968729,-0.7309853934548795,0.8766098160505295,1.1376543693751096,0.6527430415153503,0.5754793882369995,-0.5760424733161926
0.5281823730468744,-0.7470612067259847,0.1712380256712436,0.5865712234318256,0.5119020342826843,0.3928850591182709,-0.6475435495376587
0.5381486816406209,-0.8674128755729645,-0.2674181800097227,-0.2725432679384946,0.3418978154659271,0.2008272260427475,-0.7232987284660339
0.5481147460937486,-1.4947753244027495,-0.3963561100900173,-1.4957307254314425,0.187195599079132,0.0843011438846588,-0.7525610327720642
0.5580793457031277,-1.687785621421039,-0.6614280192345381,-2.986286094051599,0.1672585308551788,0.1461159437894821,-0.7413228750228882
0.5680454101562518,-1.3803233080536126,-1.3501502881079912,-4.249102382099628,0.3014549612998962,0.4616142511367798,-0.6600290536880493
0.5780102539062497,-0.3493208757359534,-2.5483412515103816,-4.94353426079154,0.4794881641864776,0.8543206453323364,-0.4875425696372986
0.5879763183593738,0.9134717391755433,-4.200107757306099,-5.62384993584752,0.5702401995658875,1.0527948141098022,-0.312603235244751
0.5979423828125014,1.9872361855074765,-5.363695024839044,-6.370366222041845,0.6189044713973999,1.0031070709228516,-0.2339393347501754
0.6079074707031253,2.535182494729757,-6.212943955755233,-6.7145216047734015,0.6339744925498962,0.7141807079315186,-0.254803866147995
0.6178735351562494,2.50302385392487,-6.81905866856873,-6.82676091350913,0.5691699981689453,0.2268162369728088,-0.3281110823154449
0.6278393554687511,2.3364222558826206,-7.384729727312922,-6.8845455784797664,0.4049374461174011,-0.3499983549118042,-0.4166153967380523
0.637804443359375,1.924104314289987,-7.900115536931157,-7.035114910131693,0.1591927111148834,-0.9007949233055116,-0.5320499539375305
0.6477705078124991,1.213564327492565,-8.186717140838503,-7.2867913311302654,-0.1292654573917389,-1.2045679092407229,-0.6383159160614014
0.6577365722656268,0.6390956297867,-8.305660915648938,-7.196642858171463,-0.4671831727027893,-1.13062584400177,-0.6692241430282593
0.6677014160156212,0.2481159155054017,-8.218352050030232,-6.905490166831016,-0.816199004650116,-0.709233820438385,-0.5897204875946045
0.6776674804687488,0.195635403091181,-7.805773703935742,-6.71907444577217,-1.13071608543396,-0.0743760839104652,-0.4390069842338562
0.6876335449218729,0.4976620830096304,-7.016369293129444,-6.522660477790236,-1.3614898920059204,0.4862560629844665,-0.2288502901792526
0.6975983886718744,0.7810494741108268,-6.116368664619326,-6.847748756480216,-1.392304539680481,0.8284762501716614,-0.0105856349691748
0.7075644531249985,1.0017591675028203,-5.240577763736248,-7.119786412984133,-1.1715977191925049,0.9536882042884828,0.1396499425172805
0.7175305175781297,0.9615119127884506,-4.344645407578349,-6.821787801271677,-0.7559903860092163,0.8114939332008362,0.1949379295110702
0.7274953613281276,0.7066825807169079,-3.496223575136065,-6.28570407153964,-0.2714130282402038,0.4317039847373962,0.1459227204322815
0.7374614257812517,0.3904103534281253,-2.7960347403526304,-5.20896155924499,0.1699781864881515,0.0187975894659757,0.0047148955054581
0.7474274902343794,0.2364533155666664,-2.0685183381825683,-3.4098657266318795,0.5029878616333008,-0.4025928080081939,-0.1442053467035293
0.7573925781249997,0.1345643551273271,-1.2653349928706883,-1.4082944340407848,0.642524242401123,-0.77809077501297,-0.2517659068107605
0.7673586425781274,-4.39487395808e-05,-0.360222135913372,0.7407143219172954,0.5256154537200928,-0.98917555809021,-0.2851936221122741
0.7773234863281253,-0.172101474100165,0.5728080710172653,2.776557886466384,0.1914748102426529,-0.9496803283691406,-0.2253538966178894
0.7872895507812494,-0.1611025987671688,1.3517670756548643,4.493593275508284,-0.2160002887248993,-0.7055347561836243,-0.0654358640313148
0.7972556152343735,-0.0135902435330674,1.923540542927384,5.715073344561457,-0.6074907779693604,-0.3390629589557647,0.1670932471752166
0.807220458984375,0.0707711704568937,2.440576457840204,6.365220091325044,-0.9162765741348268,-0.0009400204289704,0.3778877556324005
0.8171865234374991,0.1175186556444503,2.9469173757374283,6.307406784781813,-1.0647746324539185,0.2315613329410553,0.4966882765293121
0.8271525878906267,0.1385902679088525,3.391155180943012,5.977125029101967,-1.0059411525726318,0.3516387343406677,0.4805282056331634
0.8371174316406211,-0.0513657561053521,3.9756402457505455,5.606414816921949,-0.7798723578453064,0.3272745907306671,0.3745079934597015
0.8470834960937488,-0.1970513343037106,4.452201526933909,5.280785855484009,-0.450278490781784,0.1714943498373031,0.234262466430664
0.8570495605468729,-0.1054688647527247,4.706937335503101,5.246624058163166,-0.1089982688426971,-0.0309569146484136,0.0766598582267761
0.8670144042968744,0.1097235813214443,5.012167652034759,5.7040065916240215,0.1722922623157501,-0.218977153301239,-0.0408289544284343
0.8769807128906209,0.4472375715434551,5.090978738421201,6.316250016450882,0.3582246005535126,-0.3476709723472595,-0.0779409781098365
0.8869465332031297,0.7727801698721944,5.001546889299154,6.9587085467994205,0.4495598375797272,-0.4194247722625732,-0.0476898662745952
0.89691162109375,1.059655183893442,4.87424854311943,7.479968216887116,0.4332524836063385,-0.4485549628734588,0.0095090176910161
0.9068776855468741,1.2160240686696022,4.717199786320329,7.7818123981118195,0.3430064916610718,-0.4700155258178711,0.0893159657716751
0.9168435058593793,1.0792824060358106,4.652437683552503,7.739274402111768,0.1960215866565704,-0.4926162660121918,0.1652548015117645
0.9268085937499997,0.7924547382876277,4.665064525413513,7.50888743737936,0.0446533635258674,-0.4994017481803894,0.1981610804796219
0.9367746582031273,0.3689728669933974,4.667972521814703,6.962064871490001,-0.0594974048435688,-0.4825501143932342,0.1818955093622207
0.9467395019531253,-0.1698162127071991,4.598322647005319,6.24694851668775,-0.0989550650119781,-0.4527709186077118,0.1093501895666122
0.9567055664062494,-0.7868721158497035,4.658293423843383,5.427359395498037,-0.0495732203125953,-0.3807170689105987,0.0099755376577377
0.9666716308593735,-1.1603145294725894,4.529622035744786,4.541092693307996,0.0486609376966953,-0.3390412628650665,-0.0829477459192276
0.976636474609375,-1.3839013126708566,4.492634075087309,3.507895308229327,0.2019266933202743,-0.339848905801773,-0.172498732805252
0.986602783203125,-1.4907652119785546,4.365548494875431,2.5378724644660946,0.4129886031150818,-0.3615749776363373,-0.2453929185867309
0.9965686035156267,-1.6531697967223822,4.014467696794867,1.7590800485670566,0.6408788561820984,-0.34940105676651,-0.3139781057834625
1.006533447265621,-1.943962860970199,3.748646430587769,1.2591074966579674,0.8566111922264099,-0.2522316575050354,-0.3761293590068817
1.0164997558593747,-1.973992965313792,3.358972574740648,1.0084732781887054,1.0361233949661257,-0.1149732545018196,-0.4328155815601349
1.0264655761718728,-1.680796347055584,2.716508199173212,0.7412275321364402,1.1210622787475586,-0.0556873008608818,-0.4648549854755401
1.0364306640625003,-1.2703911072164773,2.169611399003863,0.3483955045193433,1.1196749210357666,-0.0485749654471874,-0.4715038239955902
1.0463967285156208,-0.7392997058790177,1.4967629910886286,0.0835457136929035,1.037109136581421,-0.0679518654942512,-0.4645130038261413
1.0563625488281296,-0.3351298898307606,0.7470680748581886,-0.2652203777045011,0.8463967442512512,-0.1607591658830642,-0.4782407879829407
1.0663273925781276,-0.1296283508967142,0.2143032604157924,-0.9675544078230858,0.5721425414085388,-0.2763813734054565,-0.4878590703010559
1.076293701171874,-0.0479820136848837,-0.3929150297254323,-1.8104829035460948,0.3190973699092865,-0.3308358490467071,-0.4314801096916199
1.0862583007812496,0.1765901638215407,-1.2747311822474,-2.879284101447463,0.1241784766316413,-0.3925029337406158,-0.3479207754135132
1.0962243652343737,-0.0708550950138364,-1.5739397542715072,-4.345266754347086,0.0246648807078599,-0.3230795562267303,-0.2733933329582214
1.1061904296875014,-0.7755323911897838,-1.6723147883057594,-5.380134702986479,0.0264310892671346,-0.0784186869859695,-0.2440926879644394
1.1161552734374993,-1.4228266711317,-1.9413450796872376,-6.265903977048397,0.1506298929452896,0.2786422669887543,-0.2552264034748077
1.1261215820312493,-1.064051446091011,-2.969560000178218,-7.150708205470442,0.4309265315532684,0.5773932337760925,-0.2515171468257904
1.136087402343751,-0.0736890854639001,-4.307988286310434,-7.8018802036285395,0.703271210193634,0.5877447128295898,-0.2008302807807922
1.146052246093749,0.8403643443234264,-5.523517338004708,-8.097927681273221,0.8410594463348389,0.283401608467102,-0.1627068668603897
1.1560183105468766,1.4698631475947797,-6.701080523920059,-7.752435496979952,0.7593340873718262,-0.1983300447463989,-0.1637091934680938
1.1659841308593748,1.366729228595644,-7.573924849957227,-7.130241171503067,0.473286360502243,-0.6632465720176697,-0.2124559581279754
1.175949462890621,0.6298684403013438,-7.927417969876528,-6.3028983674466605,0.0441948138177394,-0.932202160358429,-0.2989446222782135
1.1859152832031299,0.0477215406843693,-8.056421366408467,-5.398318594452738,-0.5057935118675232,-0.9637430310249328,-0.3678192794322967
1.1958813476562504,-0.1945077873007394,-8.011461111697555,-4.711145893108845,-1.1400552988052368,-0.7612079381942749,-0.3262664973735809
1.2058464355468743,-0.3514846296411007,-7.819235827577113,-4.262010963511467,-1.7662464380264282,-0.4080309569835663,-0.1391120553016662
1.2158122558593796,-0.4613574284411966,-7.405299637132883,-4.338028035265207,-2.215272903442383,0.1271364241838455,0.0915340781211853
1.225777099609374,-0.5191235713744535,-6.51297378103435,-4.457182822477817,-2.388127326965332,0.7684021592140198,0.2805013358592987
1.2357434082031276,-0.3359621028712019,-5.360399490424991,-4.540286637622118,-2.3317325115203857,1.273981690406799,0.4338905811309814
1.2457092285156257,0.1283380644910037,-4.228633594566583,-4.66454839258492,-2.1100165843963623,1.5057693719863892,0.5385618805885315
1.2556743164062496,0.6418295847952366,-3.200027628931403,-4.427075268983841,-1.743231177330017,1.4481282234191897,0.5585839152336121
1.2656403808593737,1.0126062863402068,-2.488491470703482,-3.703718324580788,-1.2996801137924194,1.0407772064208984,0.4635777473449707
1.2756062011718754,1.136080398056656,-1.9184207156956197,-2.842429411780834,-0.852154552936554,0.4080479443073272,0.2596465349197387
1.2855712890624993,1.0858257632646708,-1.3004530680030584,-1.4659218626230954,-0.4768382310867309,-0.3206930458545685,-0.0024809320457279
1.2955373535156234,0.9322356224868446,-0.721559539592266,0.1140425587654113,-0.2363862991333007,-0.998868763446808,-0.2389624565839767
1.305503417968751,0.717169487939775,-0.1121048687011003,1.8284972836643456,-0.1724749505519867,-1.4834303855895996,-0.3857324421405792
1.315468505859375,0.4458564924485981,0.5062099849939345,3.487966034400463,-0.3052752614021301,-1.6261836290359497,-0.4237560331821441
1.3254343261718766,0.1514473200628533,1.0815279930055142,5.041397838172316,-0.5950415730476379,-1.4147062301635742,-0.3621725738048553
1.3354003906250007,0.0139006977217271,1.707332910194993,6.081185123035311,-0.9640597701072692,-0.9767740964889526,-0.2152862101793289
1.345365478515621,-0.0253587880643084,2.2488176221877336,6.500556198009848,-1.3160520792007446,-0.4375452101230621,0.0225777458399534
1.3553312988281299,0.0153353701673448,2.7429999002575878,6.466953788137436,-1.5488718748092651,0.0886515825986862,0.2736174166202545
1.3652973632812504,0.2349626934164203,3.272464504110813,5.905528111878037,-1.5831589698791504,0.4494997859001159,0.4697046279907226
1.3752624511718743,0.3016121990997344,3.69452028812468,4.908789695146679,-1.405953049659729,0.6640477180480957,0.5903236269950867
1.3852282714843795,0.1998483446110971,3.9721109025806185,4.217904695281386,-1.0793308019638062,0.7306360602378845,0.6166766881942749
1.3951943359375,-0.0907737378508318,4.188104600301385,3.699490477752685,-0.6875853538513184,0.5990456342697144,0.5078317523002625
1.4051594238281275,-0.3770034305727109,4.348149908567965,3.3635856214940545,-0.2621669769287109,0.341395765542984,0.2825957238674164
1.4151254882812516,-0.2718834705892018,4.255601096469164,3.402186278045177,0.130289688706398,-0.0010702749714255,0.0604918040335178
1.4250903320312496,0.1204896342792548,4.055094306215644,3.6119524795532234,0.4319171607494354,-0.3066440522670746,-0.0969476178288459
1.4350563964843737,0.6025479237100109,3.797594293630123,4.160508152845502,0.6265599727630615,-0.4794359505176544,-0.1495912969112396
1.4450224609375013,0.9865813990499824,3.539306345537305,4.892423082235455,0.6950439810752869,-0.4893509149551391,-0.1027984917163848
1.4549875488281252,1.2414097812734544,3.292912248855829,5.531716426551342,0.6287205815315247,-0.3885295391082763,0.0238120816648006
1.4649533691406234,1.2950054701216518,3.179450120326877,5.974476560419798,0.4893848001956939,-0.2100197225809097,0.1684659272432327
1.474919433593751,1.234630058005452,3.0344787548124788,6.093375911566615,0.3291830420494079,-0.0460192300379276,0.2777681052684784
1.4848845214843749,0.7371800833765417,3.004555910235643,5.799630865645408,0.1886634677648544,0.1025934070348739,0.2935523986816406
1.4948503417968766,0.0973182732566259,3.047095659801364,5.404267858245968,0.1310652643442154,0.265610933303833,0.2381394207477569
1.5048164062500007,-0.4696984462091699,3.000773469087481,4.901954880690575,0.1429885029792785,0.3758130669593811,0.1374650001525879
1.514781494140621,-0.9604824966754764,3.0996850942164658,4.163523116752505,0.2198023796081543,0.4547100067138672,-0.0308356992900371
1.5247475585937487,-1.2117232296705245,3.276505303934216,3.454548333445191,0.4040787518024444,0.4840908050537109,-0.209072008728981
1.5347133789062504,-1.2348217811852693,3.1196471012711524,2.644742939645052,0.6863612532615662,0.495056688785553,-0.3388833403587341
1.5446784667968743,-1.081742804799974,2.855423917910457,2.1569646833986043,0.9854033589363098,0.4054178893566131,-0.4027289152145386
1.5546445312499984,-0.8539628807608037,2.577607678005099,1.697347522753477,1.2043479681015017,0.2367176711559295,-0.4379828572273254
1.5646103515625,-0.8095377558398992,2.351789336362481,1.4690437940359116,1.3257356882095337,0.1055069267749786,-0.4760884344577789
1.5745751953125016,-0.9919222486212848,2.023350578200817,1.532223596048355,1.3638224601745603,0.0786702111363411,-0.4975532293319702
1.5845415039062516,-1.0845051821853966,1.5388678563684224,1.6505390098273751,1.2917104959487915,0.0996026620268821,-0.4944229125976562
1.5945073242187497,-0.9569626519862562,0.8900701861262321,1.4967127222061156,1.1201106309890747,0.1435053646564483,-0.5248537063598633
1.6044721679687513,-0.8352592762693762,0.4620984560668468,1.0762029985904693,0.8945699334144592,0.1867857277393341,-0.5642375946044922
1.6144382324218753,-1.013655795393139,0.102588267815113,0.4065986871629953,0.619256317615509,0.2185302227735519,-0.6167622208595276
1.6244042968749994,-1.297994715065509,-0.0765413878887891,-0.5948761104404926,0.3622152209281921,0.2639262080192566,-0.6869143843650818
1.6343693847656233,-1.2409021240122615,-0.3696557346910238,-1.9228104750871655,0.2371381670236587,0.3210251927375793,-0.7435985207557678
1.644335205078125,-0.7600782169483602,-1.0920330204069617,-3.558677400961518,0.2927572131156921,0.4122357964515686,-0.6826968193054199
1.6543010253906267,-0.0141113813303411,-2.0765034917175766,-4.762208556348085,0.4712761044502258,0.5154680013656616,-0.5159140229225159
1.664266357421873,0.953806745238602,-2.9641040728598838,-5.553070180225372,0.6597954034805298,0.5564205050468445,-0.2942836284637451
1.6742321777343747,1.879892539858818,-4.161844954407215,-6.039109483850002,0.7272482514381409,0.3995099365711212,-0.1120307594537735
1.6841979980468729,2.4103790341056883,-5.213947530964017,-6.495735645985603,0.5866585969924927,0.0983780547976493,-0.0066500063985586
1.6941633300781298,2.318616257818043,-6.087832305964827,-6.680161654531956,0.2694929838180542,-0.2750105857849121,0.0114176832139492
1.7041291503906209,1.5957866982899604,-6.689164460676908,-7.100532261937857,-0.1645516753196716,-0.6323726773262024,-0.0569613724946975
1.7140952148437485,0.4697360748058184,-6.879544409191608,-7.681193384543061,-0.6813615560531616,-0.8406910300254822,-0.1963523775339126
1.7240603027343795,-0.5811559569174424,-6.651957304310798,-8.134574865669011,-1.231769561767578,-0.8569485545158386,-0.304461270570755
1.734026123046874,-1.1792103686004876,-6.488849393603205,-8.660866684705018,-1.7000316381454468,-0.6790050864219666,-0.2485435456037521
1.7439921875000017,-1.2804901841655374,-6.445224186888336,-9.201161310130358,-1.9830191135406492,-0.278897613286972,0.0101961269974708
1.7539572753906256,-1.1487176882464438,-6.238833014771342,-9.52312941097319,-2.0257058143615723,0.2875832021236419,0.3741803765296936
1.7639230957031273,-0.9185152863007038,-5.790995139247179,-9.455108014148474,-1.8588886260986328,0.8487464189529419,0.6905473470687866
1.7738894042968738,-0.6261323955781758,-5.134050402906537,-9.155916393259169,-1.5893913507461548,1.0645239353179932,0.8349756002426147
1.7838552246093755,-0.3642736397938803,-4.181039484220743,-8.927549536177516,-1.2859371900558472,0.911743938922882,0.7920531630516052
1.7938200683593735,-0.1302288832062855,-3.195028213208914,-7.937720752704143,-0.938114047050476,0.3966545164585113,0.6374040842056274
1.803786376953127,0.3023559301391244,-2.691976399984956,-6.703667617803812,-0.5599686503410339,-0.367827445268631,0.4056504368782043
1.8137521972656216,0.7320813719980418,-2.377922141006589,-5.097109788522124,-0.2371980100870132,-1.1648012399673462,0.181825578212738
1.823717285156249,1.044826740334928,-2.0661831732332705,-3.0921903545469043,-0.0348073504865169,-1.771379828453064,0.0492552854120731
1.8336833496093767,1.1352873479828238,-1.6208026277333496,-0.6007891338765621,0.0141080021858215,-1.9892586469650269,0.0428345762193203
1.8436491699218749,1.0581294356308877,-1.132508238658309,2.097233560535312,-0.095093049108982,-1.8212050199508667,0.1429830193519592
1.8536142578124988,0.9496854275248944,-0.5416577304720879,4.491626359349489,-0.3388348221778869,-1.3921791315078735,0.3194077312946319
1.8635803222656264,1.0114170765556394,0.0506435610443353,6.369171459299325,-0.6693959832191467,-0.8861750364303589,0.5302600860595703
1.8735463867187505,1.2087789929121733,0.5328530772477388,7.519453839579224,-1.0166524648666382,-0.3783946633338928,0.7199598550796509
1.8835112304687485,1.1898001516759396,1.0511205797821284,8.34938666012883,-1.32658052444458,0.1046164706349372,0.8176448345184326
1.8934772949218726,0.9481145249463616,1.833332448735833,8.881894869461656,-1.5636638402938845,0.4495049715042114,0.8214918375015259
1.9034433593750002,0.617331980137527,2.584146724385023,8.847932394105195,-1.7097337245941162,0.6115607619285583,0.7378054857254028
1.9134084472656205,0.2202870840657502,3.3264012614816427,8.5918194519639,-1.733484148979187,0.6338904500007629,0.5884425044059753
1.9233742675781293,0.2005231203338131,3.799874805782735,8.268435054582357,-1.6602964401245115,0.6011140942573547,0.4351304471492767
1.9333403320312499,0.4333298595590517,3.864976223507523,7.945539902022481,-1.4827396869659424,0.5014669895172119,0.3262690007686615
1.9433061523437516,0.8049237592384219,3.579032498987019,7.345870712086558,-1.1742420196533203,0.4182807505130768,0.2628847062587738
1.9532712402343755,1.275602704384923,3.1564287257015704,7.029857135733962,-0.7870006561279297,0.3495140075683594,0.2648102641105652
1.9632373046874996,1.635965271682292,2.8304475898250936,6.79320994156301,-0.3794400990009308,0.2760075628757477,0.3310878276824951
1.9732031250000013,2.0244116315610707,2.6069696738287806,6.652550009506941,0.0213554687798023,0.1829552501440048,0.4314652979373932
1.983168457031251,2.2654155596368013,2.265332119137049,6.631742783799767,0.3705984055995941,0.0459041781723499,0.5420421361923218
1.9931342773437493,2.309624411458522,2.0741037370994686,6.694801589781045,0.6351332068443298,-0.1095064282417297,0.6270235180854797
2.003100097656251,2.124586846885085,1.851502019415796,6.921502559477091,0.7997351884841919,-0.2662603557109833,0.6626526117324829
2.013065429687501,1.6585025360524654,1.729092029799521,7.010038921064138,0.8615502715110779,-0.4008668065071106,0.6415070295333862
2.023031249999999,1.1060036780923603,1.6021300759673118,7.115232987463473,0.8175638914108276,-0.5111238360404968,0.5572920441627502
2.03299731445313,0.3149328319111839,1.586021529470384,6.961817034208774,0.670482337474823,-0.5639176368713379,0.3780778646469116
2.0429633789062507,-0.6189793089531361,1.858064738932252,6.467364122503995,0.5393951535224915,-0.4494504630565643,0.1415324211120605
2.0529282226562486,-1.3333617965228854,1.850130731062591,6.046708268415928,0.4816521108150482,-0.220143586397171,-0.0903269499540329
2.06289428710938,-1.6854975104838608,1.6745152209594845,5.3628305169641965,0.4769886434078216,0.0595706216990947,-0.2912192940711975
2.0728603515625004,-1.687436954113841,1.6709864623114463,4.673605559265614,0.5161518454551697,0.2874421775341034,-0.4390041530132293
2.0828251953124983,-1.4321312367022037,1.643765862430632,3.854748844003677,0.5924200415611267,0.4484012126922607,-0.5319109559059143
2.0927915039062484,-1.1372916735425591,1.5677148884072898,3.005814970386028,0.708490252494812,0.5074403285980225,-0.5667133331298828
2.10275732421875,-0.909921426282823,1.4153054818466304,2.072443402671814,0.8390301465988159,0.5335401296615601,-0.576563835144043
2.112723388671874,-0.742555858130753,1.2792811006367206,1.2207307119905948,0.9446410536766052,0.5805011987686157,-0.573526918888092
2.1226884765625016,-0.8114935660827904,0.9409417107075452,0.4708236143141984,1.005028486251831,0.6022387146949768,-0.556342601776123
2.1326542968749997,-0.9035241264611482,0.2523863228335976,-0.4975193135380744,0.98868989944458,0.5143620371818542,-0.5891311764717102
2.1426203613281274,-1.1549351014565676,-0.4384966312050819,-1.8258435542851683,0.9390110373497008,0.3583807349205017,-0.7599852681159973
2.152582031249999,-1.557432856106758,-0.904206848028302,-3.246965905717015,0.8895458579063416,0.1765511929988861,-1.034529209136963
2.1625478515625005,-2.1019624887533483,-1.1029536428719755,-4.8551440296769135,0.904230535030365,0.0862737670540809,-1.369921088218689
2.172513916015621,-2.1635414314404127,-1.1574883661359547,-6.331819341504573,1.0195443630218506,0.1422890871763229,-1.573677897453308
2.18247973632813,-1.7984581192314624,-1.587942560660839,-7.533372474816441,1.2066948413848877,0.3315421044826507,-1.5989843606948853
2.1924450683593797,-1.144331874377653,-1.986035285285115,-8.138339771160483,1.3612102270126345,0.5512369871139526,-1.4449191093444824
2.2024108886718743,-0.293787168029882,-2.4318799411654477,-8.583620947939156,1.4323986768722534,0.6999484300613403,-1.1996906995773315
2.2123767089843795,0.6229360106896609,-3.028571576595306,-9.048538553079965,1.4139639139175415,0.6919191479682922,-0.948543667793274
2.222342041015626,1.5193547621250152,-3.776722770515084,-9.398206561753152,1.2558224201202393,0.5286822319030762,-0.6769289374351501
2.2323078613281275,2.441330637208372,-4.798960954684019,-9.489443998992442,0.9449936747550964,0.3244245052337646,-0.3895466923713684
2.2422736816406257,3.3780843947067853,-6.013670506688952,-9.29884660833478,0.472580075263977,0.0011569845955818,-0.1003897115588188
2.2522399902343793,3.659982643228769,-6.860389042344689,-9.345589654809237,-0.1550970673561096,-0.2658647000789642,0.1640882343053817
2.2622048339843737,3.230543178704381,-7.134438623192906,-8.874380256047845,-0.913371443748474,-0.3570622503757477,0.3647773861885071
2.2721708984375013,2.32333071911931,-7.047246077430248,-8.427468263196944,-1.7048566341400146,-0.203226238489151,0.5152137875556946
2.282136962890622,1.3451453194275498,-6.70139616574049,-7.907647101479768,-2.390174150466919,0.2324956655502319,0.6790046095848083
2.292102783203127,0.4320032505977899,-6.113827163442969,-7.210920389848947,-2.866198301315308,0.9423306584358216,0.8295615911483765
2.3020681152343734,-0.2582728235889226,-5.158378788477182,-5.981212590676546,-3.1425297260284424,1.6942037343978882,0.9434891939163208
2.312033935546875,-0.2323986698810011,-4.188366758368909,-4.894810854154825,-3.2871460914611816,2.15081524848938,0.960201621055603
2.321999999999999,0.3051854544766247,-3.1364456758588557,-4.166421760803461,-3.310096263885498,2.2845053672790527,0.8699838519096375
2.3319650878906266,0.9337032108213752,-2.0769643872275947,-3.193966721457243,-3.1472127437591557,2.0611495971679688,0.7519898414611816
2.3419309082031248,1.5151473735630512,-1.3335437289610503,-2.41967746219635,-2.818500280380249,1.462665319442749,0.640025794506073
2.351896972656249,1.7740293420262634,-0.6203609725698829,-1.8330694138854744,-2.3488893508911133,0.5963495969772339,0.5382859110832214
2.3618627929687506,1.6047298832021653,0.178507139891386,-1.1966413958728312,-1.789613127708435,-0.3515343964099884,0.4648023545742035
2.3718278808593745,1.0818033028155565,0.9071633597463368,-0.3653291036635637,-1.2015115022659302,-1.1667134761810305,0.4460126161575317
2.3817939453124986,0.4993255592424422,1.4781895157828926,0.7738239798367023,-0.615363597869873,-1.766628623008728,0.5126729011535645
2.3917597656250003,-0.0123185065641999,1.874955667978525,1.8827631268590688,-0.0944245532155036,-2.1104626655578613,0.6229290962219238
2.4017260742187503,-0.465865772711113,2.2187480626165867,3.11166896199882,0.3021986782550812,-2.137671947479248,0.7264110445976257
2.411690917968752,-1.0604784099098294,2.4834444164469835,4.432174637949466,0.5571722388267517,-1.85884428024292,0.8282214999198914
2.42165673828125,-1.7414653352908789,2.5787854896128177,5.6945157097011805,0.7067356109619141,-1.3482606410980225,0.9091424345970154
2.431623046875,-2.238388728762418,2.634119254299998,6.773703861582279,0.7827877402305603,-0.7326909303665161,0.9209245443344116
2.4415888671875017,-2.253492774391919,2.6394533088043333,7.421481541126966,0.827042281627655,-0.264494925737381,0.8557109236717224
2.4515539550781256,-1.8094139591403304,2.532280635808408,7.407813081258535,0.8730602264404297,0.0119188986718654,0.7668489217758179
2.4615200195312497,-1.1095840207971632,2.320306110601127,7.428708569771051,0.948937177658081,0.147824540734291,0.709157407283783
2.4714858398437514,-0.4133092907175421,2.044374953790009,7.51220693719089,1.0374912023544312,0.0823089182376861,0.6545034050941467
2.4814519042968755,0.2145703503867611,1.893537034329772,7.295851420420408,1.121113419532776,-0.1136635169386863,0.5684497356414795
2.4914169921874993,0.7888613899707794,1.7844424533605574,7.148813185504078,1.156121015548706,-0.3697503507137298,0.4776262640953064
2.501382812500001,1.0911031922109424,1.6551710535421966,7.111962587490678,1.1258200407028198,-0.606489896774292,0.4101755917072296
2.511348876953125,1.1427268503338095,1.5622344111695885,7.168883329108357,1.0173834562301636,-0.7459170818328857,0.3307698369026184
2.5213149414062492,0.9675925478763878,1.6296221862658855,7.254487728896737,0.8683947324752808,-0.7170372605323792,0.2393462061882019
2.5312800292968767,0.6205233235247433,1.5646154610872267,7.323565941298008,0.6867054104804993,-0.5525334477424622,0.1394259184598922
2.541245849609375,0.1517217896226793,1.562261299176514,7.130323589089512,0.4871411323547363,-0.322605699300766,0.0313063859939575
2.551211914062499,-0.2058932690648361,1.6076842029631138,6.602389263543486,0.3156296610832214,-0.0735767930746078,-0.0770652741193771
2.5611779785156266,-0.4776755625681951,1.5813020997330545,6.087898941460251,0.2055537402629852,0.1832110434770584,-0.1911779940128326
2.571142822265621,-0.6765107298150658,1.7518945209771393,5.549815562343597,0.1863256394863128,0.4039181172847748,-0.2958937883377075
2.5811088867187486,-0.677166855636239,1.9524124171465636,4.911303723794221,0.2695792317390442,0.5486335158348083,-0.3616632223129272
2.5910749511718727,-0.7508563612252473,2.1964076359927653,4.269530253100395,0.4351676404476166,0.6536294221878052,-0.4191716611385345
2.6010407714843744,-0.7703614182926714,2.4561054508835074,3.890708630657196,0.6547495126724243,0.700339674949646,-0.4751811325550079
2.6110068359374985,-0.6250392665792256,2.5802032474562524,3.465522731924057,0.8966076970100403,0.6689828038215637,-0.5066571235656738
2.6209719238281295,-0.3723952426575124,2.416812720414996,3.1534798127681016,1.1133828163146973,0.5910376906394958,-0.5166194438934326
2.6309377441406205,-0.1554192924337461,2.217227721181512,3.0082594409286973,1.2402150630950928,0.4738114774227142,-0.5216057300567627
2.6409038085937517,0.0735017735977191,1.927343442341685,2.796611663457751,1.265552639961243,0.3409455716609955,-0.5404728651046753
2.650869873046876,0.3541433274563402,1.5017816960334778,2.3841315170407293,1.2210983037948608,0.1928664594888687,-0.5171387195587158
2.6608349609374997,0.4759367926094681,0.8816068936854601,1.7220207762390374,1.1096394062042236,0.019261110574007,-0.486865758895874
2.670801025390624,0.4314501467596739,0.3175081988245248,0.6860404824435711,0.9391571283340454,-0.1576866656541824,-0.5042266249656677
2.6807668457031255,0.0633125067477114,-0.1402045895040035,-0.918034297850728,0.7806122303009033,-0.3023599684238434,-0.5607098340988159
2.6907329101562496,-0.4641801577117294,-0.8753753058195114,-2.888939818543196,0.6906311511993408,-0.2822247743606567,-0.6543525457382202
2.7006979980468735,-0.6262115982942282,-2.018639331769943,-4.7280888446033,0.7175232768058777,-0.0125269852578639,-0.7343038320541382
2.710664062500001,-0.397053663900122,-3.4731010582238437,-6.265249312531948,0.8619264960289001,0.2571771442890167,-0.7117724418640137
2.7206298828124993,-0.1652902231827378,-4.785192541572451,-8.221425466126203,0.9945989847183228,0.2712562084197998,-0.6663439869880676
2.730595703125001,-0.2890684689449146,-5.312150715562701,-10.55253734064102,1.0691578388214111,0.0732787549495697,-0.756273090839386
2.740562011718751,-0.4712067318802699,-5.331898787605762,-12.27192250767946,1.053487777709961,-0.3486613035202026,-0.9148821830749512
2.750526855468749,-0.0859936913669109,-6.168531398054957,-13.933365188837053,0.8440424203872681,-0.968105971813202,-1.0247477293014526
2.7604929199218766,0.4399506659382954,-7.285931499430537,-15.29524741579294,0.3976500332355499,-1.4535387754440308,-1.0607235431671145
2.7704589843750007,0.2175476126318797,-7.874232907655835,-15.551721592462062,-0.1383199095726013,-1.5580360889434814,-1.001619815826416
2.780424804687499,-0.8545986213810741,-8.139671896547078,-15.262098010385037,-0.6280629634857178,-1.096962809562683,-0.9301440715789796
2.79038989257813,-2.1534477613188323,-7.76439423032105,-14.260733687418698,-1.0703502893447876,-0.1653138995170593,-0.9346707463264464
2.8003559570312504,-2.753883990104496,-6.654532123234867,-12.945158453607558,-1.386468768119812,0.8013906478881836,-0.890692412853241
2.8103217773437486,-2.0400699500724677,-5.954712706285715,-12.050636548769472,-1.5056700706481934,1.4315695762634275,-0.7331894636154175
2.8202878417968726,-0.1580456588819623,-5.61762185511291,-11.131141530716418,-1.4083163738250732,1.506496548652649,-0.54800945520401
2.8302536621093743,1.9593609211102128,-5.096754399213195,-9.955762703102826,-1.1276532411575315,1.024173378944397,-0.4221599102020263
2.8402189941406206,3.537349366250634,-4.565288392409682,-8.367823065051436,-0.799913227558136,0.2803051173686981,-0.3739362061023712
2.8501848144531294,4.43061074963361,-3.880864112991095,-6.209475987383723,-0.5150553584098816,-0.446012794971466,-0.2998403310775757
2.86015087890625,4.272183690218627,-2.868592611563205,-3.526806344926357,-0.3587826788425445,-0.8238868713378906,-0.1798705011606216
2.8701171875,3.699470311747491,-1.728856759738922,-0.6223088917672633,-0.4045290350914001,-0.7371979355812073,0.0111429039388895
2.8800830078125017,2.946620438617468,-0.6626473318964242,2.0894582503587005,-0.6443080306053162,-0.2091444730758667,0.2832223773002624
2.890048095703129,2.375898233963549,0.0781488230854272,4.47642586760819,-0.9549620151519777,0.4509312212467193,0.6060343980789185
2.9000139160156237,2.139940191100538,0.8701672157824039,5.594429195573926,-1.2391865253448486,0.8766316771507263,0.916446328163147
2.9099797363281255,1.6893106390312314,1.8322893694236877,5.417346535527706,-1.34770667552948,1.065915584564209,1.1451696157455444
2.9199460449218755,1.026432786314562,2.650203250877559,5.239609210965037,-1.1550285816192627,0.9740317463874816,1.2814481258392334
2.9299121093749996,0.0476158837862312,3.00279971421808,5.193162517088651,-0.7159919738769531,0.6778016686439514,1.2514901161193848
2.939876953125001,-0.6839674755617976,3.3084421186819672,5.448531947386265,-0.1904900819063186,0.3149230778217315,1.0780901908874512
2.949843017578125,-1.0257311408512293,3.629079555442929,6.19417028170228,0.2583813667297363,-0.0622042566537857,0.8677505850791931
2.9598090820312493,-0.9113668758507818,3.800972537891567,7.120166936734318,0.5660281181335449,-0.3636607825756073,0.7410405874252319
2.9697751464843734,-0.517510765882954,3.8452737441718576,8.198450248730182,0.745790421962738,-0.5825203061103821,0.7169373631477356
2.979740966796875,-0.1470949700722471,3.771373226180673,9.023288376489282,0.8286791443824768,-0.6378759741783142,0.7328305840492249
2.989706298828125,0.0082939637558534,3.649174833488464,9.935362889152763,0.8007992506027222,-0.5278123617172241,0.7550661563873291
2.9996721191406266,-0.0189606114597991,3.5656530851930377,10.711169567239285,0.6720200181007385,-0.3532274663448334,0.7497555613517761
3.0096379394531247,-0.0077354165576398,3.3702667066931724,11.019614754164218,0.4789040386676788,-0.1953475922346115,0.704714834690094
3.019604003906249,0.0421814741799607,3.223205675423145,10.995801332378386,0.2628489732742309,-0.1083383932709693,0.6158067584037781
3.0295700683593765,0.1294532043923623,3.23475933509469,10.533028338050842,0.0816964358091354,-0.0389606803655624,0.5223374962806702
3.0395349121093744,0.1567784519577398,3.2127719596922395,10.06330888558626,-0.0477366596460342,0.0221647266298532,0.4182427823543548
3.0495009765624985,0.0088360164769925,3.371570775029063,9.46882382028997,-0.1293588131666183,0.0650299042463302,0.3018125593662262
3.059467041015626,-0.423225010456331,3.6141678175151344,8.762721377548575,-0.1640177369117736,0.1014467626810073,0.1757073551416397
3.0694331054687503,-1.0074332676164806,3.837576175406575,8.135150619730354,-0.1692621260881424,0.1513859182596206,0.0123296612873673
3.0793989257812484,-1.553013724490255,4.098502655309439,7.549952438217401,-0.1661736518144607,0.1860504150390625,-0.1905944198369979
3.089364013671876,-1.9941047561027108,4.339405753359198,6.922527810871601,-0.1570933610200882,0.1845999658107757,-0.393351137638092
3.099330078125,-2.240483801345527,4.434306389281153,6.230340496236085,-0.1411034762859344,0.2120827287435531,-0.5616637468338013
3.1092958984375016,-2.375660479684919,4.439757055902481,5.758134487652779,-0.0984106808900833,0.2693102359771728,-0.6979092955589294
3.1192622070312517,-2.3789187508285043,4.470651960381865,5.28186546741426,-0.0073806419968605,0.314272940158844,-0.8078006505966187
3.12922802734375,-2.300001865980029,4.441514128702878,4.77825602030754,0.1247507706284523,0.3250006735324859,-0.9007012844085693
3.139194091796874,-2.236044211462885,4.320632079306245,4.097967233258485,0.3418261110782623,0.3308915793895721,-0.9528462290763856
3.1491591796875014,-2.033364899475872,3.947432388398051,3.583158931267261,0.6724077463150024,0.3019933700561523,-0.9477437138557434
3.159125244140622,-1.587672511547804,3.209551828601956,3.15902166480422,1.022789478302002,0.1539599448442459,-0.9106792211532592
3.169091064453127,-1.2480669010750949,2.364288752451539,2.5524293976068497,1.314308524131775,-0.1090256348252296,-0.9078752994537354
3.1790571289062513,-1.0888291097991167,1.5846505333781242,1.9822242025643584,1.522308349609375,-0.3542385995388031,-0.9637628197669984
3.1890231933593753,-1.1691764658421278,0.6563859334141016,1.716245699968934,1.578190803527832,-0.6047526001930237,-1.08531391620636
3.198988037109377,-1.445825123272836,-0.0882511149048805,1.0497703342169522,1.4535510540008545,-0.8037205338478088,-1.2603211402893066
3.208954101562501,-1.8930391678102316,-0.5954413431078195,0.3160813808917999,1.17182195186615,-0.9243914484977722,-1.4697916507720947
3.2189201660156215,-2.183674557278305,-1.2841764714628456,-0.8646803088039159,0.8290749788284302,-0.923355221748352,-1.679030179977417
3.228886230468749,-1.6344976833477616,-2.7820465470105407,-2.500384737592936,0.5391955971717834,-0.7446534037590027,-1.8129818439483645
3.238852050781251,-0.3530284980822354,-4.872341832715272,-4.137252949464321,0.3200198411941528,-0.587497889995575,-1.8490227460861208
3.248817871093749,0.6375150825969874,-6.347499725717306,-6.302617796939611,0.1127446591854095,-0.578794002532959,-1.8003655672073364
3.258783203124999,0.8365871638722717,-6.697063104972243,-8.444964172399043,-0.0963803306221962,-0.7096809148788452,-1.6724834442138672
3.2687490234375005,1.140684603916481,-6.938416869398951,-10.181240853005647,-0.3386126756668091,-0.8864811062812805,-1.4905898571014404
3.2787148437499987,1.5396192592576146,-7.293957569497823,-11.524960815805196,-0.6542158722877502,-1.0514286756515503,-1.2155489921569824
3.2886811523437487,1.916855073814094,-7.956313809493183,-12.611805619919298,-1.0914796590805054,-0.9841307997703552,-0.8236929774284363
3.2986469726562504,2.072525527997315,-8.423565995061397,-13.00192371240258,-1.5718026161193848,-0.6157780885696411,-0.3460803627967834
3.3086130371093745,2.114795520710945,-8.632487562438845,-13.077740877670047,-1.9497268199920652,-0.0351737290620803,0.1179526895284652
3.3185781249999984,2.245357252600789,-8.547248488831519,-13.491636151582002,-2.0952513217926025,0.5092488527297974,0.507036030292511
3.3285439453125,2.4197227626428006,-8.11358000843525,-14.533638774406908,-1.9299724102020264,0.8129841685295105,0.8161609172821045
3.3385100097656206,2.6452111416786908,-7.427990776890516,-15.435746604329347,-1.4954955577850342,0.7652891278266907,1.049775242805481
3.348476074218752,2.868076770995557,-6.621956133800745,-15.751321789264678,-0.9170646667480468,0.361986368894577,1.1817420721054075
3.3584421386718724,2.6425240945518014,-5.552488580945134,-15.277770211291312,-0.2976842522621155,-0.2299898713827133,1.1514179706573486
3.368407958984374,1.972195268242061,-4.425133779527247,-13.721153347742558,0.2983909249305725,-0.8451917171478271,0.92910498380661
3.3783730468750015,1.2774360572919248,-3.4516005895555018,-11.401543694972991,0.7924637794494629,-1.368450403213501,0.5945421457290649
3.388339111328129,0.8697315277788787,-2.8512545232713222,-8.359252805104852,1.0465065240859983,-1.5547155141830444,0.2697788178920746
3.3983049316406237,0.8822742715530097,-2.530875152924657,-4.596784185391664,0.9785370230674744,-1.39746356010437,0.0654725357890129
3.4082709960937514,1.1913787991695106,-2.334690902045369,-0.9275637582182884,0.6356996893882751,-0.9628366827964784,0.0116305435076355
3.4182370605468755,1.6297455203846096,-1.905200584116578,2.2731173661857844,0.134822204709053,-0.4124444425106048,0.0829763635993003
3.4282019042968734,2.1510814705789087,-1.2026403440266846,4.439593389773369,-0.4085738658905029,0.0837077498435974,0.2276787608861923
3.438167968750001,2.3642682941854,-0.2324392210870981,5.757326678401231,-0.8856003284454346,0.4880488216876983,0.3953825533390045
3.448134033203125,2.0819000900641083,0.9757669403731822,6.721043115496635,-1.2664213180541992,0.759451150894165,0.5303744673728943
3.4581000976562493,1.613914037263393,2.1818752527713774,7.377243170949816,-1.5358083248138428,0.9178093671798706,0.6149924397468567
3.468065917968751,1.183761309903115,3.2868221152871846,7.854297788608074,-1.682205319404602,0.9658781886100768,0.6662483215332031
3.478031982421875,0.8662137289162725,4.025238681656122,8.059134717020392,-1.715436577796936,0.9243581295013428,0.660439670085907
3.487997070312499,0.5612711798174307,4.537576501880586,8.194924997213482,-1.672752022743225,0.8485655784606934,0.6105589270591736
3.4979628906250007,0.3726917413860559,4.768657001835107,8.221565166857838,-1.5234994888305664,0.8601572513580322,0.5512721538543701
3.5079289550781247,0.3036846214596182,4.751097087486088,8.436395666018129,-1.2793761491775513,0.9225490689277648,0.5168343782424927
3.517895019531249,0.5329604100797325,4.518310660396516,8.415293256756662,-0.9403557181358336,0.9303398728370668,0.5182735323905945
3.5278610839843765,0.9902828839164228,4.152636981078982,8.26913764989376,-0.5407243967056274,0.8656231164932251,0.5438724160194397
3.5378269042968746,1.4275409863024948,3.849761118718981,8.236419621640444,-0.1346314549446106,0.7643846869468689,0.6022643446922302
3.5477919921874985,1.732345624767989,3.6135341957867135,8.36412245696783,0.2358691394329071,0.6316776871681213,0.6873046159744263
3.557758056640626,1.8081787182569504,3.4074408375725147,8.44439250999093,0.5391416549682617,0.4517902731895447,0.7690963745117188
3.5677238769531243,1.707620641095191,3.195165283592045,8.41147515977323,0.7618277072906494,0.2808199822902679,0.8181911706924438
3.5776901855468743,1.4477335872426629,3.1129195465818045,8.445464523136616,0.8898312449455261,0.1994619816541671,0.8445559144020081
3.5876562499999984,1.0135798075474798,3.0336253528535364,8.43627876164019,0.9305071234703064,0.2185145914554596,0.8519410490989685
3.5976220703125,0.4688811750095337,2.93794496473074,8.414985213720797,0.8834991455078125,0.2919904291629791,0.837872326374054
3.6075881347656207,-0.1828786329738795,2.935245058122277,8.082745894232392,0.7556845545768738,0.3851696848869324,0.769398033618927
3.6175532226562517,-0.8584810888376087,2.9372973144769667,7.555080448755621,0.5749672055244446,0.4728468060493469,0.6489933729171753
3.62751904296875,-1.519285788542032,2.9362416679441927,6.897173589384556,0.3627446889877319,0.4853942990303039,0.4641923606395721
3.637485107421874,-2.003160753739625,3.0563989101976152,5.950878242689371,0.1489559859037399,0.4245559871196747,0.2495524883270263
3.6474511718750016,-2.3876253505058584,3.113532125522196,4.889078447982668,-0.0002612336538732,0.3633860349655151,0.0304387845098972
3.657417236328129,-2.723544673681259,3.273113323408365,3.9474966858059166,-0.0401255562901496,0.4157147407531738,-0.1619855165481567
3.667383056640624,-2.838820573633909,3.2182650041505694,3.288396817258,0.029282808303833,0.5949574112892151,-0.2695264518260956
3.6773481445312513,-2.7435195402175188,2.898613363556564,2.711480141878128,0.1576780676841735,0.8043862581253052,-0.3122411668300628
3.6873142089843753,-2.241442124983668,2.52517168058604,1.9218945292860268,0.3416886627674103,0.8806260228157043,-0.301944762468338
3.6972800292968735,-1.6289546622678637,2.0117770447850227,0.8790589627683162,0.5463859438896179,0.7800381183624268,-0.2523804008960724
3.707246093750001,-1.4386800738237795,1.880386753116548,-0.044196869122982,0.764893114566803,0.5817660689353943,-0.2200663387775421
3.7172121582031252,-1.524403569947183,1.91718006798476,-0.6474141069293021,0.9840651750564576,0.3763974606990814,-0.2156481593847274
3.7271782226562493,-1.6717415184624491,1.6324220461174843,-0.9854396086037158,1.1659433841705322,0.1982849091291427,-0.2726475596427917
3.737143066406251,-1.5311599123395978,1.1450845193758603,-1.4037076907724142,1.3001315593719482,-0.001190384151414,-0.3516814112663269
3.747109130859375,-1.223324820137024,0.5413064328163862,-2.0326824701696635,1.4002217054367063,-0.2149316817522049,-0.4399184286594391
3.757075195312499,-0.7890104430526494,-0.162865334123373,-2.821911524409056,1.4659777879714966,-0.4155771732330322,-0.5484867691993713
3.7670410156250007,-0.2741300987385213,-0.6477846938073635,-3.680139296072721,1.47752845287323,-0.6086698174476624,-0.6041156649589539
3.777007080078125,0.0002314706683158,-1.1828905184179543,-4.505851284056901,1.37816059589386,-0.7706560492515564,-0.574293851852417
3.786973144531249,0.357427390628308,-1.996520438942313,-5.313770425719023,1.1357452869415283,-0.9006142616271973,-0.5250659584999084
3.7969379882812504,0.9201115425162016,-2.9251398436933758,-6.267213306081295,0.7843254804611206,-0.9836164712905884,-0.4591532349586487
3.8069040527343745,1.2493285915739831,-3.9042064101338383,-7.157432545289397,0.393322616815567,-1.041500687599182,-0.3758713006973266
3.8168701171874986,1.345318045645952,-4.702794244349002,-8.173603976765275,0.0497692450881004,-0.9702733755111694,-0.2908152639865875
3.8268361816406262,1.401820854112506,-5.465170947498083,-8.984850801545381,-0.2777323126792907,-0.8255283832550049,-0.1745028495788574
3.8368020019531244,1.2308452787697317,-5.929739593070745,-9.737462482005355,-0.6076215505599976,-0.6323400139808655,-0.0582207180559635
3.8467680664062485,0.9627961804453284,-5.857257125183939,-10.20885717420578,-0.9164499640464784,-0.4031227827072143,0.030651893466711
3.8567341308593797,0.8822637501589954,-5.705977599436045,-10.279918669378755,-1.2125239372253418,-0.2147371619939804,0.1277046799659729
3.866698974609374,1.174647152338177,-5.839847140699625,-10.295668027174472,-1.4805152416229248,-0.1529308408498764,0.278326153755188
3.8766652832031276,1.6266263654507696,-6.076679043787718,-10.328189656072857,-1.64883291721344,-0.1281919330358505,0.4819527864456177
3.886631103515626,1.798566840302944,-5.985217150142788,-9.869787716436386,-1.6719862222671509,-0.0334908626973629,0.6727325916290283
3.8965969238281275,1.7599945330634712,-5.613669318094849,-8.876913573917745,-1.5967655181884766,0.0647086799144744,0.8035017848014832
3.9065629882812516,1.8257096987724304,-5.030252759301662,-7.694803392222523,-1.4958224296569824,0.0870064496994018,0.8731766939163208
3.9165290527343792,2.116077377215028,-4.416244955150783,-6.350552099025249,-1.384984254837036,-0.0102138444781303,0.9247586131095886
3.9264941406249996,2.3489345314532515,-3.94780706692934,-4.767642271834611,-1.275249719619751,-0.1882360428571701,0.9416900873184204
3.9364599609375013,2.3329769377343355,-3.436698496238887,-2.841450337615609,-1.1803704500198364,-0.4438220262527466,0.896216094493866
3.946426025390622,1.926447516415268,-2.8398458250284198,-1.0899760878771545,-1.0940814018249512,-0.7400912046432495,0.769372820854187
3.9563920898437495,1.3234607263639568,-2.115041019904613,0.593217237317562,-1.0340652465820312,-1.0104063749313354,0.6061474084854126
3.966357910156251,0.5952412904910743,-1.398172852998972,2.1061995418012143,-1.0381149053573608,-1.191515326499939,0.452147513628006
3.9763239746093753,-0.2302067858599126,-0.5879007184699178,3.452879523450136,-1.0889815092086792,-1.1933481693267822,0.3348259627819061
3.986289062499999,-0.8215043802265077,0.0700894352704286,4.760436870500445,-1.1441110372543335,-1.0336400270462036,0.2708564102649688
3.996254882812501,-1.2154274179507043,0.6130567870363592,5.751555109262466,-1.1864476203918457,-0.8179195523262024,0.2480405569076538
4.006220947265621,-1.3860709117949008,1.108240351103246,6.297543562415242,-1.2113215923309326,-0.5916842818260193,0.220477893948555
4.016187011718749,-1.3735945843204855,1.5967074663966894,6.468207003068923,-1.1921918392181396,-0.396653801202774,0.2142679393291473
4.026153076171877,-1.3082520513162017,1.8474661880284544,6.4713458856165404,-1.099737524986267,-0.1978822946548462,0.2311743944883346
4.036118896484375,-1.1726532020419835,1.979174751865864,6.622394525218009,-0.933176040649414,-0.0555019825696945,0.2642173171043396
4.046084960937499,-0.924831264514476,2.011497058799862,6.530400132131576,-0.7022230625152588,0.0050211618654429,0.2829237878322601
4.05605004882813,-0.5358711829598993,1.951987761993706,6.322526612502336,-0.423595130443573,-0.0595610253512859,0.2666920721530914
4.066015869140621,-0.2291629393627867,1.9854820353165268,6.03693097076714,-0.117535188794136,-0.2025966793298721,0.2260106205940246
4.075981933593749,0.0393776870719157,1.9853376584097744,5.888203467589617,0.2196409851312637,-0.3733764290809631,0.1742166578769683
4.085947998046873,0.3126843588646501,1.896377518452704,5.802821186119318,0.5650591254234314,-0.5400548577308655,0.1373168379068374
4.095914306640626,0.4750746228221804,1.8142583304315805,5.8903410641402,0.8783131837844849,-0.63520348072052,0.0919181853532791
4.105880126953124,0.7545468132410198,1.7494193630352617,6.097865624201297,1.1109888553619385,-0.7037342190742493,0.0201433654874563
4.1158461914062485,0.937095045216754,1.7141592490836977,6.062469316649437,1.2703074216842651,-0.7371443510055542,-0.0759520083665847
4.12581103515625,0.9677443043719977,1.8010802844285965,6.053069035619497,1.3565571308135986,-0.7107890248298645,-0.1391185969114303
4.135777099609374,0.8328414014726877,1.7913485794872044,6.174170280724764,1.353310227394104,-0.6163123250007629,-0.1955736130475998
4.145743164062502,0.6636524903509765,1.8389885748013848,6.217208627462386,1.2633548974990845,-0.4709344506263733,-0.2584702372550964
4.15571020507813,0.5321670677449554,1.8479770601600407,6.16281828110516,1.1250425577163696,-0.3218445479869842,-0.2991982400417328
4.165676025390621,0.4386497759401798,1.7775804586365818,5.965685351198911,0.9774782657623292,-0.173213317990303,-0.3215997219085693
4.1756418457031295,0.2203288043156266,1.7389602206021546,5.701330065891146,0.8239534497261047,-0.0290747918188571,-0.3350417613983154
4.18560791015625,-0.056808951806277,1.8449600504264236,5.290393057262897,0.692057192325592,0.1390999108552932,-0.3475885093212127
4.195572998046874,-0.2427968759071081,1.8797291659906503,4.766764319956303,0.6378730535507202,0.3035916686058044,-0.3827009499073028
4.2055390625000015,-0.345905258606188,1.8534744885325432,4.092748037305474,0.6879801154136658,0.4352994859218597,-0.4327234625816345
4.2155048828125,-0.4263629431558772,1.7010899241521953,3.392929204878211,0.8174555897712708,0.5058809518814087,-0.4945836067199707
4.225470947265624,-0.4648514445694163,1.5242755596533415,2.604961548876762,0.9836222529411316,0.4611842036247253,-0.5593304634094238
4.235437011718751,-0.4008688748067244,1.3537255162462591,1.7915449788421391,1.1385468244552612,0.317039281129837,-0.6297023296356201
4.24540283203125,-0.2178083093946799,1.1391788024634122,1.0505489173740148,1.2479331493377686,0.142651230096817,-0.7310536503791809
4.255368896484374,-0.2018699866318143,0.9639464464589952,0.3496796991109848,1.3054862022399902,-0.0430691093206405,-0.8213227987289429
4.265333984375001,-0.3488222054988145,0.5759159739047288,-0.3367395535171031,1.2638897895812988,-0.2374069988727569,-0.8546841144561768
4.275299804687499,-0.6652057842075825,0.1808686083257198,-1.3376537946283815,1.0948344469070437,-0.3668805658817291,-0.931473433971405
4.285265869140623,-1.0564553649388253,-0.0800087717384099,-2.525757079258561,0.8325588703155518,-0.4258352816104889,-1.0495555400848389
4.295231933593751,-1.4204453289531171,-0.6973159096956253,-4.333136756092309,0.5923441052436829,-0.2725860774517059,-1.1742857694625854
4.305197998046875,-1.5739590434938668,-1.661642003121972,-5.818051488476991,0.4484999775886535,0.1031871810555458,-1.282760739326477
4.315163818359377,-1.21738739291206,-2.5946640267461536,-7.313010645014047,0.466021180152893,0.5402502417564392,-1.3075435161590576
4.325129882812501,-1.0181669892072678,-3.149271255162358,-8.696497385534643,0.5804699659347534,0.9128296971321106,-1.1969223022460938
4.335095947265621,-1.0524158802896737,-3.070468352082372,-9.595480945956709,0.7214870452880859,1.0155985355377195,-1.015257716178894
4.3450607910156265,-0.4972449901087209,-3.091355072766542,-10.647066220641136,0.7675887942314148,0.7020609378814697,-0.8402865529060364
4.355026855468751,0.4488174611460417,-3.3712434427708384,-11.559760911029576,0.6916487812995911,0.2285314798355102,-0.6439862251281738
4.364992919921875,1.4438099840581415,-4.074202326789498,-11.584843914359809,0.4962864816188812,-0.300067663192749,-0.3638496994972229
4.374958984374999,1.8800965379983183,-4.765267943918705,-11.4595282664299,0.2097823023796081,-0.612027645111084,-0.0227317847311496
4.3849248046875005,1.7660329364448786,-5.209975120201706,-10.512506943547724,-0.1209380775690078,-0.6158771514892578,0.345679223537445
4.394890869140621,1.4670515973053873,-5.511126058465242,-9.377693935078382,-0.5026593208312988,-0.45633065700531,0.6863731741905212
4.404856933593749,1.2615601505070924,-5.54302049537599,-8.648954128593205,-0.8751062154769897,-0.2496063411235809,0.9807265400886536
4.41482275390625,1.1343025747291744,-5.3999967567980285,-7.967600342661142,-1.146739840507507,-0.0184767208993434,1.2493596076965332
4.4247880859375,1.0603908046916126,-5.022009247091412,-7.204519875156879,-1.2623159885406494,0.1115564703941345,1.4553195238113403
4.434753906249998,0.9789651518926024,-4.441071061110496,-6.444084953725338,-1.2493189573287964,0.088205337524414,1.5218836069107056
4.4447197265625,0.8312201569464057,-3.80565660405457,-5.319673512282967,-1.140559196472168,-0.1105729714035987,1.4428211450576782
4.454685791015621,0.8503438134808092,-3.246664292421937,-4.071264519771933,-0.9899932742118835,-0.4334154725074768,1.3002135753631592
4.464652099609374,1.0262680242069064,-2.963703675365448,-2.626288414543867,-0.8598780632019043,-0.7905333638191223,1.1499849557876587
4.474618164062502,1.0962639359749853,-2.767511825701594,-1.0880249538093805,-0.7876206040382385,-1.09442138671875,0.9907286763191224
4.484583984375,1.1021008254349232,-2.391499123199284,0.6815022544920444,-0.8154749870300293,-1.2673317193984983,0.8754138350486755
4.494550048828128,1.049305420118943,-1.882109923647344,2.3920237315952777,-0.9394176602363586,-1.281999111175537,0.8405663967132568
4.5045151367187515,0.915036796535179,-1.314980482788384,3.9068443574219938,-1.1200568675994873,-1.113336205482483,0.8703538775444031
4.51448095703125,0.6747920162636787,-0.6555804622501135,5.194505163869262,-1.314046025276184,-0.7935765385627747,0.9444507360458374
4.524447021484374,0.4346691088061779,-0.0201496385812759,6.1494227929592125,-1.4741212129592896,-0.4013245403766632,1.031920075416565
4.534413085937501,0.3324190599694848,0.4863464698776602,6.824117705523968,-1.5865942239761353,-0.0202474985271692,1.0827033519744873
4.544379150390622,0.2381521188411861,0.931904125510156,7.122393965134024,-1.637597680091858,0.2918435633182525,1.081289529800415
4.554344970703127,0.1494612242795527,1.4029691473647952,7.281108609318733,-1.624156475067139,0.531855046749115,1.0239678621292114
4.564310791015622,0.1453632874414324,1.865850862763822,7.308368372166156,-1.5317449569702148,0.7124096155166626,0.9111679792404176
4.574277099609375,0.2584844935782253,2.194470530450344,7.254960607105493,-1.3496580123901367,0.821007490158081,0.7727221846580505
4.5842429199218735,0.6040826224640011,2.369599426080286,7.058689262464642,-1.088538646697998,0.8152756690979004,0.6572158932685852
4.594208007812501,1.0998485164634884,2.33387812435776,6.731012720847129,-0.7707603573799133,0.6848816871643066,0.5959389805793762
4.6041740722656215,1.6286686849333345,2.1668892805635926,6.381054204794764,-0.4151917994022369,0.5071824193000793,0.5458047986030579
4.61413989257813,1.981575967788696,2.0734376744061707,6.233516788184643,-0.0528213270008564,0.329451322555542,0.4847236275672912
4.624105957031251,2.072724557700753,2.0681357686057686,6.166354638537764,0.2859210669994354,0.141374260187149,0.417292445898056
4.634072021484375,1.9452184139892457,2.049606424702704,6.028708501344918,0.568052351474762,-0.0135370232164859,0.3546469211578369
4.644038085937499,1.7544228704109788,2.029654354520142,6.012652269557118,0.7809587121009827,-0.0932902991771698,0.2754256427288055
4.654003906250001,1.543641062119603,2.09440155197978,6.147611944144964,0.921776294708252,-0.136582925915718,0.1760812252759933
4.663969970703125,1.145207634298876,2.21293177755326,5.989086100530624,1.0002704858779907,-0.101390928030014,0.0717261880636215
4.673936035156249,0.7005613944228738,2.2240461690247058,5.998747078323364,1.0124672651290894,0.0159514062106609,-0.0294507630169391
4.68390087890625,0.3474071510691195,2.143380686943233,6.0332175032019615,0.946525812149048,0.160957857966423,-0.1307813823223114
4.6938669433593745,0.0601981558531522,2.2098162758812308,5.813830071389675,0.8414766192436218,0.3815371096134186,-0.2288458943367004
4.703833007812499,-0.1820389672793448,2.30762753855288,5.609798029619455,0.7482962608337402,0.6609405875205994,-0.2829408943653106
4.713799072265626,-0.3991463253304362,2.2289497231572866,5.254973368835449,0.7099291682243347,0.9388214349746704,-0.3010083138942718
4.723764892578124,-0.5536915748760104,2.2162077304840087,4.746564412492513,0.7400453686714172,1.157171368598938,-0.3119801878929138
4.733730712890626,-0.5545535985328257,2.317147354309261,4.149173688882589,0.8335462808609009,1.242057204246521,-0.3281370401382446
4.74369702148438,-0.4245763154674321,2.304892268370092,3.489416817730665,0.9874266386032104,1.200206637382507,-0.3593671321868896
4.753662841796874,-0.1131317640634253,2.020251443141699,2.8705934299916027,1.1558529138565063,0.9761102199554444,-0.4165659844875335
4.763628906249998,0.1536710239943116,1.727446892940998,2.1618910338848827,1.2645403146743774,0.6666456460952759,-0.5119158625602722
4.773593994140626,0.0425160946954973,1.7429644878074526,1.7053034501940012,1.321960687637329,0.3736425340175628,-0.5819447040557861
4.7835598144531275,-0.2216810409084893,1.4141978128656745,1.2988392030656335,1.358600378036499,0.163918912410736,-0.6207712888717651
4.793525878906252,-0.3930495793579146,0.7895008569180965,0.738714088010788,1.3629252910614014,0.0342847518622875,-0.6835039258003235
4.80349169921875,-0.6556161911506205,0.1958802994966506,-0.0184200383096933,1.3283861875534058,-0.0023057688958942,-0.7656656503677368
4.813458251953129,-1.1025989842154085,-0.4380447957843542,-0.8465186291694641,1.2186897993087769,0.0352373421192169,-0.8496138453483582
4.82342407226562,-1.5298518984809517,-1.0581617304652928,-1.719634173363447,0.9814902544021606,0.122762992978096,-0.979397714138031
4.8333901367187515,-1.7827074462614954,-1.3619172982692718,-2.897422984728217,0.6589428186416626,0.2440742403268814,-1.134147882461548
4.84335595703125,-1.7152622418895362,-1.6324293526411056,-4.37077178248167,0.3970600068569183,0.4247403740882873,-1.2289921045303345
4.853322021484374,-1.2648242668695746,-2.038349409890175,-5.890513498097658,0.2771384119987488,0.6149026155471802,-1.2173911333084106
4.863288085937501,-0.5962034135214984,-2.5548750371932982,-7.5867235412538045,0.2824388146400451,0.5808234810829163,-1.121823787689209
4.873252929687499,0.2225293830998241,-3.082387337934971,-9.809442845588922,0.3521497249603271,0.3019894659519195,-1.0236256122589111
4.883219238281249,0.9761462950795888,-3.6493314853549,-11.599727010715007,0.4189252853393554,-0.1014924272894859,-0.9288342595100404
4.893185058593751,1.482277515748888,-4.245720338445902,-12.482028900927304,0.4046773612499237,-0.5365389585494995,-0.7719221115112305
4.903150878906249,1.4158207378923893,-4.694337381649017,-12.72683835876584,0.2459424138069152,-0.88145911693573,-0.5351461172103882
4.913116943359373,0.8630529267977922,-4.859115855917334,-12.244331905442476,-0.0070088920183479,-0.9735994338989258,-0.2732276618480682
4.923083007812501,0.3135657082764431,-4.953367672541737,-11.17534307601452,-0.3383630514144897,-0.8396736979484558,-0.0091312229633331
4.9330490722656215,0.1111483351612463,-5.047480957478284,-10.111674564826489,-0.6980815529823303,-0.6037805080413818,0.2942276000976562
4.94301489257813,0.3006448336386121,-5.194875166225433,-9.224461521697044,-0.976205825805664,-0.3229195773601532,0.6240511536598206
4.952980957031251,0.6565002805087715,-5.269462497437,-8.350977144190669,-1.1048353910446167,-0.0924181938171386,0.9047898650169371
4.962947021484375,1.1271830250475554,-5.117354704171419,-7.494393632602692,-1.116424322128296,-0.0456670895218849,1.090132474899292
4.9729118652343764,1.5514992282740772,-4.738226207736134,-6.646161769774555,-1.0346535444259644,-0.1858281791210174,1.1944663524627686
4.98287817382813,1.8513009438857435,-4.271119568118452,-5.462006930509209,-0.9200516939163208,-0.4548694789409637,1.2356410026550293
