time,ax,ay,az,gx,gy,gz
0.0,0.2172271667721681,4.744815522998571,4.076307774636149,-0.3024265170097351,0.4620140790939331,-0.8769930005073547
0.00996533203124983,0.2559294388005509,4.08108214943111,3.4893355691879986,-0.2304862737655639,0.4388371407985687,-0.8323935866355896
0.019930175781250004,0.22057709825458,3.364426163971424,2.898196307188272,-0.1460099965333938,0.4132935702800751,-0.8095600605010986
0.029896240234374982,0.1624843171828426,2.4219705415695905,2.1417256132125853,-0.089267611503601,0.3270210027694702,-0.7820211052894592
0.03986083984375011,-0.0741856185428798,1.5540134030520916,1.0820049628674984,-0.0994778051972389,0.1794395446777343,-0.7693765163421631
0.049826904296875085,-0.2717267639238387,0.4129185378342866,0.0131271925985813,-0.149559885263443,0.0294319409877061,-0.7317564487457275
0.059791992187499865,-0.5055774592440575,-1.074247188347578,-1.054905359017849,-0.2309147417545318,-0.0603065676987171,-0.644428014755249
0.06975708007812509,-0.7420527309142053,-2.712384397241473,-2.224217433938384,-0.3694063127040863,-0.0610879398882389,-0.5250864624977112
0.07972314453125007,-1.3317441321931778,-4.069657669097185,-3.477774895253777,-0.600307047367096,-0.0311685483902692,-0.4424829185009002
0.0896879882812498,-2.086577580355853,-4.951176884499192,-5.423435500052571,-0.913218915462494,-0.0554243512451648,-0.4587063491344452
0.09965405273437478,-2.263470124657452,-6.034210021370649,-7.489795783418416,-1.193870186805725,0.0895167365670204,-0.5755553841590881
0.109619140625,-1.5763978149481117,-7.223873394924402,-9.263927855166791,-1.3536944389343262,0.5558117032051086,-0.6701974272727966
0.11958422851562478,-0.1347296652242541,-8.2789459272027,-11.31812540705204,-1.304258942604065,1.2765254974365234,-0.4866159558296203
0.1295500488281247,2.006511671602726,-9.163188430088756,-13.060229770898818,-1.046030044555664,1.9740720987319944,0.04142577201128
0.13951513671874993,4.447419553354382,-9.76813819077611,-15.04364347550869,-0.6819760799407959,2.3091073036193848,0.6866928935050964
0.1494812011718749,6.691490857797861,-10.230269380068778,-16.3760587849617,-0.3005988895893097,2.219692707061768,1.2644684314727783
0.15944604492187509,7.785044804161787,-10.007318702816963,-16.986391992253065,0.0955322757363319,1.5871169567108154,1.6760764122009275
0.16941137695312491,7.70486184490025,-9.3489243521899,-16.874097153937814,0.4983817338943481,0.517956018447876,1.833746194839477
0.17937719726562484,6.557331393676996,-8.964030131834745,-15.545165594947337,0.9062089323997498,-0.7419906258583069,1.6804165840148926
0.18934204101562502,4.687454051876068,-8.335369825214148,-13.513916956973077,1.2901952266693115,-2.0324394702911377,1.2629530429840088
0.19930834960937505,3.396860406847298,-7.837819532015919,-10.620347725063562,1.5593128204345703,-2.898395299911499,0.8756991028785706
0.20927294921874973,2.746810982978344,-7.155346386665105,-6.319146906936168,1.597461223602295,-2.9753401279449463,0.6904155015945435
0.21923803710937495,2.334468783727288,-6.360936130395531,-2.3127859442293643,1.362075924873352,-2.4490349292755127,0.794813334941864
0.22920410156249993,2.3138202557131646,-5.209814376682043,0.9290963746130466,0.9138759970664978,-1.5066537857055664,1.0842397212982178
0.2391691894531247,2.5033915181934834,-3.616439854100346,3.4503315925329923,0.355900764465332,-0.4275192022323608,1.4360188245773315
0.24913403320312488,2.705127557981014,-1.6311188545644282,4.895476040065288,-0.2148761749267578,0.4512286186218261,1.7360068559646606
0.25910009765624986,2.306675498525053,0.6424082614660263,5.377252425548434,-0.6819859743118286,0.903145968914032,1.9356751441955569
0.2690651855468751,1.4190838313415646,2.6728210331380367,5.49609916972518,-0.9631681442260742,0.9286451935768129,1.930773377418518
0.279031005859375,0.1292291681118309,4.50063384166956,5.713162542504072,-1.1000899076461792,0.6454592943191528,1.6897274255752563
0.2889960937499998,-1.2105601772405206,5.768056746730208,5.44279661860466,-1.1256182193756104,0.0670143589377403,1.2832562923431396
0.298961181640625,-1.8477561108857392,6.353378846883773,5.439780485653877,-1.0958741903305054,-0.4899422824382782,0.8655532598495483
0.30892724609375,-2.241802774989605,6.759549079501628,6.0081374224811785,-1.048538327217102,-0.7914853692054749,0.5000501275062561
0.3188920898437497,-2.409079203553498,6.949221172007918,6.438462437668442,-0.9539229273796082,-0.7762920260429382,0.2643920183181762
0.3288581542968747,-2.205414533790946,6.873525002771616,6.789020673179626,-0.8376978039741516,-0.4753042161464691,0.1193674579262733
0.3388229980468749,-1.8485827709682283,7.085577853912115,6.607643530809879,-0.6854516267776489,-0.0489003024995327,0.0665278881788253
0.34878906249999986,-1.4990122313201426,7.170880055883527,6.283139189487695,-0.4609473943710327,0.375820904970169,0.0895077735185623
0.3587541503906251,-1.1215800174087285,7.04332393555045,6.077521924352646,-0.1799083948135376,0.7558383941650391,0.1394615024328231
0.3687189941406248,-0.7508759427085518,6.855750276628136,5.869316396290063,0.0934794694185257,0.995986819267273,0.2030468732118606
0.3786850585937498,-0.5302968899589031,6.561318417486548,5.620263309532404,0.2717113494873047,1.0796356201171875,0.230928435921669
0.388650146484375,-0.4121252685647457,6.200629248583317,5.510779436984658,0.3653283715248108,1.0086290836334229,0.2074204385280609
0.39861596679687494,-0.2474655983705073,5.689011267066001,5.464080814173817,0.3850883841514587,0.8117830157279968,0.1534461826086044
0.4085810546874997,-0.2883423831600695,5.221246455800533,5.456641019561887,0.335413247346878,0.5363655686378479,0.0527344830334186
0.41854614257812495,-0.5211016299817711,5.001531107208132,5.329605708232521,0.2708889842033386,0.2479968667030334,-0.111847385764122
0.4285122070312499,-0.7697661558132618,4.863043258494138,5.264362543949485,0.2090210765600204,-0.0279423035681247,-0.3209848999977112
0.4384770507812501,-0.9781059777799992,4.740703996026515,5.150435135996341,0.141609787940979,-0.2699648439884186,-0.5129518508911133
0.4484421386718749,-1.2647178838856517,4.736682485425472,5.099271350470185,0.0863119214773178,-0.4089653491973877,-0.6482968926429749
0.45840820312499986,-1.4920017680361866,4.747877833178639,5.048120424425601,0.0612605586647987,-0.4486633539199829,-0.7439811825752258
0.4683732910156251,-1.6215237816147503,4.680263848111033,4.921126029628515,0.0549691095948219,-0.3782642781734466,-0.7700449824333191
0.478339111328125,-1.7569405523203312,4.610639107742905,4.931873049092292,0.0703743696212768,-0.177293375134468,-0.7616119980812073
0.4883041992187498,-1.7851805583767593,4.375327546089888,4.757553424018621,0.111653633415699,0.0561691746115684,-0.7297019958496094
0.49826904296874996,-1.657070749683678,3.945989788374305,4.469866947484016,0.1744097173213958,0.2733849585056305,-0.714750349521637
0.5082348632812499,-1.3808153293542562,3.357056511986256,4.137243012592196,0.2486916631460189,0.4281692206859588,-0.7350505590438843
0.5182001953124997,-0.9341966203615067,2.4568156449794767,3.534312775033712,0.3397993147373199,0.4645903706550598,-0.777163565158844
0.5281660156250001,-0.4616485203422605,1.7338257803231476,3.149895524540544,0.441631406545639,0.4441785812377929,-0.8463253378868103
0.5381311035156249,-0.2132764563850127,1.3005775711655616,2.943820578765869,0.4857486188411712,0.3339959979057312,-0.9010915756225586
0.5480961914062501,0.2437311245499178,0.8355202652931213,2.365500466328859,0.4215555191040039,0.136110633611679,-0.9357734322547911
0.55806201171875,0.994666432762891,-0.0060036243289709,1.5915525678515434,0.2582804262638092,-0.0607140250504016,-0.8577458262443542
0.5680270996093748,1.344233903671056,-1.0951514446884394,0.1702788252502679,0.0159806981682777,-0.1450573951005935,-0.6617597937583923
0.5779931640624998,0.8822080744490027,-2.2397738995105025,-1.4098393253952264,-0.2218303978443145,0.073147140443325,-0.4515558183193207
0.587958251953125,0.2306227645159698,-3.0809231106013057,-2.997407792046666,-0.4641583263874054,0.6037306189537048,-0.3614818751811981
0.5979230957031247,0.0757886332927271,-3.6442858924031256,-5.267983072534204,-0.7327532768249512,1.357906937599182,-0.2852979302406311
0.6078891601562497,0.8754825655862688,-4.166842616564035,-7.220843817970156,-0.9007151126861572,2.251729249954224,-0.0676833391189575
0.6178542480468749,2.974824788838625,-5.043128022965789,-9.595292729908229,-0.9027012586593628,2.907870054244995,0.3878166675567627
0.6278200683593749,5.632387462568283,-5.724401144877076,-12.466646622878311,-0.7665410041809082,3.001405477523804,0.948397934436798
0.6377851562500001,7.630687186142802,-6.227862707945704,-15.46281932017207,-0.4024457037448883,2.400402307510376,1.4995357990264893
0.6477499999999998,8.379442775696516,-7.534023632201552,-17.26333963263035,0.2351965457201004,1.351470112800598,1.856406569480896
0.6577160644531248,8.13821702156365,-8.280448148459195,-17.42099687671661,0.941040813922882,0.1110932454466819,1.8400616645812988
0.667680908203125,7.281746907222271,-9.057430884587763,-16.31076652083993,1.5123642683029177,-1.1951515674591064,1.5453509092330933
0.67764697265625,6.40843905532658,-10.115151301026344,-13.91872759167552,1.6902083158493042,-2.3219242095947266,1.2435203790664673
0.6876120605468747,5.407289251893759,-11.186844128715991,-10.67577559777498,1.3546169996261597,-2.9005794525146484,1.145674467086792
0.6975771484375,3.620595804736018,-11.830624847579,-6.904503493881225,0.6802111268043518,-2.691542625427246,1.2450295686721802
0.7075432128906249,0.7337938750043511,-11.845831769061087,-3.62113298035264,-0.1522301286458969,-1.7910754680633545,1.394042730331421
0.7175080566406247,-2.0737585769236087,-10.80524719634056,-0.9059329411685466,-1.0030248165130615,-0.4957998394966125,1.402102828025818
0.7274741210937501,-3.4889100372523068,-9.110448773548006,0.4710141684502363,-1.781467318534851,0.6906402111053467,1.2884819507598877
0.7374392089843749,-3.2706805433034893,-7.061583230340481,1.154589722084999,-2.382347583770752,1.5035911798477173,1.1155619621276855
0.7474042968750001,-2.075172389244288,-4.509592808672785,1.4336854804068804,-2.755805253982544,1.8794788122177124,0.9673663973808287
0.7573701171875,-0.7762269493252039,-1.920516811192036,1.2254817059099674,-2.8152332305908203,1.7879040241241455,0.8827103972434998
0.7673352050781248,0.0450981653442606,0.3014005291104316,0.6590946078509092,-2.5367705821990967,1.267770767211914,0.8703994154930115
0.77730029296875,-0.2897450530322268,2.2315870859235525,0.6451508381724357,-1.9928412437438965,0.5475988388061523,0.8390487432479858
0.78726611328125,-1.4667092136085031,4.138568123716116,1.1185182917505505,-1.3572185039520264,-0.1982966512441635,0.6732839941978455
0.7972309570312497,-2.690826645427942,5.499947077324986,1.7248177134811875,-0.743766725063324,-0.8054455518722534,0.4013678729534149
0.8071970214843751,-3.4182676442742346,6.107265320709347,2.647584300550818,-0.2101515382528305,-1.1590451002120972,0.1499694585800171
0.8171621093749999,-3.550014202034473,6.339851256790757,3.793834064313769,0.2071269452571869,-1.2587040662765503,-0.0192157626152038
0.8271269531250001,-3.18510332378298,6.486181051176786,4.862921677941084,0.4977070689201355,-1.1385363340377808,-0.1239083558320999
0.837093017578125,-2.359773028592765,6.276532923090458,5.600955966994166,0.6967797875404358,-0.9268945455551147,-0.1757178753614425
0.8470581054687498,-1.6085525102302431,6.070618136313557,5.773533716836571,0.8720623850822449,-0.7433825135231018,-0.2093386799097061
0.8570241699218748,-1.1183606169708074,6.075727442151308,5.415423458510637,1.13553786277771,-0.6717967391014099,-0.2671443819999695
0.8669892578125,-0.8213087115239351,5.913117544093728,5.2471945515275,1.479596495628357,-0.6795657277107239,-0.3483002185821533
0.8769541015624998,-0.6062273063424974,5.839475969299674,5.38904573919475,1.759768009185791,-0.7316911220550537,-0.4537660777568817
0.8869201660156247,-0.5980670885015279,5.777474563416838,5.7574102650314565,1.9011884927749636,-0.7987849116325378,-0.5588136911392212
0.8968852539062495,-0.6154426592595875,5.497864425832033,6.1664376406461,1.8904179334640503,-0.8482081890106201,-0.6458678245544434
0.9068510742187503,-0.3229746475368737,5.264630839496851,6.664112437006831,1.7423664331436155,-0.8254147171974182,-0.700598418712616
0.9168161621093751,-0.0679486238494515,5.065839036467671,7.002560548007488,1.453177809715271,-0.7312725186347961,-0.7147591710090637
0.9267812499999999,0.125555886426568,5.136348742976784,7.026329546129703,1.0846788883209229,-0.5679400563240051,-0.7193286418914795
0.9367473144531249,0.3445166172593832,5.195045846617221,6.999138756865262,0.7226029634475708,-0.3164906799793243,-0.6869592070579529
0.9467119140624995,0.3654508303470909,5.15881191919744,6.8469514686226844,0.4373615980148315,-0.0043974965810775,-0.6233690977096558
0.9566779785156245,0.2936451657433062,5.350026564970612,6.376336528623104,0.2665896415710449,0.2713499963283539,-0.5716429352760315
0.9666430664062502,0.1231816315758973,5.491254652303457,5.654354964226484,0.1923055499792099,0.4283311069011688,-0.5292800068855286
0.9766118164062498,-0.2310770658884197,5.70399022501111,5.018465290874243,0.1816543191671371,0.4670538008213043,-0.5516456365585327
0.9865778808593748,-0.480606464920938,5.837417283204197,4.496392550837993,0.2266889065504074,0.4245090186595917,-0.6457441449165344
0.9965427246093745,-0.6140970898695289,5.726614729273319,4.366303697156906,0.3053308427333832,0.3873904049396515,-0.7732130885124207
1.0065078125000002,-0.4154308859813958,5.337917609503865,4.253981970834732,0.3603679835796356,0.3547054529190063,-0.8784968852996826
1.0164738769531252,0.1019144236741587,4.659484679454565,4.058085889247059,0.4360867738723755,0.3437013626098633,-0.9243327379226683
1.02643896484375,0.968080623654276,3.757368666225672,4.063254816317558,0.503440797328949,0.3451794385910034,-0.90104341506958
1.03640478515625,1.6424682238355277,3.014303981789946,3.856195535680651,0.4494637846946716,0.2913661599159241,-0.8101204633712769
1.0463696289062496,2.002303698518872,2.389289922717213,3.4951661750376224,0.2897750437259674,0.250576376914978,-0.6919618844985962
1.0563347167968753,1.979556444659829,1.4522592479735612,3.017646862477064,0.0783252790570259,0.2489406019449234,-0.5713013410568237
1.0663005371093752,1.4400912557959555,0.6648574091613292,2.3142554322600364,-0.204852893948555,0.3051998615264892,-0.4710226655006408
1.076265869140625,0.8474684772402048,-0.3101046445697545,1.095899632707238,-0.5413390398025513,0.3595622479915619,-0.4093818068504333
1.086231689453125,0.2270540574500337,-1.2611737815380095,-1.1351502775996922,-0.8361181616783142,0.369865745306015,-0.417177140712738
1.0961967773437498,-0.6976344010602682,-2.2830986619740723,-3.853280525016785,-0.9529263377189636,0.3754452764987945,-0.4594627022743225
1.1061616210937495,-2.0670745691150425,-3.2840883064091204,-6.621926907706261,-0.8963767886161804,0.4354017972946167,-0.5604768991470337
1.1161276855468745,-2.9450732091754674,-4.182234246963263,-8.90025353297293,-0.7655144333839417,0.6353779435157776,-0.6934691667556763
1.1260927734375001,-2.789408015689254,-5.26552749607563,-10.449420665037632,-0.6033316850662231,0.9795238375663756,-0.7449949383735657
1.1360588378906251,-1.670834778881073,-6.746412534552812,-11.291335599803924,-0.4371605217456817,1.3477236032485962,-0.6256134510040283
1.14602392578125,0.3366370795233175,-8.070759103840588,-11.787351523041725,-0.318668782711029,1.5768598318099976,-0.4032909572124481
1.1559887695312496,2.4612235245496032,-9.170876646503803,-12.113166362440586,-0.2092191725969314,1.634778380393982,-0.1668394058942794
1.1659548339843746,4.1188609682053325,-10.280050771325826,-12.00677870234251,-0.0449032038450241,1.5003238916397097,0.0638332068920135
1.1759199218750003,4.93957997020781,-11.040154853367804,-11.672172653722765,0.0707932934165,1.1294130086898804,0.2151634991168975
1.185884765625,5.071287949523329,-11.023002643036842,-11.261699170953037,0.0809362083673477,0.5580571293830872,0.2551513910293579
1.1958505859375,4.797253566244244,-10.851784491109848,-10.475637640833854,-0.0207900665700435,-0.0385929010808467,0.2334390133619308
1.2058156738281247,4.361496004614234,-10.595216790938377,-9.14003727160394,-0.2163345366716385,-0.4548681378364563,0.2445140331983566
1.2157817382812497,3.7638589050278064,-10.076858102989195,-7.689529251211881,-0.4340554177761078,-0.5987338423728943,0.334322065114975
1.2257465820312503,2.8509353743195534,-8.970284516054392,-6.331615343365073,-0.5748279690742493,-0.4134324491024017,0.4486084282398224
1.2357119140625001,2.147970352821052,-7.571603713533282,-4.7970045599192375,-0.6253405213356018,0.0049047293141484,0.5920531749725342
1.245677734375,1.928017980602384,-6.085885263550281,-3.798230837967992,-0.5938885807991028,0.3950277268886566,0.7408930063247681
1.2556425781249998,2.386581832802296,-4.649406353032589,-3.0175352187961337,-0.4905332922935486,0.6055660843849182,0.8777141571044922
1.2656088867187498,2.898250959984958,-3.0566373951286074,-2.1795973709672687,-0.3931804001331329,0.5553074479103088,1.0067410469055176
1.2755737304687496,2.678034383872151,-1.4461305359601977,-1.3900140964627266,-0.3179666399955749,0.2621819674968719,1.073986291885376
1.2855388183593752,1.6725573648899792,0.1774438945740461,-0.7676222025871277,-0.2433925420045852,-0.2134679108858108,0.9845736026763916
1.2955048828125002,0.5447130629220978,1.6529203520059583,0.0567173280000686,-0.1848173141479492,-0.6413941383361816,0.7954501509666443
1.305469970703125,-0.4501216390797868,2.7183967893987893,1.354831723922491,-0.1791631579399109,-0.8738572001457214,0.6414848566055298
1.3154348144531247,-1.36393024552688,3.629239714440703,2.604654090362787,-0.2376399636268615,-0.8335269093513489,0.5753784775733948
1.3254006347656246,-2.1268677974291146,4.572467490258813,3.919100612404942,-0.3314799070358276,-0.497925728559494,0.5850074291229248
1.3353657226562503,-2.6978552288904782,5.479482965967059,4.705346851441264,-0.4280072450637817,0.0156654864549636,0.6428110003471375
1.3453315429687502,-2.933177604198456,6.333599795180559,5.177361136844754,-0.4667085707187652,0.5640886425971985,0.7194058895111084
1.355296630859375,-2.7451445110708472,6.878223389720916,5.259841267132758,-0.4068126082420349,0.984706461429596,0.7855958938598633
1.3652617187499998,-2.3047043445825577,7.045069902434944,5.116418300104141,-0.2258454859256744,1.2078219652175903,0.8208540081977844
1.3752277832031248,-1.8651462216258048,7.216377486211061,4.900074473771452,0.0485322773456573,1.1758630275726318,0.8187713027000427
1.3851926269531245,-1.4630838627181946,7.184031798401475,4.739854101198912,0.3888514935970306,0.9468189477920532,0.7308585047721863
1.3951586914062495,-1.1695971754722296,7.101463405308127,5.096759075388312,0.7490513920783997,0.6152560710906982,0.5699126720428467
1.4051237792968752,-0.8010616769827902,6.808237999346852,5.640937848770618,1.0292960405349731,0.2392430305480957,0.3854533433914184
1.4150886230468749,-0.458292122586444,6.367865052875876,6.336516559410095,1.1639645099639893,-0.0755614042282104,0.2328164428472519
1.425054931640625,-0.265078247553762,5.956164074137806,7.222047348541021,1.1513863801956177,-0.2235362231731414,0.1248015537858009
1.4350197753906246,-0.1256054794556461,5.642675632348657,7.953246823137998,1.005473494529724,-0.2294406145811081,0.0565816760063171
1.4449855957031246,-0.096302155016642,5.504017103242874,8.100622327184677,0.7493167519569397,-0.1731421947479248,0.0411896705627441
1.4549509277343753,-0.1914032271478325,5.454933631122112,7.943888043162226,0.4764586985111236,-0.0191158764064311,0.0542366728186607
1.464916015625,-0.2233279495989903,5.443547729232907,7.878333328711986,0.2692621052265167,0.2713612020015716,0.0591371543705463
1.4748818359375,-0.2727874519579112,5.205746104329824,7.506144860672951,0.1492969691753387,0.5435365438461304,0.0597444474697113
1.4848464355468747,-0.4576172189995646,5.125718627890945,6.75993778655827,0.1165462210774421,0.7400378584861755,0.0558032318949699
1.4948129882812498,-0.6872197553560138,5.183446594238281,6.001846797904372,0.143148586153984,0.8000247478485107,0.013888569548726
1.5047775878906253,-0.8494206342212856,5.037414321494103,5.069402281907201,0.2883422672748565,0.7370351552963257,-0.0571565814316272
1.51474267578125,-0.7135502745293081,4.473695565861464,4.475469005274772,0.5441320538520813,0.6195700168609619,-0.1294942945241928
1.524708740234375,-0.5609094338329509,3.778727096074819,3.928322614258528,0.7883061170578003,0.3869128227233886,-0.2003506124019622
1.5346735839843748,-0.3103276031380519,2.9976848554223774,3.593448854613304,0.9726789593696594,0.1078692898154258,-0.3081238865852356
1.5446386718749996,0.0880414907421916,1.9630635750204324,3.4274878925621506,1.0295766592025757,-0.2082290202379226,-0.4089421033859253
1.5546047363281246,0.2914215714097022,1.0624895305365325,3.213416102814674,0.963913083076477,-0.4568917155265808,-0.4672000706195831
1.5645698242187502,0.4832888724053278,0.035539515414834,2.8822750999569893,0.7948814034461975,-0.5917220115661621,-0.5023330450057983
1.5745356445312502,0.3673266706889495,-0.8376923486351966,2.4358646268874407,0.5628284811973572,-0.4863484799861908,-0.5115048885345459
1.5845009765625,-0.050165860529989,-1.4988795448511838,1.7776468018710612,0.2543068826198578,-0.262625902891159,-0.4818812310695648
1.5944658203124997,-0.4194727817833423,-2.078005128452182,0.6080342826992273,-0.0934302881360054,0.0276905205100774,-0.4699986577033996
1.6044316406249997,-0.4489695829678327,-2.7624422673523426,-0.8829203143715858,-0.4176301956176758,0.3466639816761017,-0.4723710417747497
1.6143969726562495,-0.2279866986576467,-3.758674488127232,-2.948601383301616,-0.6039249300956726,0.6116580367088318,-0.4394359886646271
1.6243627929687503,0.357427025302127,-5.086361600014567,-5.800099652200937,-0.5260061621665955,0.7199246287345886,-0.4191544353961944
1.634327880859375,1.0931937347494065,-6.43535219669342,-8.434425827249884,-0.1414218693971634,0.6961805820465088,-0.4355941116809845
1.6442924804687498,2.0502990831419825,-7.79842918639183,-10.381550659382343,0.4379189908504486,0.4662485718727112,-0.4794819355010986
1.6542587890624998,3.3766181215465068,-9.127588124397397,-11.525759272706509,1.0029102563858032,0.0281283259391784,-0.525011420249939
1.6642236328124995,4.928544781452417,-10.930708974742888,-11.285564030665158,1.3752635717391968,-0.4540417790412903,-0.4346961975097656
1.6741887207031252,6.024236324366926,-12.705975603479146,-10.03688381999731,1.4209926128387451,-0.853645384311676,-0.2265152037143707
1.6841547851562502,5.997116846773028,-13.528548708915707,-8.385169336649774,1.127977728843689,-1.1462838649749756,-0.0116660185158252
1.69411962890625,4.872619480612873,-13.518976578450202,-7.070533429515361,0.5085775852203369,-1.352033257484436,0.1708691865205764
1.7040856933593749,3.2387831837832928,-12.874403247904777,-5.994784019911289,-0.3302635550498962,-1.3562467098236084,0.2987762689590454
1.7140507812499997,1.2782254541039466,-11.550309192073344,-5.2227282187908886,-1.2137612104415894,-1.0791220664978027,0.3537030816078186
1.7240158691406253,-0.4361851393923163,-9.820186357921362,-4.572139573478698,-1.923739552497864,-0.5248397588729858,0.3633272051811218
1.7339816894531253,-1.327409902381152,-7.911534172046184,-4.167406095665693,-2.4074599742889404,0.1276864558458328,0.3684201836585998
1.743947021484375,-1.5158812407955526,-6.010125381428003,-4.140513412564992,-2.6000123023986816,0.7228680849075317,0.3817250728607178
1.753912841796875,-1.2238850843682885,-4.024071975964308,-3.993310342475772,-2.5074586868286133,1.203296422958374,0.3690215051174164
1.7638776855468747,-0.363026233548671,-2.1346137353807686,-3.676045304757357,-2.1816530227661133,1.4230455160140991,0.3720548450946808
1.7738430175781246,0.7620548507835716,-0.6255149943321943,-3.319775121340156,-1.7006186246871948,1.2274378538131714,0.4182072877883911
1.7838088378906245,1.787384644292295,0.6994102516263723,-2.665701556521654,-1.165394902229309,0.6660932898521423,0.4887312352657318
1.7937736816406251,2.23021112139523,1.843569765111804,-1.705672283506393,-0.6510260105133057,-0.1045373082160949,0.5415270924568176
1.80373974609375,1.841572892206162,2.9781857897043227,-0.5174667075455188,-0.2045542597770691,-0.9087701439857484,0.5295771956443787
1.8137045898437498,0.8536307992622256,3.953512000572682,0.6132780285716056,0.1464362442493438,-1.576980471611023,0.4784635901451111
1.8236696777343746,-0.1448642153454944,4.663583346945047,1.82796653778851,0.3868834376335144,-1.969159483909607,0.416859358549118
1.8336357421874996,-0.958115329152718,5.054843010678887,2.927151768037677,0.5554032921791077,-2.05299711227417,0.3623518049716949
1.8436008300781253,-1.6341398098208009,5.208945777153969,4.09497448118329,0.6082646250724792,-1.800073266029358,0.3407623469829559
1.8535666503906252,-2.0428550507463514,5.409811463847756,5.124478856962919,0.5387510061264038,-1.301344633102417,0.3756250441074371
1.86353173828125,-1.9370240016177296,5.412190467938781,5.813128645122051,0.4289432764053345,-0.7283715009689331,0.449943482875824
1.8734968261718747,-1.5286599122174085,5.382959697279333,5.993916004905104,0.3626372516155243,-0.2543842196464538,0.5041452050209045
1.8834626464843747,-0.9188497058868408,5.508737702023983,5.961296760851145,0.3185592591762543,0.0228617843240499,0.5290031433105469
1.8934277343749994,-0.4038428491162136,5.635188491463661,5.629293588206171,0.3481796383857727,0.0548682138323783,0.5075133442878723
1.9033937988281253,-0.1239611280484125,5.589687554004788,5.38583905210793,0.4567311704158783,-0.0857605412602424,0.434412270784378
1.91335888671875,-0.0674288377590477,5.538156688731909,5.45243830717504,0.5537112355232239,-0.2654706835746765,0.3165054023265838
1.9233234863281248,-0.2421425401842221,5.417949177595973,5.747410264542698,0.5780794024467468,-0.3777649998664856,0.1579916775226593
1.9332900390624999,-0.4213759485235437,5.221168714389204,6.047578036987781,0.5386635661125183,-0.4046225249767303,-0.0276031959801912
1.9432546386718745,-0.4486971592346206,4.962702487120032,6.28993659454286,0.4062946140766144,-0.3491352796554565,-0.1731241792440414
1.9532197265625002,-0.4478808378830551,4.839286535331607,6.433926547804474,0.1842432618141174,-0.2087635248899459,-0.2570399343967438
1.9631857910156252,-0.5767396383125335,5.0691111900061365,6.428468866920471,-0.0670462101697921,0.0059815300628542,-0.3099849224090576
1.9731477050781252,-0.736384476019442,5.38369502581656,6.082386900040507,-0.2620673179626465,0.2472420185804367,-0.3392945826053619
1.9831137695312502,-0.7800141397137195,5.497759796413779,5.462324325895309,-0.3369215726852417,0.4608461856842041,-0.3556801974773407
1.9930783691406249,-0.7536637467961758,5.6087073117733,4.932913498055934,-0.2741219401359558,0.6452630162239075,-0.3761759102344513
2.0030434570312496,-0.6526214663140475,5.588820708042383,4.3591029719978565,-0.1086901053786277,0.7158340811729431,-0.4008104205131531
2.0130095214843746,-0.4904152902191505,5.528641256889701,3.703993634390831,0.0954540446400642,0.6442527174949646,-0.4440353214740753
2.0229743652343752,-0.2406954831810668,5.222050757920742,3.2431530694305897,0.3374187350273132,0.4882876276969909,-0.5018869042396545
2.0329406738281253,0.002865472433716,4.669597492668032,2.920429181784391,0.5989526510238647,0.2622826695442199,-0.542418897151947
2.042905517578125,0.2824866794018075,3.959278893536329,2.580747729596496,0.8242499828338623,-0.0090146102011203,-0.5680230855941772
2.0528706054687498,0.3961413713607937,3.009917145007849,2.296851877516508,0.999339759349823,-0.2641576826572418,-0.5838771462440491
2.0628366699218748,0.1893508611952886,2.0775667370349167,2.240800904470682,1.0671297311782837,-0.4597330391407013,-0.6156694293022156
2.0728017578124995,-0.1401251219264697,0.9230752146273852,1.9941116242349144,0.9977700710296632,-0.599319338798523,-0.6761107444763184
2.0827675781249995,-0.3839547110153362,-0.3733206869393587,1.7011738030433654,0.782206654548645,-0.6369304060935974,-0.7392793297767639
2.092732421875,-0.6039433601237834,-1.747182105502486,1.1544213797807692,0.4326019585132599,-0.5456489324569702,-0.7783621549606323
2.10269775390625,-1.0061107137758285,-2.816743181860447,0.2169423767477273,0.0336029157042503,-0.3119752109050751,-0.7896438837051392
2.11266357421875,-1.351079385651648,-3.365471289110184,-0.97638653357625,-0.3465637266635895,0.0289106033742427,-0.7932044863700867
2.1226286621093746,-1.7471156161375343,-3.5467215902298688,-2.501425186556577,-0.6309671998023987,0.4231788218021393,-0.7585810422897339
2.1325947265624996,-2.0930719108112155,-3.864389948052168,-4.097375697106123,-0.7522560954093933,0.8390368819236755,-0.6937556266784668
2.1425598144531253,-1.6504937093809249,-4.587218484666943,-5.581781895446777,-0.7227069735527039,1.167814016342163,-0.6504424810409546
2.1525244140625,-0.6935964507810771,-5.370036502820253,-7.333397599482536,-0.5758915543556213,1.271750569343567,-0.6710585355758667
2.162490478515625,0.674872899480164,-6.394827878603339,-8.785450511229037,-0.3175444006919861,1.1452785730361938,-0.7129958271980286
2.1724555664062497,2.6077862509086724,-7.830529959529638,-9.843844296884535,-0.0124245546758174,0.783759593963623,-0.7363958358764648
2.1824204101562503,4.85964601727128,-9.229611744067071,-10.2336970164299,0.2989802062511444,0.2739666402339935,-0.6986473798751831
2.1923867187499995,6.485951334074139,-10.05745665242672,-9.900582667672634,0.4820586442947387,-0.4252939224243164,-0.4984456896781921
2.2023515625,6.716179893374442,-9.924954892385005,-8.880768495780229,0.4354844987392425,-1.1119047403335571,-0.1946450322866439
2.2123173828125,6.197763922280073,-9.386600879633423,-7.408556008580327,0.1255978345870971,-1.628718614578247,0.111372135579586
2.22228271484375,5.346597175043821,-8.975541705930233,-6.327431335678696,-0.3288756906986236,-1.873457789421081,0.3982382416725158
2.2322478027343746,3.899280936430394,-8.570309046423434,-5.500417032924294,-0.764801561832428,-1.7680989503860474,0.7042253017425537
2.2422136230468745,2.225539622452855,-7.906752198466658,-4.632907638174295,-1.1090515851974487,-1.3615472316741943,1.0046863555908203
2.252178466796875,0.5955741391746326,-6.79979282708466,-4.090951217016578,-1.34778094291687,-0.8253651261329651,1.183743238449097
2.262144775390625,-0.8441154404852539,-5.330813330456614,-3.602636954197288,-1.4007993936538696,-0.276083379983902,1.169339895248413
2.272109619140625,-1.5545872574172912,-3.795049869844317,-3.161913879114389,-1.3065924644470217,0.0927237942814827,1.0073504447937012
2.2820744628906247,-1.3680018788799642,-2.409334347358346,-2.580951727735996,-1.132832407951355,0.2403891384601593,0.797844648361206
2.2920407714843747,-0.620036270660162,-1.295875677084923,-1.6001988156437872,-0.9302507042884828,0.1803666353225708,0.6100689172744751
2.3020053710937503,0.0898876117992214,-0.1825210517078637,-0.6866828720003366,-0.7060593962669373,-0.0851550549268722,0.4845698475837707
2.3119714355468752,0.6848200738031417,0.8574714003384113,0.3652753276497125,-0.5234159827232361,-0.4407888948917389,0.4221459627151489
2.3219365234375,1.0610575980372727,1.872187956830859,1.5303274070382118,-0.3968298137187958,-0.7667166590690613,0.411073088645935
2.331901611328125,1.1567625360794365,2.694129778626561,2.5056121168524026,-0.3642080128192901,-1.024460792541504,0.4365197420120239
2.3418674316406247,0.9171073922641576,3.541643264052272,3.219284702587128,-0.414285808801651,-1.15484356880188,0.4727872014045715
2.3518327636718745,0.363401569667086,4.310959411075711,3.877274564066529,-0.5025465488433838,-1.0657272338867188,0.4954606890678406
2.361797607421875,-0.166532405263558,4.858224460035562,4.435283709880709,-0.5748382806777954,-0.7824356555938721,0.5130274295806885
2.371763427734375,-0.488055319622159,5.212679702985287,4.586286172252893,-0.6131788492202759,-0.4141353368759155,0.5271298289299011
2.381728759765625,-0.5692785817168653,5.555000856027007,4.612710068798065,-0.5840979814529419,-0.0265076998621225,0.5180348753929138
2.391694580078125,-0.4515555078078061,5.745474912565946,4.354260208141803,-0.4571578502655029,0.2783153057098388,0.4875234961509704
2.4016596679687496,-0.1761637916356325,5.787033834400773,4.130938359490036,-0.2180874645709991,0.4740693569183349,0.4452663064002991
2.4116245117187503,0.1558718950394541,5.669412248104811,4.1364585842162365,0.0745281130075454,0.5664912462234497,0.3983816504478454
2.4215908203125003,0.5080711757559329,5.535709295579791,4.269810823607444,0.3713493943214416,0.5304394960403442,0.3325448334217071
2.431555419921875,0.8092970058865845,5.357941575878859,4.483991334426403,0.6568939685821533,0.3820239305496216,0.2378956526517868
2.441521728515625,0.9798981949590146,5.111680165666342,4.870498250675201,0.8746941685676575,0.1882224977016449,0.11837138235569
2.4514865722656247,1.0058196218747646,4.8809740519821645,5.365362665790319,0.9899412393569946,0.0277981124818325,-0.0136607028543949
2.4614514160156244,0.9026435442343352,4.684033429777622,5.944057456758618,1.0078177452087402,-0.0631019696593284,-0.1217360347509384
2.4714174804687503,0.7094372862525283,4.575058091273903,6.392318526130914,0.9430914521217346,-0.0618438050150871,-0.213744655251503
2.481382568359375,0.3951850935492664,4.582582641559839,6.7426885455936185,0.8149166703224182,0.0347956493496894,-0.2989130914211273
2.49134765625,0.0330004253912717,4.64582440289259,6.90828008981049,0.6364126205444336,0.2192979305982589,-0.369802862405777
2.5013134765625,-0.2338026914600282,4.679436165115237,6.855193811789155,0.4500459134578705,0.4349181056022644,-0.4257047176361084
2.5112788085937496,-0.4286037443526089,4.704094221031665,6.419100150072574,0.2707960903644562,0.6256343126296997,-0.4694640636444092
2.5212446289062496,-0.4516647768685594,4.604965153759718,5.770553824242949,0.1509650349617004,0.8208661079406738,-0.4975015223026275
2.53120947265625,-0.3393903602868318,4.183182925990224,4.984608613979816,0.1056831628084182,0.9683617353439332,-0.4911358058452606
2.5411748046875,-0.0813662872945889,3.649870414537191,3.9839498089343306,0.1136265769600868,1.0230419635772705,-0.4873277544975281
2.551140625,0.1852544221945107,3.0121015033096072,2.957062922176718,0.1616440862417221,0.9916960597038268,-0.4796822369098663
2.5611057128906247,0.250690697896853,2.226364382839203,2.0501216807484623,0.2283972799777984,0.8809948563575745,-0.4663437902927398
2.5710717773437497,0.2451225058430805,1.2634504942983389,1.179248947045207,0.2557494640350342,0.7174678444862366,-0.4764742851257324
2.5810363769531253,-0.0492507778119528,0.4348281718254089,0.4033259491026401,0.2217853665351867,0.5204223990440369,-0.5201389193534851
2.59100146484375,-0.5362960207758471,-0.2952408374369144,-0.4866746789187192,0.1432815641164779,0.3307405114173889,-0.5961816906929016
2.600967529296875,-1.0246527710299935,-1.402200793340802,-1.3599725939422844,0.0681585818529129,0.2428218424320221,-0.6814785003662109
2.6109326171875,-1.6791645080700517,-2.3868261629521847,-2.191076796358824,-0.0351578705012798,0.2888947129249573,-0.8018829226493835
2.6208984374999997,-2.252207556886971,-2.913670939695835,-3.3022546622186897,-0.1612215191125869,0.4322545230388641,-0.9548184275627136
2.6308635253906245,-2.3946641631014645,-3.3797757087945937,-4.443817729470133,-0.2177589386701584,0.7178715467453003,-1.0641950368881226
2.64082861328125,-1.7080863589107989,-4.200735533815622,-5.514993839809298,-0.1677357256412506,1.0482121706008911,-1.0546973943710327
2.65079443359375,-0.2487492815054953,-5.55933976201415,-6.824524532759189,-0.03876643627882,1.2196632623672483,-0.9376620054244996
2.660759521484375,1.3799518443927168,-7.075520570278167,-8.022072522082924,0.0542806833982467,1.1043819189071655,-0.7618185877799988
2.6707246093749997,2.7683050219058987,-8.432315703228115,-8.88790784614086,0.0600387081503868,0.7695959806442261,-0.5593008995056152
2.6806906738281246,4.114219572140276,-9.985116223359109,-9.343776467907428,0.0213296599686145,0.3747400045394897,-0.3610410392284393
2.6906555175781253,5.059381238630413,-11.229476817262173,-9.615997664284706,-0.0687896236777305,-0.089188314974308,-0.1798687428236007
2.7006218261718753,5.288755811449885,-11.776072588658332,-9.639477908593417,-0.2410045266151428,-0.58335942029953,0.0074569410644471
2.710586669921875,4.956561500146985,-11.554840405762194,-9.283265008321404,-0.551510751247406,-1.0708017349243164,0.1977538764476776
2.7205515136718748,3.963046721637249,-10.821344929182528,-8.87325154427886,-0.9487438201904296,-1.4552825689315796,0.3676736652851105
2.730517822265625,2.432472938622534,-9.613515784341097,-8.310416001221537,-1.3065412044525146,-1.6147005558013916,0.4963441789150238
2.7404824218749995,0.8189975850373507,-7.929368519422411,-7.559865929466485,-1.5399470329284668,-1.4164048433303833,0.5559167265892029
2.7504484863281253,-0.7019627125881612,-5.991010931113362,-6.446863770788908,-1.5582900047302246,-0.8420610427856445,0.5290985703468323
2.76041357421875,-1.401015090687573,-4.143504411074519,-5.235467873376607,-1.391032576560974,-0.1443245410919189,0.4556357860565185
2.770378662109375,-0.9789739197209476,-2.535785136798024,-4.131647969064116,-1.1318079233169556,0.3821596205234527,0.3888923823833465
2.780344482421875,0.1544030280632898,-1.2503630491882562,-2.8297856187850234,-0.8419548273086548,0.6248814463615417,0.3309790194034576
2.7903095703124996,1.2175361537329852,-0.0884311476469039,-1.1879273435413835,-0.5502543449401855,0.595944881439209,0.2911959886550903
2.8002746582031253,1.867810764659941,1.047130048841238,0.383161697474122,-0.2790548503398895,0.3198334574699402,0.2862337231636047
2.810240478515625,2.0976358577258885,2.0764725120574234,1.7766805871874094,-0.0549593158066272,-0.0865695253014564,0.3168797194957733
2.82020556640625,2.0410820497244595,3.1479841379612683,3.2870863191813227,0.1064218580722808,-0.4870687425136566,0.3797955513000488
2.830171630859375,1.620899073845148,4.119302282232046,4.489906111428141,0.1929429471492767,-0.8251352310180664,0.4719995260238647
2.8401367187499997,0.9362062796834856,4.859799746528267,5.553735366135835,0.2331044822931289,-0.9857962727546692,0.5577471852302551
2.8501015624999995,0.1946940853867679,5.315939586451649,6.522065434506535,0.2420504689216613,-0.9472752213478088,0.6092026233673096
2.8600676269531253,-0.3525492266653105,5.631191530781984,7.015123092460632,0.1869930773973465,-0.7874698042869568,0.6585768461227417
2.870032470703125,-0.5806909697541967,5.781718192335963,7.28581401053071,0.1106018796563148,-0.52802574634552,0.6881327033042908
2.87999755859375,-0.5856336503207683,5.754627940836548,7.373204709213971,0.0579682290554046,-0.2462568879127502,0.6995323300361633
2.889963623046875,-0.4191591492569074,5.597545866289734,7.247987845483422,0.0657408237457275,0.0186470355838537,0.6949740052223206
2.8999284667968745,-0.0869845290351659,5.400805150571466,7.089422254380583,0.1180775314569473,0.208244651556015,0.6833040714263916
2.9098945312499995,0.3507344688609242,5.189553678941726,6.826255302074551,0.2219801247119903,0.2896627783775329,0.6607160568237305
2.919859619140625,0.5988551701392978,4.988951027098298,6.552665155431628,0.3507205247879028,0.2621387541294098,0.6138625144958496
2.92982470703125,0.5874545090723783,4.92426900382936,6.379065076804161,0.4603540301322937,0.1553451716899871,0.5319828987121582
2.93979052734375,0.4595660880450159,4.889997900915145,6.249164439171552,0.5306788086891174,0.0126503370702266,0.4302056729793548
2.9497556152343747,0.2116207433335483,4.83542050755322,6.203291161268949,0.563746452331543,-0.0899965837597847,0.2993559837341308
2.9597216796874997,0.0259820710618048,4.766182136154175,6.255894039687514,0.5674540996551514,-0.098724290728569,0.1683567017316818
2.9696865234375003,-0.1080041553840041,4.60482954468131,6.197964997810125,0.5392954349517822,-0.0685521215200424,0.0549160502851009
2.9796513671875,-0.2628640969019383,4.640910911887884,6.112152508229017,0.4764900505542755,0.0056257043033838,-0.0571689382195472
2.989617431640625,-0.4317489835757762,4.773603810587525,5.884003677812219,0.4119367301464081,0.1023467481136322,-0.1717215180397033
2.9995825195312498,-0.5146567281587049,4.901313660177588,5.459509852996468,0.3834435641765594,0.2130942940711975,-0.2576875686645508
3.0095471191406244,-0.3899365619039163,4.797628829297423,4.941917473244667,0.4278931021690368,0.3137699961662292,-0.2883965373039245
3.0195131835937503,-0.1285182068308815,4.468540082794427,4.389737179714441,0.5330823659896851,0.3913998007774353,-0.2854201793670654
3.029478271484375,0.2237105922410264,4.001325306627154,3.85955595202446,0.6798625588417053,0.4177216589450836,-0.2631467580795288
3.039444091796875,0.5538769048476592,3.436456211915612,3.3287153836429115,0.8601081967353821,0.3676270842552185,-0.2219114601612091
3.049409423828125,0.8825573262780905,2.759915963745117,2.801951855441928,1.0362616777420044,0.2259523123502731,-0.1452426761388778
3.0593742675781246,1.0547540409136562,2.021417564311624,2.25154792393446,1.184841871261597,0.0510444194078445,-0.086661659181118
3.0693403320312496,0.981223598343879,1.1991694530457258,1.8219962312072515,1.2613407373428345,-0.1295127272605896,-0.0725804418325424
3.07930517578125,0.7524277021951973,0.4558300433218479,1.0457914937138555,1.2404589653015137,-0.3509202003479004,-0.1208363845944404
3.0892705078125,0.3318811902331188,-0.329662162476778,0.1430646551102399,1.1298662424087524,-0.5422742962837219,-0.1935628056526184
3.099236328125,-0.1186165521500632,-1.4011439777642487,-0.8678554317086935,0.899715006351471,-0.6407955288887024,-0.273089051246643
3.1092014160156247,-0.615889599309489,-2.4898645126223564,-1.9649644402056927,0.5430712103843689,-0.5947604775428772,-0.3549807071685791
3.1191674804687497,-1.2100035662710666,-3.240919611290097,-3.215014185661077,0.1153576970100402,-0.3424544632434845,-0.4364736974239349
3.1291323242187503,-1.6940711314313113,-3.756104929900169,-4.38196186953783,-0.2489518076181411,0.1485325247049331,-0.4591701626777649
3.139097412109375,-1.8312340151518585,-4.259371847179532,-5.794260278522968,-0.4807792007923126,0.7465839385986328,-0.4104393720626831
3.1490634765625,-1.2843585500314831,-5.114027605575322,-7.526852717658877,-0.5226723551750183,1.2564657926559448,-0.29786416888237
3.1590283203125,-0.2466778089936822,-6.373969799491762,-9.19977716229558,-0.436538815498352,1.470693588256836,-0.1708899885416031
3.1689941406249997,1.262405661420524,-7.92224670471847,-10.670758061873912,-0.3774893283843994,1.3456796407699585,-0.0302342642098665
3.1789592285156245,2.9603233852773903,-9.704678402778503,-11.346074905729294,-0.3880013525485992,0.9696162343025208,0.1422650665044784
3.18892431640625,4.02750019684732,-10.88915414456129,-11.497734955227374,-0.5272377729415894,0.4020124077796936,0.3630683422088623
3.19889013671875,3.980907080237567,-11.111789179992677,-11.056264276647568,-0.8197993040084839,-0.1820249259471893,0.6022516489028931
3.20885546875,3.224788268439472,-10.824537587743997,-10.559053590667247,-1.2108598947525024,-0.6838641166687012,0.8156284689903259
3.2188203124999997,1.8985839424557984,-10.209439358007907,-10.16237716258168,-1.5657691955566406,-0.9963753819465636,1.0108200311660769
3.2287863769531246,0.164416582153365,-9.21204978389144,-9.628542673081158,-1.7419171333312988,-0.988666296005249,1.1350077390670776
3.2387512207031253,-1.518474764420092,-7.898675859516858,-8.467150869765877,-1.7071067094802856,-0.5749929547309875,1.131234049797058
3.2487172851562502,-2.526136433964968,-6.511621781903505,-6.980983506971597,-1.559443473815918,0.0126308761537075,1.0307165384292605
3.258682373046875,-2.4114193369388577,-5.305814498278498,-5.717106896215677,-1.398939847946167,0.4943626523017883,0.8708429932594299
3.2686472167968748,-1.679499439112842,-4.073911819410323,-4.266306030356883,-1.253617525100708,0.787590742111206,0.7031993269920349
3.278613525390625,-0.8218086969353258,-2.9398072514712807,-2.5821616880476475,-1.1185272932052612,0.8776074647903442,0.5706186294555664
3.2885783691406245,0.0285177818181924,-1.8861323110312225,-1.183641044524312,-0.9835343956947328,0.7343107461929321,0.4962462186813354
3.298543212890625,0.5258895949106663,-0.7607137383729219,0.1386637898027896,-0.8515496850013733,0.4330635964870453,0.4535935521125793
3.30850927734375,0.6260848301094025,0.5224333900421858,1.3812182110667228,-0.7323554754257202,0.0566675327718257,0.4286393523216247
3.318474365234375,0.3951820978745818,1.7598060247540472,2.663299756076932,-0.625827968120575,-0.2143479883670807,0.435306578874588
3.328440185546875,-0.0140687112323939,2.7606547994136807,3.8541847803801295,-0.5303335785865784,-0.3129812180995941,0.4911448061466217
3.3384052734374996,-0.3569496901139616,3.527533490157128,4.866526424434781,-0.4589086771011352,-0.2519157230854034,0.5770655870437622
3.3483703613281253,-0.5942267431536689,4.207686083605886,5.615933755895495,-0.4286798536777496,-0.099601425230503,0.6603338718414307
3.358336181640625,-0.5466049776159226,4.591801136282086,6.04206131939292,-0.4114332199096679,0.0923784002661705,0.7149620056152344
3.368301513671875,-0.3878485766487196,4.85727753457427,6.327822380822896,-0.3820064961910248,0.2808759808540344,0.744042694568634
3.3782663574218748,-0.1923483990434557,4.850967036253214,6.3542199738830325,-0.3155198693275451,0.4105035066604614,0.7625061273574829
3.3882324218749997,-0.1259883230270817,4.972905316704511,6.26205490040481,-0.2098423093557357,0.4529053568840027,0.7549403309822083
3.3981972656249995,-0.0294752469398081,4.993771579122543,6.128637779083848,-0.0535086318850517,0.4376412034034729,0.7121793031692505
3.4081633300781253,0.0899527677236124,4.901221890240907,6.055676003247499,0.1336399763822555,0.3813536167144775,0.6406151652336121
3.41812841796875,0.190167547873035,4.79189116242826,6.054008946818113,0.3104392290115356,0.2837538123130798,0.55096834897995
3.428093017578125,0.2241825936669483,4.621844392368197,6.013233868837356,0.4825055301189422,0.1588791757822036,0.4479699730873108
3.4380595703125,0.2111243015861138,4.466280321168899,6.019038171201944,0.6314055323600769,0.0553325489163398,0.3441213369369507
3.4480241699218745,0.132191013592109,4.353647044679522,6.078360128742456,0.741359531879425,-0.0171542558819055,0.2497545927762985
3.4579892578125,0.0634309272293001,4.288080055269599,6.033093584561348,0.8038990497589111,-0.0654677227139473,0.1682626605033874
3.467955322265625,-0.0692254753848537,4.28419999896586,6.043304012930393,0.8318480849266052,-0.076785422861576,0.0777256861329078
3.47792041015625,-0.1785551437515765,4.322814684042334,5.988138006025553,0.8367475271224976,-0.0623327232897281,-0.0149951931089162
3.48788623046875,-0.1951948014505207,4.296294341385364,5.855889928483963,0.8405163884162903,-0.026784960180521,-0.0991852805018425
3.4978513183593747,-0.1965976539857685,4.312642249596118,5.609558960166574,0.8582024574279785,-0.0243654791265726,-0.1750938892364502
3.5078164062499995,-0.2034909206308424,4.330373721119761,5.229781644433737,0.8964254260063171,-0.0409232266247272,-0.2525137662887573
3.5177822265625003,-0.3199177441842853,4.286059363096952,4.877202716749906,0.9568943381309508,-0.0499052703380584,-0.310288667678833
3.52774755859375,-0.4942574987305328,4.1123002945154905,4.5448102525264025,1.0659981966018677,-0.0056914868764579,-0.3604215085506439
3.53771240234375,-0.5119610228013247,3.728324358049035,4.266466189354658,1.1945321559906006,0.0373832769691944,-0.4141888618469238
3.5476782226562498,-0.4193612111676484,3.176245186805725,3.652596624630689,1.3175896406173706,0.0106181446462869,-0.4544651210308075
3.5576433105468745,-0.3341762423677369,2.4537550883650776,3.124975602817535,1.4223825931549072,-0.0631825774908065,-0.4857245087623596
3.5676093749999995,-0.2806829909807071,1.7051678411155935,2.566012517279386,1.4972997903823853,-0.1491082906723022,-0.5259085893630981
3.577574462890625,-0.1257199544144794,0.7860673753380775,2.033611859974265,1.528262734413147,-0.2213904708623886,-0.5716263055801392
3.5875390625,0.057000967247039,-0.0307528656601905,1.172264494985342,1.5250505208969116,-0.3167950809001922,-0.6454824209213257
3.59750537109375,0.1467157249636948,-0.7365069333553314,0.2254752272933721,1.4836817979812622,-0.437711626291275,-0.7226555347442627
3.6074702148437496,0.0744811674233525,-1.276505206182599,-0.8959095598042011,1.3605891466140747,-0.5585506558418274,-0.7950894832611084
3.6174353027343753,0.0273893075112253,-2.1224247004151344,-1.9797627808868885,1.17840576171875,-0.5935967564582825,-0.8746581077575684
3.6274013671875003,0.2131097763149067,-3.2924247575998304,-3.1638574143975973,1.0047520399093628,-0.4623261988162994,-0.938059151172638
3.6373662109375,0.5463984952583909,-4.768657586356997,-4.21125868139565,0.8714816570281982,-0.153979018330574,-0.9236884713172911
3.647332275390625,0.975283394639939,-6.093977384591102,-5.277360557210445,0.7282230854034424,0.2132084816694259,-0.8470552563667297
3.6572973632812498,1.7036302562847732,-7.203087212005257,-6.336895329594611,0.6046492457389832,0.5477350950241089,-0.7482684850692749
3.6672624511718745,2.798470150806009,-8.399421149364112,-7.193008301061392,0.4503626525402069,0.7525317668914795,-0.6044595241546631
3.6772282714843745,4.187430646562576,-9.758936647188662,-7.718267854440212,0.1974731534719467,0.804336428642273,-0.3737349212169647
3.687193603515625,5.493982031440734,-11.17808331463337,-8.074654357713461,-0.1828624755144119,0.7153050899505615,-0.0535132735967636
3.697158447265625,6.005176819109916,-11.936575285303592,-8.11879978891015,-0.7094863057136536,0.559715747833252,0.3050898909568786
3.707124267578125,5.646866069775819,-11.841235088920593,-7.988459590816498,-1.3653697967529297,0.3923568427562713,0.5926843881607056
3.7170891113281246,4.5746346051648255,-10.991143861961364,-7.879166272404789,-2.0496320724487305,0.3126724064350128,0.7743273973464966
3.7270554199218746,3.0270041811481114,-9.34354967341423,-8.011724146547913,-2.591350793838501,0.3392689228057861,0.8717079162597656
3.7370202636718752,1.3076719133406878,-7.194686463406682,-8.441264733359217,-2.7931246757507324,0.540939450263977,0.9143166542053224
3.746985107421875,-0.0552978622567374,-5.106875395733118,-8.428864101469516,-2.6103641986846924,0.9403009414672852,0.954631209373474
3.756951416015625,-0.5324086214158684,-3.379644775891304,-7.83129042250812,-2.1870858669281006,1.381804347038269,1.031014084815979
3.7669162597656247,-0.2183320410078391,-1.9844623368799683,-6.839115952691436,-1.6899120807647705,1.6457068920135498,1.120099663734436
3.7768813476562495,0.3217023625787347,-0.9307914880931376,-5.456788319078088,-1.1905707120895386,1.6520949602127075,1.2009761333465576
3.7868474121093745,0.7770219721604138,0.0175303959935903,-3.95963077571392,-0.716337263584137,1.362543702125549,1.2591450214385986
3.796812255859375,0.9315338308930396,0.9115835142761468,-2.617263981088996,-0.2823794782161712,0.8055787682533264,1.2885663509368896
3.8067783203125,0.6997654217395931,1.7341741553694008,-1.2543810526579615,0.1215806305408477,0.1142159551382064,1.285367727279663
3.816743408203125,0.2786089246530085,2.3900422023892403,0.1824690292596817,0.4731676876544952,-0.5409027934074402,1.237713098526001
3.8267084960937496,-0.3581143865117803,2.9727555813491344,1.732113131186366,0.7256597876548767,-1.0492438077926636,1.162810444831848
3.8366743164062496,-1.007709308078885,3.472873094686866,3.1043577622026204,0.8209205269813538,-1.3429312705993652,1.0745512247085571
3.8466396484375003,-1.6199615007340906,3.951922101032734,4.483110459938645,0.7584670186042786,-1.3659495115280151,0.9815178513526917
3.856604248046875,-2.210140685530007,4.33054264794588,5.6349780635833735,0.5960121154785156,-1.1218857765197754,0.8985337615013123
3.8665703125,-2.574879422084987,4.534060310453176,6.453830687192082,0.3985743522644043,-0.6878167390823364,0.8356242775917053
3.8765351562499997,-2.6595167304068803,4.62493475959897,6.925911023569107,0.1982010304927826,-0.1514081358909607,0.7905619740486145
3.8865012207031246,-2.480148297511041,4.673800205054879,7.110040094995498,0.0449495576322078,0.3577295541763305,0.7479742169380188
3.8964663085937503,-2.06433842214942,4.644432656273246,6.996927510556578,-0.0645748004317283,0.7413075566291809,0.6992999315261841
3.90643115234375,-1.5652505441203712,4.638588021898269,6.769885180076956,-0.1228557601571083,0.9655828475952148,0.6356465816497803
3.916397216796875,-1.0871692868281155,4.603751686316729,6.596572686219215,-0.0977807641029357,1.0337040424346924,0.5484510064125061
3.9263623046875,-0.7525317470915616,4.61581446455419,6.303472367942333,-0.0310893543064594,0.9328104853630066,0.4316820204257965
3.9363273925781246,-0.5205422060007229,4.6139533468574285,6.196586695194244,0.0694092884659767,0.7311208248138428,0.2895919978618622
3.9462934570312496,-0.3859071602573618,4.5328298918753855,6.157581549495458,0.1865672767162323,0.4670596718788147,0.1303794682025909
3.95625830078125,-0.3479801651841029,4.5198786403656,6.208096515724063,0.2859817445278168,0.2334684878587722,-0.0225861109793186
3.966223388671875,-0.3118594158152118,4.503113383525609,6.524968170210719,0.3314591646194458,0.0993266850709915,-0.1323592215776443
3.97618896484375,-0.3465624438732862,4.51904102049768,6.651695438504219,0.3292660415172577,0.0196065548807382,-0.2102263271808624
3.9861540527343746,-0.4153561402447521,4.547641676560044,6.60124476968348,0.2849673926830292,-0.0083521176129579,-0.2691019773483276
3.9961198730468745,-0.5716667554950341,4.642385660615563,6.589613368600607,0.1911306381225586,0.0622139275074005,-0.3182450234889984
4.006084716796876,-0.8835156499162315,4.909111182186007,6.48033524775803,0.1228706091642379,0.2009122520685196,-0.3693258464336395
4.0160498046874995,-1.1433776423927395,5.182327234819531,6.108665250635147,0.0822209194302558,0.3397755920886993,-0.4303180873394012
4.026015624999999,-1.3357133280850946,5.412571576210856,5.547693163362145,0.0811279863119125,0.4652806520462036,-0.5177415609359741
4.035980712890625,-1.1537519560866056,5.346026097157597,4.922527128598094,0.1615226864814758,0.5830700993537903,-0.5930200815200806
4.045945800781251,-0.5785665614787489,4.643195223432779,4.068272352218628,0.329428106546402,0.6009986400604248,-0.5802811980247498
4.055911865234375,-0.0433620211674598,3.751062844079733,3.200748928943276,0.5200377702713013,0.4991960823535919,-0.5140358805656433
4.065876708984375,0.1211413579199463,3.0997230881392954,2.2287954093784093,0.6740925908088684,0.2638475596904754,-0.4701460599899292
4.075843017578125,0.2434762912723235,2.1199229467272755,1.2060393388152122,0.8471274971961975,-0.0565472058951854,-0.4764377772808075
4.085807861328124,0.1902320644766092,0.8778197763621807,0.0979722984522581,1.0217851400375366,-0.4968117773532867,-0.5520308017730713
4.09577294921875,-0.2383836625747382,-0.1738333028614521,-1.2263678410947323,1.1229873895645142,-1.0669163465499878,-0.7283696532249451
4.105739013671874,-0.9804916308075188,-1.1880354800909756,-2.5063246490359306,1.074640154838562,-1.6511261463165283,-0.9951901435852052
4.115703857421876,-1.608741310800612,-2.5302374395430087,-3.631343408721685,0.8666713237762451,-1.9871156215667725,-1.300961136817932
4.125668701171875,-2.4146039583243426,-3.749801445841789,-4.3547476993978025,0.5336829423904419,-1.903658509254456,-1.530786156654358
4.135635009765625,-3.42289208920449,-4.286046503615379,-5.056645091664791,0.1539843678474426,-1.415523648262024,-1.6561282873153689
4.145599853515625,-3.648212418197095,-5.024172562605142,-5.964564822736382,-0.1584279239177703,-0.609464704990387,-1.661062717437744
4.155564697265625,-2.6136776470348235,-6.397670993074774,-7.110234156262874,-0.4016477763652801,0.2694069445133209,-1.5366415977478027
4.165530761718751,-0.8118591114595531,-7.975058257451653,-8.560442901447415,-0.6020517349243164,0.957836389541626,-1.321919322013855
4.175495849609375,1.5696579852990806,-9.748017193767428,-10.096570519196986,-0.7574184536933899,1.2479302883148191,-1.0680582523345947
4.1854609375,3.726568454292417,-11.203030708885192,-11.316432631659508,-0.8461604118347168,1.1169450283050537,-0.8203184604644775
4.1954267578125,4.694226614750922,-11.440716013932228,-12.098420044207572,-0.9259274005889891,0.6017985939979553,-0.655762255191803
4.205391845703124,4.937334237107634,-11.01740993759632,-12.131838329684731,-0.9945867657661438,-0.0763814449310302,-0.5850952863693237
4.21535791015625,4.935871178817749,-10.574968952679631,-11.657989814591406,-1.0938098430633545,-0.7140002846717834,-0.5165106654167175
4.22532275390625,4.811850246873497,-10.162370148319006,-10.933107852578162,-1.2282592058181765,-1.1894358396530151,-0.3250022530555725
4.235287841796875,4.382012722942233,-9.440740466099976,-10.15016416221857,-1.322724461555481,-1.4399412870407104,-0.04228375852108
4.245253906249999,3.4031098226308822,-8.168751860558986,-9.057246760192513,-1.3415502309799194,-1.2907370328903198,0.2416980266571045
4.255218994140625,2.298323411373794,-6.530609390968084,-7.651576244914532,-1.2695101499557495,-0.8393259048461914,0.4801747798919678
4.265183593750001,1.332240829668939,-4.630241633835435,-6.203859316545724,-1.1401090621948242,-0.2894890308380127,0.6545658111572266
4.275149658203125,0.8382600655205548,-2.7012556849837304,-4.823934067898988,-0.9910911917686462,0.1078801527619361,0.7172456979751587
4.28511474609375,0.7691892327081412,-0.9028209466278552,-3.3327982690423723,-0.8218749165534973,0.3405937254428863,0.6782117486000061
4.29507958984375,0.855789073274657,0.6926543476253747,-1.6728548865318298,-0.6128527522087097,0.3983044326305389,0.6255056858062744
4.3050458984375,1.0819234220638871,1.885395813450217,-0.2868324900537729,-0.4033046662807464,0.2744486331939697,0.618455708026886
4.3150107421875,1.325803636228293,2.9214930116236206,1.0780465806305408,-0.2188099026679992,0.080317236483097,0.6502863764762878
4.324975830078126,1.267797583591938,3.798972596246004,2.4285078343838453,-0.0660197511315345,-0.1094881519675254,0.7309532761573792
4.33494189453125,1.1645157074894756,4.4745477987766265,3.680167353123426,0.0488836653530597,-0.2014420479536056,0.8484165072441101
4.344906982421875,0.9760796595841644,4.940928462207317,4.808660510921478,0.1388533264398574,-0.1741041243076324,0.9971952438354492
4.354872802734375,0.6999042456883937,5.258182394009828,5.590332281649112,0.2374014854431152,-0.0855390951037406,1.1536716222763062
4.364837890624999,0.5294161616016179,5.524535575136542,6.109058049345016,0.3542644679546356,0.0052227634005248,1.2759708166122437
4.374802978515625,0.3555832240663468,5.7800733477383845,6.41422231490314,0.5022323727607727,0.0330216363072395,1.3415583372116089
4.384768798828125,0.0564626956518739,5.9268216597974295,6.574996814227104,0.6764218807220459,-0.0185671914368867,1.3373337984085083
4.39473388671875,-0.3838228282639757,5.995219488719106,6.690165746673941,0.8913024663925171,-0.141281396150589,1.2225449085235596
4.40469873046875,-0.6903634602092206,5.942574524724483,6.851850931102037,1.1165194511413574,-0.3301763236522674,1.0069910287857056
4.414664794921874,-0.7099978427447379,5.7208998587578535,7.038267821204662,1.3226110935211182,-0.531459629535675,0.7408741116523743
4.424629638671876,-0.6107417880922555,5.463574033695459,7.4642019079566,1.4612607955932615,-0.6592602133750916,0.4924453198909759
4.434594970703126,-0.4117945022404193,5.203269485083222,8.050586084383726,1.4885525703430176,-0.6781976819038391,0.2856301069259643
4.4445607910156255,-0.1312760176390409,5.003715465509892,8.601647603017092,1.388473391532898,-0.5761362314224243,0.1486991941928863
4.454525634765625,0.0848233324132859,4.913702017107606,9.008152182155849,1.1630065441131592,-0.3650389015674591,0.0718457028269767
4.464490966796875,0.2081885769277811,4.835153381049633,9.104186790543794,0.8661988377571106,-0.0988308787345886,0.0013544629327952
4.474456787109375,0.1891040833599865,4.80916144618094,8.846456476333737,0.55825275182724,0.1314089894294738,-0.0838552340865135
4.484421875000001,0.1040187390096485,4.854416884446144,8.323177867639064,0.2561515569686889,0.2970090806484222,-0.1860285252332687
4.494387939453125,-0.0113681470368057,4.823000586441159,7.639503529804944,0.0018108868971467,0.373607724905014,-0.3047024607658386
4.50435302734375,-0.2340896186426281,4.8983004498362535,6.889674758061767,-0.1723636239767074,0.3852289617061615,-0.4500925838947296
4.51431787109375,-0.3559723695144057,4.77689642239213,6.014484161159396,-0.2523343563079834,0.3334288895130157,-0.5774306058883667
4.524283935546874,-0.4616264546409249,4.469978006643057,5.151601257166266,-0.2053478807210922,0.2671947181224823,-0.6995040774345398
4.5342490234375,-0.5512035209199413,4.161918019643426,4.295726186108589,-0.0399938151240348,0.1520145982503891,-0.8146607875823975
4.5442136230468755,-0.5317931563986465,3.692003921389579,3.3066789084017274,0.1998772323131561,0.018745694309473,-0.8858396410942078
4.5541796875,-0.4403377655597403,3.073347706910968,2.755145096081495,0.4941373169422149,-0.1049011498689651,-0.8858463168144226
4.564144775390625,-0.2460429451562464,2.2443998057454824,2.194373499816656,0.7558814883232117,-0.2985355854034424,-0.8186851739883423
4.574109863281249,0.1348724712284282,1.2007552609324454,1.7288976762712,0.905290424823761,-0.5297136902809143,-0.7290354371070862
4.584075683593749,0.2894407363234088,0.2197849066972732,1.544860959303379,0.8981474041938782,-0.7766813635826111,-0.6701644062995911
4.594041015625001,0.0675484090181067,-0.6251140123158693,0.988164065131545,0.7295109629631042,-1.0996229648590088,-0.6855899691581726
4.604005859375,-0.2112755831576883,-1.6454694514781236,-0.1277946052640676,0.4418312013149261,-1.4945909976959229,-0.7080988883972168
4.6139716796875,-0.552051808312349,-3.024209289732575,-1.380919520381093,0.0755219236016273,-1.7683407068252563,-0.6910732984542847
4.62393701171875,-0.8994056582916528,-4.420439191970229,-2.592462132787704,-0.3399982452392578,-1.820770263671875,-0.6604450941085815
4.63390185546875,-1.7101244406096636,-5.547846308097243,-4.3537493360102175,-0.7412351369857788,-1.5773701667785645,-0.6324653625488281
4.643867919921876,-2.783848043474555,-6.307124460709095,-6.482133237090706,-1.0280859470367432,-1.0592581033706665,-0.6280980706214905
4.6538327636718755,-3.5300168314054607,-7.210197920793295,-8.838997392499447,-1.176943063735962,-0.361268937587738,-0.5816141366958618
4.663797851562499,-3.4613109594479203,-7.817575200888514,-10.836383508360385,-1.2092132568359375,0.3558694720268249,-0.4820418953895569
4.673763671874999,-2.160436451162398,-8.809532228562235,-12.658494890379904,-1.122411608695984,0.8552001714706421,-0.3050228953361511
4.683728759765625,-0.2344736860567703,-9.683608142220974,-13.98051506254673,-0.9835389256477356,0.9591389298439026,-0.0646907314658165
4.693694824218749,1.2327614876545965,-9.987019426631926,-14.39885036473274,-0.8699710965156555,0.7298253178596497,0.1992288082838058
4.703659667968751,1.7735913890004158,-9.71183061262071,-14.267459196281433,-0.8565400838851929,0.2699654996395111,0.4231174290180206
4.7136247558593745,1.6391617296360432,-9.20658216613531,-13.799865065407753,-0.8599209785461426,-0.2090258598327636,0.5804199576377869
4.7235908203125,1.0330923172689974,-8.691247209921478,-13.022224157631396,-0.8370469212532043,-0.5555041432380676,0.7189376354217529
4.733555908203124,0.3180759887751191,-7.950870157134532,-11.944788986897468,-0.7357639670372009,-0.7278306484222412,0.8090571761131287
4.743520751953126,-0.1502953370161354,-6.9372069090873,-10.525303296756745,-0.5803807973861694,-0.7442786693572998,0.8517266511917114
4.75348681640625,-0.3257731191489845,-5.794479474231601,-8.811602020573616,-0.4341087937355041,-0.6946751475334167,0.8623763918876648
4.7634519042968755,-0.2670345144543796,-4.612403779327869,-6.960479648125172,-0.3069794774055481,-0.6299290657043457,0.8247882723808289
4.773416992187499,-0.0767852065820246,-3.3453608134955166,-5.085746098464727,-0.2075471431016922,-0.5711722373962402,0.7712352871894836
4.783383056640625,0.1264755585547536,-2.05952605343163,-3.200811472785473,-0.1264242380857467,-0.5030474662780762,0.7135449647903442
4.793347900390625,0.3557783082470298,-0.8403963468968868,-1.3914146109104155,-0.0623499117791652,-0.4261271357536316,0.6620886921882629
4.803312744140625,0.4463100814349949,0.3788607854098081,0.2620604523688554,-0.031322743743658,-0.3355922102928161,0.6201591491699219
4.813278564453125,0.4927085522554814,1.4631050516366957,1.7862345974743363,-0.0129477307200431,-0.2304466217756271,0.6074252724647522
4.8232438964843745,0.4644184234470129,2.476589435985684,2.9883412730157373,-0.0138620901852846,-0.1261314898729324,0.6375747323036194
4.833209716796874,0.1459983704745769,3.620195991763473,4.04417134566307,-0.0147262867540121,-0.018653767183423,0.6939211487770081
4.8431748046875,-0.1589414386779069,4.503241393819451,4.837162967306376,0.0215717256069183,0.09197598695755,0.7572747468948364
4.853139892578126,-0.3405145420111715,4.974484110328555,5.4143724881529804,0.1228035390377044,0.2111870646476745,0.7778679132461548
4.863105712890626,-0.2778941274471581,5.254423333737254,5.765690602120757,0.2675396800041199,0.2393049299716949,0.7559376358985901
4.8730708007812495,-0.103579470809549,5.3841451076716185,6.057981942102312,0.4539558887481689,0.1956967264413833,0.698488712310791
4.883035888671875,0.1042804586857557,5.527818834590912,6.577553512972593,0.6447281837463379,0.1145437434315681,0.6093937158584595
4.893001953124999,0.4310812403820455,5.530026573768258,7.063212877368927,0.8308714032173157,-0.0030246970709413,0.4995201826095581
4.902966796874999,0.7377909818165004,5.4789376070439815,7.457004105406999,0.9828016757965088,-0.1154728382825851,0.3877031505107879
4.912931884765625,0.9657124332182108,5.476044808211922,7.970344088411331,1.07874596118927,-0.1719507575035095,0.296514630317688
4.922897949218749,1.19350587432608,5.345739096909761,8.377372399163246,1.1195919513702393,-0.1855344474315643,0.2239892929792404
4.9328630371093745,1.4151504374153911,5.129719095703959,8.521828800892829,1.088821530342102,-0.1774048805236816,0.1587346494197845
4.94282763671875,1.543289618333429,4.960740831658244,8.706326705631612,0.992174506187439,-0.1215985715389251,0.1072929129004478
4.952793701171874,1.5513649343699216,4.816588965833187,8.813131129837036,0.8199175000190735,-0.0222160592675209,0.0544773675501346
4.9627587890625,1.4525795659691094,4.688037989243865,8.716658714553713,0.6180494427680969,0.0922318920493125,-0.0148586146533489
4.97272509765625,1.2684991559900345,4.652631744819879,8.513704531148075,0.3934166133403778,0.1955952942371368,-0.1077813580632209
4.982690185546874,0.9391489820718764,4.780927869865298,8.124002033728361,0.1642963886260986,0.2471016645431518,-0.2480855733156204
4.992655029296875,0.6248081612370908,4.991026079806685,7.697114007252455,-0.0575023181736469,0.2822388708591461,-0.430252730846405
