time,ax,ay,az,gx,gy,gz
0.0,-1.8122713943980635,1.157284952518344,-3.7904853384077546,0.9396670460700988,-0.4838096499443054,-2.4880216121673584
0.009965087890625668,-0.7604949810557067,-0.4809475334435701,-4.895862409034371,0.9810712337493896,-0.4721247851848602,-2.505844116210937
0.01993017578124956,0.4468068519759923,-2.153356429773569,-6.361874872550368,1.107683539390564,-0.3795563578605652,-2.357776403427124
0.02989599609374949,0.957181263172999,-3.1945880682259795,-7.322341952461004,1.319931149482727,-0.1921902000904083,-2.043008089065552
0.039861083984375156,1.0927526399184018,-4.229510377401113,-7.754248683881759,1.4890886545181274,0.0029035205952823,-1.6912448406219482
0.049826171875000824,1.4923632948249577,-5.352525396049022,-7.933132255870103,1.5188002586364746,0.0670244470238685,-1.4406250715255735
0.059791259765624716,2.067243203680217,-6.545566721603274,-8.055780145895481,1.3614978790283203,-0.0448668040335178,-1.2488545179367063
0.06975634765625038,2.66596079197973,-7.667679238453507,-8.05378634172976,1.0682222843170166,-0.3026275038719177,-1.0386335849761963
0.07972241210937447,2.9832471647471186,-8.490788934984803,-7.882222737365961,0.6732264757156372,-0.5952488780021667,-0.821241021156311
0.0896872558593742,3.061842854817212,-8.881782056736945,-7.427478735715151,0.2172749042510986,-0.7800804972648621,-0.5652417540550232
0.09965209960937571,3.1856068893909453,-9.129684804415705,-6.778709122523665,-0.2846743762493133,-0.8220732808113098,-0.2452426105737686
0.10961694335937544,3.2881334901466963,-9.16420842078626,-6.087122111868858,-0.8011225461959839,-0.750785231590271,0.1849247366189956
0.11958325195312547,3.264635710181296,-9.173004890704156,-5.5152416770905255,-1.2778494358062744,-0.6303628087043762,0.7480508685112
0.1295480957031252,2.88187265663594,-9.077091278347371,-5.120136443844437,-1.6593613624572754,-0.3470900952816009,1.340654373168945
0.1395131835937491,1.9570964833095668,-8.411631811639666,-4.409253196567296,-1.9606913328170776,0.0548894181847572,1.8143928050994875
0.14947485351562584,0.8789877972282468,-7.260313658571243,-3.706727443268895,-2.197075128555298,0.4246911704540252,2.105294942855835
0.15943994140624973,-0.0843449743118137,-5.796921022164821,-3.2176901268720624,-2.36186146736145,0.696087121963501,2.2119057178497314
0.1694060058593756,-0.7354071554198861,-4.3349791690886015,-2.712346987840533,-2.4408047199249268,0.872711181640625,2.164535522460937
0.1793710937499995,-1.1543299021050333,-2.914925323671102,-2.069516701570153,-2.3933207988739014,0.930334210395813,1.99597442150116
0.18933593749999922,-1.3171405834317207,-1.6315987470358608,-1.431761234346032,-2.201556444168091,0.8761159777641296,1.7534246444702148
0.1993010253906249,-1.2947070716969669,-0.6048106444776058,-0.7874398327350616,-1.8668947219848635,0.7055702209472656,1.5110009908676147
0.20926611328125055,-1.194832227559015,0.2054728882282972,-0.1111316397547721,-1.4403895139694214,0.4298875033855438,1.2910809516906738
0.21923193359375048,-1.018991603463143,0.9122007693916558,0.5798667573571205,-0.9587302803993224,0.1139573082327842,1.0917680263519287
0.22919702148437437,-0.9011140696447342,1.6523054349780082,1.4414263037919997,-0.460147887468338,-0.2191162556409835,0.9108535647392272
0.2391618652343741,-0.8601877466250211,2.3003511178091167,2.3767852459311483,-0.0120449420064687,-0.5252431631088257,0.7606821656227112
0.24912695312499977,-0.8189300727590918,2.877730734525621,3.3746956290513275,0.3341199159622192,-0.7415874600410461,0.6489282250404358
0.25909204101562544,-0.7157054067365825,3.3670158882036803,4.405467248287796,0.5474147200584412,-0.8285778164863586,0.5442701578140259
0.26905786132812537,-0.4771474105082452,3.6477754880845534,5.376319528612494,0.6521996855735779,-0.7833136320114136,0.4518339931964874
0.27902294921874926,-0.1870958122774958,3.745548172311485,6.166821087005734,0.6764439940452576,-0.6382523775100708,0.3960118591785431
0.28898803710937493,0.2494830026075243,3.6875840591207134,6.697302174425125,0.6631012558937073,-0.4056169688701629,0.363182008266449
0.29895288085937466,0.8985108283437788,3.5198172166913744,7.112465860837697,0.6369238495826721,-0.143273264169693,0.3500123620033264
0.3089179687500003,1.432193049892038,3.345121744042635,7.274785251516104,0.6102868914604187,0.0649726092815399,0.3231354653835296
0.3188840332031244,1.7517575967244805,3.27853125680387,7.229966451102495,0.581486701965332,0.2149508893489837,0.2599661648273468
0.3288491210937501,1.9028114970229568,3.3110435333520174,7.195015549230575,0.5440871715545654,0.2971664071083069,0.1313397288322448
0.33881372070312565,1.7916298806466162,3.446785298228264,7.10936497221291,0.4923854470252991,0.2993412911891937,-0.036164354532957
0.3487790527343755,1.6802898588381707,3.509834751859307,6.889384835204481,0.4321993589401245,0.2732300758361816,-0.2204111516475677
0.3587438964843752,1.6598716324485838,3.4960932267546654,6.73735186074078,0.3569099307060241,0.2760083973407745,-0.4070314168930053
0.3687099609374993,1.5527091885857285,3.503756893250346,6.589387743151187,0.2821081280708313,0.3249085545539856,-0.5629470348358154
0.3786748046875008,1.3951735250525177,3.549842937120795,6.425341674810648,0.2200161218643188,0.4354945123195648,-0.6692147850990295
0.38864013671875064,1.251163551916182,3.6181945888131857,6.320772462311386,0.153409942984581,0.5725165605545044,-0.7263971567153931
0.39860498046875037,1.0607667983971536,3.6965485790818926,6.063844112133979,0.112201802432537,0.7230525612831116,-0.7609395384788513
0.40857006835937426,0.8276977549739182,3.87706881236136,5.80166149469018,0.0988804027438163,0.8613859415054321,-0.7770527005195618
0.41853613281250013,0.621891470072791,3.950699281239509,5.3712084692090745,0.126735046505928,0.9694138169288636,-0.7721658945083618
0.4285012207031258,0.368939110854268,3.956019014957547,4.844322191411257,0.2110185027122497,1.048871397972107,-0.7515088319778442
0.4384658203124996,0.2138531785607337,3.741266841730475,4.238969110620022,0.3656361401081085,1.06701397895813,-0.7391175627708435
0.44843090820312526,0.139423595194146,3.2868636163413525,3.5243905159562825,0.5786788463592529,1.026732325553894,-0.7619549632072449
0.45839697265624935,0.0618902371259406,2.741586526328325,2.843102196475863,0.8058207631111145,0.879655659198761,-0.8390059471130371
0.468362060546875,0.0384265786258503,2.2780630058944222,2.048840993288159,1.0253549814224243,0.608129620552063,-0.9480855464935304
0.47832690429687474,0.0155129552239552,1.8063918348401784,1.2701345021069048,1.202463150024414,0.2435820549726486,-1.0497041940689087
0.4882919921875004,-0.2167917527632787,1.4004378753215074,0.5266717582643031,1.296694040298462,-0.0845510736107826,-1.1280107498168943
0.4982570800781243,-0.7128782204866408,1.2194038473010065,0.0779641141682863,1.2972992658615112,-0.2860536873340606,-1.2264630794525146
0.5082229003906242,-1.0950263570040464,0.8915589633792639,-0.3209258983135223,1.201247215270996,-0.40658038854599,-1.329739332199097
0.5181879882812499,-1.002310444710031,0.1188011514693498,-1.1312953557372092,1.043053388595581,-0.4470694661140442,-1.3692641258239746
0.5281528320312496,-0.6762997904781252,-0.8083914353489875,-1.99076406737268,0.8297339081764221,-0.3794273138046264,-1.2778465747833252
0.5381179199218753,-0.5954267665931955,-1.662537490656972,-2.9756401968747377,0.5793738961219788,-0.2288364320993423,-1.0660037994384766
0.5480830078124992,-1.1096484643355011,-2.027265121296048,-4.238761605349183,0.3539263904094696,0.0394086055457592,-0.8275037407875061
0.5580490722656251,-1.6849325700774789,-2.0757997273623943,-5.48792989179492,0.192577838897705,0.3638258874416351,-0.5817872285842896
0.5680139160156248,-1.612037868127972,-2.933335425108671,-6.965285002580285,0.0925793424248695,0.6242668032646179,-0.3151376843452453
0.5779790039062505,-1.022844771759957,-4.139799711337686,-8.652749429222942,0.0533829145133495,0.7583841681480408,-0.0641200020909309
0.5879438476562502,-0.1703404740433208,-5.154295903077721,-10.07707437608838,0.0628904029726982,0.7347683310508728,0.1483999788761139
0.5979089355468741,0.6601110183518379,-5.973457154244184,-11.017498784923554,0.0936958566308021,0.5647432804107666,0.2928263545036316
0.6078749999999999,1.2210570213355123,-6.431795965516567,-11.464674397146702,0.1401134133338928,0.3023960590362549,0.3985370695590973
0.6178400878906256,1.6794032852619885,-6.776414874106645,-11.340163051337004,0.1833786219358444,-0.0171501114964485,0.4829384982585907
0.6278046874999994,2.177646236899495,-7.220086277601123,-10.744723461794852,0.1442879438400268,-0.3823179602622986,0.5726699233055115
0.6377700195312492,2.5666876400619745,-7.360043029823899,-9.673592944163085,-0.0092470254749059,-0.7936919331550598,0.7011978030204773
0.6477348632812507,2.7617110304683443,-7.530291459935903,-8.57091636466682,-0.2202761769294738,-1.1224615573883057,0.9113742113113404
0.6577009277343748,2.562002112594247,-7.867802582347393,-7.2380392829209566,-0.4398674964904785,-1.2131224870681765,1.1429613828659058
0.6676660156250005,1.9899908910430968,-7.823399376997351,-5.628202285838126,-0.6962524056434631,-1.1010692119598389,1.3370046615600586
0.6776311035156244,1.373648798725754,-7.344979316204786,-4.0078514935255045,-1.018742918968201,-0.8278170824050903,1.424899339675903
0.6875959472656241,0.7029186981387436,-6.404362015146017,-2.4133459210872648,-1.3673418760299685,-0.4918299913406372,1.3570646047592163
0.6975610351562498,0.0853174726057797,-4.994370714059472,-1.1195523109734058,-1.6779189109802246,-0.1614848971366882,1.1648403406143188
0.7075270996093757,-0.2253759316373616,-3.573076513192057,-0.0830716664403676,-1.8972822427749636,0.139849916100502,0.9182323217391968
0.7174921874999995,-0.3341137350581586,-2.2239181587308643,0.8203086676359176,-2.0016191005706787,0.3329506516456604,0.6738210916519165
0.7274567871093751,-0.3098770463589578,-0.897746712103486,1.455012346073985,-1.9803029298782349,0.4180096089839935,0.47002112865448
0.7374218750000008,-0.0985384809676557,0.2989326776921749,2.0549358030319214,-1.838395118713379,0.3983417749404907,0.3364177346229553
0.7473869628906247,0.2389500642858445,1.142331129014492,2.597880650705099,-1.6069176197052002,0.2731492519378662,0.2719396650791168
0.7573527832031246,0.4517375133112072,1.899534813439846,3.073240739405155,-1.323945164680481,0.0988009124994278,0.2520968616008758
0.7673178710937503,0.4531035409674048,2.6190321598052977,3.6875732454657553,-1.0273494720458984,-0.0851862356066703,0.2618418931961059
0.7772832031250001,0.3274015240684151,3.226247235076129,4.260857117301225,-0.7430962324142456,-0.2473902553319931,0.2659156322479248
0.7872480468749998,0.1843187487795949,3.646680678585172,4.805069792953133,-0.4995336532592773,-0.3403542637825012,0.2536088824272156
0.7972131347656255,0.0384743267577141,3.967672335611284,5.379447305244207,-0.3171128630638122,-0.3511280715465545,0.2357119470834732
0.8071789550781254,-0.1378949973873794,4.203443039208651,5.899363159507513,-0.1968932300806045,-0.2847599685192108,0.2116289734840393
0.8171440429687493,-0.170172442266345,4.354269560492038,6.290029533523321,-0.1114503517746925,-0.1613961607217788,0.2005024850368499
0.8271088867187508,-0.0544083204053342,4.421334971766173,6.457573965373635,-0.018967555835843,-0.0098915817216038,0.201397567987442
0.8370739746093747,0.1458502672407776,4.430904764144122,6.543171935421228,0.0980075001716613,0.1282320916652679,0.2223378866910934
0.8470388183593744,0.3762172120984643,4.36838459508419,6.428758205255866,0.2327935397624969,0.2308314442634582,0.2580455839633941
0.8570048828125003,0.607340016824752,4.268759560988843,6.280887611168622,0.3705050945281982,0.2847056984901428,0.2920158803462982
0.8669699707031242,0.8005991009723394,4.188432517081499,6.080874157389999,0.506439745426178,0.2736658453941345,0.2920752763748169
0.8769348144531257,0.8676382087614387,4.07731315228641,5.89274695623815,0.6352883577346802,0.2031383514404297,0.2714340686798095
0.8869001464843755,0.7758209988728165,3.93614147131592,5.706908158284425,0.7297442555427551,0.0920403227210044,0.2051719725131988
0.8968649902343753,0.5742752940256148,3.871097921258211,5.586982386699319,0.7908924221992493,-0.0084288623183965,0.0892023295164108
0.9068310546874994,0.2614285842061042,3.8570489376395938,5.519884534460306,0.8259590268135071,-0.1030248776078224,-0.0484245084226131
0.9167956542968749,-0.0893000394359231,3.85435195364058,5.360346883454919,0.8332713842391968,-0.1425492763519287,-0.1862260401248932
0.9267609863281248,-0.4060914682932198,3.843715408813953,5.387744008946418,0.8072727918624878,-0.0841354951262474,-0.3282452225685119
0.9367258300781245,-0.6285170987576246,3.796882930490374,5.384994417977333,0.7629169821739197,0.0470870286226272,-0.4699673056602478
0.9466918945312486,-0.8015813900079578,3.6782892842918633,5.190597635036706,0.7329830527305603,0.1914372742176056,-0.592566967010498
0.9566569824218742,-0.8012264390904456,3.467172837218642,4.769893850153684,0.7450839281082153,0.3038414120674133,-0.6920900344848633
0.9666220703125017,-0.6104156248778104,3.0377824725329874,4.215308249047398,0.7948810458183289,0.3804019689559936,-0.7572066783905029
0.9765869140625014,-0.3972759283486753,2.5761919659882784,3.754586926552653,0.8635406494140625,0.4383096694946289,-0.8017572164535522
0.9865520019531253,-0.1609140539251267,2.19503868572712,3.3205548735409973,0.9229504466056824,0.4308041036128998,-0.8271368741989136
0.9965180664062494,0.211475781904906,1.6030039361923931,2.631014274021983,1.0096110105514526,0.3696882426738739,-0.8271273970603943
1.006483154296875,0.4989612194420769,0.8919768965303897,1.9801585022062065,1.0854923725128174,0.2679943740367889,-0.8173733353614807
1.0164477539062506,0.5511520829936489,0.3847141876131296,1.3322136494010686,1.0552479028701782,0.090576447546482,-0.8184255361557007
1.0264130859375005,0.1799483516756445,0.1820259616672992,0.509940988215804,0.8854690790176392,-0.0921427607536315,-0.8616153597831726
1.0363779296875002,-0.5891753780482336,0.0986842461138963,-0.1481868204295635,0.5901241302490234,-0.2072452753782272,-0.9669527411460876
1.0463437500000001,-1.1524882197611033,-0.3044078942328691,-0.997155180838704,0.2385338842868805,-0.1505604386329651,-1.1157065629959106
1.0563088378906258,-1.5310530909642577,-1.034291610056162,-2.0538778184115887,-0.0524946190416812,0.1128897741436958,-1.232624888420105
1.0662741699218756,-1.6313788206748665,-2.0093027636259797,-3.2155870171129703,-0.2446930855512619,0.4756996631622314,-1.2438315153121948
1.0762390136718754,-1.2609260903872548,-3.110332160437107,-4.804388824951649,-0.27904212474823,0.883522093296051,-1.1315845251083374
1.0862041015624992,-0.5137023865759373,-4.14223424500823,-6.178924781775474,-0.2020325809717178,1.2312265634536743,-0.9718127846717834
1.0961701660156251,0.5903872745886445,-4.871464465358853,-7.494016615983844,-0.0804247930645942,1.3936538696289062,-0.8377470970153809
1.1061350097656248,1.7007196295350788,-5.461225424742699,-8.817009432575107,0.0337241441011428,1.2845675945281982,-0.6764468550682068
1.1160998535156246,3.146516988018155,-6.566981265553832,-9.866596226918697,0.1031528934836387,0.9467325210571288,-0.4407779276371002
1.1260649414062485,4.427821118915081,-7.780100333496928,-10.414433522808553,0.0902256444096565,0.4088943898677826,-0.1835104376077652
1.1360300292968741,4.90094687269181,-8.373785772848128,-10.509378582394122,-0.0720202699303627,-0.2196541875600814,0.0496043935418129
1.1459953613281257,4.88527934796065,-8.46994488439858,-10.100821162378788,-0.3673403263092041,-0.8665938377380371,0.2679468393325805
1.1559604492187496,4.70651969461292,-8.50892314209044,-9.544888238316776,-0.763177752494812,-1.4054490327835083,0.5288020372390747
1.1659255371093753,4.2098955763489005,-8.525816993746162,-8.807031059396266,-1.1581615209579468,-1.7460625171661377,0.8780063390731812
1.1758906249999992,3.1278993813097475,-8.30578541881144,-7.985968358522653,-1.4259133338928225,-1.7840341329574585,1.2578762769699097
1.1858557128906249,1.8157653739936648,-7.637475823369622,-6.905928558248281,-1.618627905845642,-1.537470459938049,1.5605939626693726
1.1958215332031248,0.3199830279728397,-6.54807432051003,-5.780227076995373,-1.7541906833648682,-1.0449868440628052,1.7297526597976685
1.2057863769531245,-1.2215031576678157,-5.226391417473554,-4.536222456923127,-1.8333598375320437,-0.4941580593585968,1.7301087379455566
1.2157514648437484,-2.278278840602189,-3.8689983186304566,-3.588094049581885,-1.8525123596191408,-0.0346801877021789,1.5448890924453735
1.225716552734374,-2.5871687025547025,-2.585063839229941,-2.9221874236285683,-1.7971633672714231,0.2656618058681488,1.2647812366485596
1.2356813964843756,-2.2858085054546597,-1.4100366015329957,-2.1996207528203726,-1.6550287008285522,0.3941733837127685,1.0197968482971191
1.2456474609375014,-1.6067708875104785,-0.5306807016447186,-1.3676678246200085,-1.4273313283920288,0.3331009745597839,0.8487493991851807
1.2556125488281253,-0.894923179115355,0.22161855186522,-0.5653039789974689,-1.1261664628982544,0.1621954441070556,0.7317119240760803
1.265577392578125,-0.2795111341897398,0.8979740911185741,0.3996697646826505,-0.7948387265205383,-0.0772664174437522,0.6698429584503174
1.2755424804687507,0.1234179976150393,1.4368094576463102,1.3624638262361288,-0.4703534841537475,-0.3331774771213531,0.6315398812294006
1.2855073242187505,0.2351609742011874,2.0518094877049324,2.3869746315121647,-0.1925495862960815,-0.5817521214485168,0.5817027688026428
1.2954736328125005,0.0578267505466938,2.734546252427995,3.4524271035075187,0.0121195269748568,-0.7675099968910217,0.5055654048919678
1.3054382324218743,-0.3189252260155976,3.3267198259115216,4.485467836719751,0.1390207409858703,-0.8410971164703369,0.4116237759590149
1.3154035644531241,-0.659361734354496,3.878832022641599,5.505390145161748,0.1965412646532058,-0.8057541251182556,0.3241808712482452
1.3253684082031256,-0.7637995755590498,4.295610743035375,6.293051511693,0.2153189480304718,-0.6715893745422363,0.2581515312194824
1.3353334960937495,-0.6447131774075329,4.47356258713156,6.874009571418166,0.2311235070228576,-0.4808698892593384,0.2136371433734893
1.3452993164062494,-0.1753346473351121,4.350662183649837,7.109107198059559,0.2778529226779938,-0.3018428981304168,0.1982872039079666
1.3552646484374993,0.4329677847810089,4.07836792203635,7.091057746627927,0.357215404510498,-0.1529748290777206,0.2027560919523239
1.3652294921875008,0.9280663009129464,3.904113471153378,7.01566786686182,0.4765652120113373,-0.0504662990570068,0.2136026173830032
1.3751945800781247,1.2446651298075917,3.8354175360679625,6.998223980107903,0.5920718312263489,0.0067808860912919,0.2123352736234665
1.3851591796875002,1.3604270597115158,3.84562328826189,7.004416989529132,0.6710747480392456,0.024786252528429,0.1802998483180999
1.3951257324218744,1.2832732390128074,3.90052918292582,7.0761565300941465,0.6913962960243225,0.034130822867155,0.1142208129167556
1.4050903320312482,1.1181197939522565,3.965872008191049,7.181623568215966,0.6577355265617371,0.0559849850833416,0.0256398189812898
1.4150554199218757,0.9288079130604864,3.921056130386889,7.191147183364629,0.5855036377906799,0.0720303282141685,-0.0652564391493797
1.4250205078125013,0.7518563320480287,3.799330615903437,7.084379584038257,0.4689371287822723,0.089562177658081,-0.1478285491466522
1.4349863281250013,0.5304029076166451,3.7405949338182807,6.961868472135067,0.3269774913787842,0.1468328386545181,-0.2359090149402618
1.4449514160156252,0.235669581310451,3.765516024585068,6.810440477827191,0.1474196910858154,0.2261713296175003,-0.3083563148975372
1.4549165039062508,-0.0914645970586687,3.768600254335999,6.4571192073434585,-0.0340764448046684,0.3129845261573791,-0.3652457594871521
1.4648815917968747,-0.3843265034697949,3.7131302960485217,5.886855560111999,-0.1995359659194946,0.420175701379776,-0.4106923341751098
1.4748466796875004,-0.5130325244903564,3.551386951692402,5.211534040081501,-0.332351952791214,0.5155789256095886,-0.4500547051429748
1.4848125000000003,-0.5474546532478183,3.383332232232392,4.249559478217363,-0.3808976411819458,0.6325705051422119,-0.5050218105316162
1.4947773437500018,-0.6772491270922124,3.269672535304725,3.231127116072177,-0.300186276435852,0.765908420085907,-0.5546531677246094
1.5047424316406257,-0.7531601811882108,2.7619445469632744,2.0698837813168764,-0.118178941309452,0.8996246457099915,-0.6097934246063232
1.5147075195312496,-0.6247003900136798,1.93185799715668,0.96441318718791,0.1231383234262466,1.047765851020813,-0.7045693397521973
1.5246723632812493,-0.5344887156255543,1.1848784773647785,0.1330459499210119,0.3588398098945617,1.0865111351013184,-0.8288273811340332
1.5346384277343752,-0.6020761049471796,0.562424331907928,-0.8854349275410175,0.5756826996803284,1.0384331941604614,-0.9619691967964172
1.544603515624999,-0.6420939348198473,-0.2627437584578991,-1.7033686827391386,0.7789437174797058,0.9444388151168824,-1.1398662328720093
1.5545683593750006,-0.8038691356189549,-0.8726707230359315,-2.2666373565167186,0.8952978253364563,0.775784969329834,-1.3890511989593506
1.5645334472656245,-0.7477129486329853,-1.211091946029663,-3.075643124371767,0.9368955492973328,0.5482470989227295,-1.6745010614395142
1.5744985351562484,-0.317886384487152,-1.832600042808056,-4.114995524948835,1.034757375717163,0.3556070625782013,-1.9103647470474243
1.5844645996093742,0.1363033625480718,-2.430175475335121,-5.092238383093476,1.2370507717132568,0.2860783338546753,-1.9960711002349851
1.5944291992187498,0.6151664726667105,-3.5407910311371085,-5.724326326075196,1.493564486503601,0.3063237369060516,-1.9495757818222048
1.6043945312500014,1.4153237481556833,-4.740495321711897,-6.237654034119844,1.721308708190918,0.3430383503437042,-1.844127178192139
1.6143593749999994,2.3886223987191912,-5.778612043014168,-6.454578875210881,1.758747935295105,0.2060050517320633,-1.6347049474716189
1.624324462890625,3.5703099710881707,-7.117840539613366,-6.843561826184391,1.433110237121582,-0.1087124049663543,-1.3690978288650513
1.6342905273437491,5.102230200275779,-8.690114406499266,-7.181999415791034,0.7536380887031555,-0.5037826299667358,-1.0677094459533691
1.6442556152343748,6.331411929747462,-10.290344201803206,-7.457265971213578,-0.2217723429203033,-0.982254147529602,-0.7663809657096863
1.6542204589843745,6.675347532248496,-11.19883734884858,-7.797655863931775,-1.35825777053833,-1.3540364503860474,-0.3944021463394165
1.6641855468750002,6.178901985421777,-11.310059004974365,-7.472983180305361,-2.512397289276123,-1.5185439586639404,0.0685367509722709
1.6741501464843758,4.971303142204881,-10.698431666219234,-7.132661092126369,-3.464186668395996,-1.5113319158554075,0.6049746870994568
1.6841166992187482,3.3569629884839056,-9.115428315526248,-7.133334461343288,-4.07550573348999,-1.251878261566162,1.101282000541687
1.6940812988281255,1.7986743923306463,-6.89936671551466,-6.890815160268545,-4.215630054473877,-0.7585844993591309,1.5814266204833984
1.7040463867187494,0.2461455835468135,-5.083424962040782,-6.553467703986168,-3.910318613052368,-0.1700136959552765,1.9848995208740237
1.714011474609375,-0.9472628034878522,-3.206492148770392,-5.873522615808248,-3.374549150466919,0.3724435567855835,2.135927677154541
1.723977294921875,-1.43307056337893,-1.086705395643413,-4.923648241582512,-2.7582123279571533,0.6821191310882568,1.9618500471115112
1.7339423828125007,-1.10110648063533,0.5146469739496707,-4.025672396898269,-2.165987491607666,0.7258874773979187,1.5885511636734009
1.7439074707031246,-0.4510786475436761,1.373506029254198,-2.914067830058932,-1.539881467819214,0.4641099572181701,1.1501485109329224
1.7538725585937485,0.2388016322584822,1.9463444954097269,-1.705402234393358,-0.8894311785697937,-0.0805629789829254,0.7497997283935547
1.7638376464843741,0.9152879217520355,2.6636487156450745,-0.3504360704362392,-0.325067400932312,-0.791273832321167,0.435586929321289
1.7738034667968758,1.5212645412690935,3.449688910715282,1.2288292627722024,0.0642261207103729,-1.4472148418426514,0.2143445760011673
1.7837685546875015,1.6892276369228958,4.240438890911639,3.2674709336072203,0.2722970247268677,-1.8940587043762207,0.1145127937197685
1.7937333984375012,1.5683122697785497,4.906257546320557,5.176069343468547,0.3402593433856964,-2.1140027046203613,0.1675854176282882
1.8036982421874992,1.3969517867714163,4.926827456140518,6.502648201853036,0.3228505253791809,-2.0693511962890625,0.3534980118274688
1.8136633300781249,1.2836156227096915,4.440835498788952,7.481134338057041,0.2616234719753265,-1.8165966272354128,0.592409074306488
1.8236293945312507,1.4622794144675135,3.925162396661937,7.938325148338079,0.2021814584732055,-1.4374902248382568,0.7910116314888
1.8335944824218746,1.5653646720193326,3.4303269153803586,8.075154123929142,0.185243010520935,-1.000179886817932,0.9351072907447816
1.8435593261718743,1.4883713025793432,2.935129615049064,7.985094498297571,0.2109750062227249,-0.5604299902915955,1.0097492933273315
1.8535246582031242,1.3734009614445268,2.4576260845795272,7.687505636429786,0.2788300514221191,-0.1920550912618637,1.0028585195541382
1.8634895019531257,1.097326158379018,2.172459481911361,7.36895406603217,0.3761568665504455,0.0864383205771446,0.9567290544509888
1.8734555664062498,0.5873796172052621,2.1130326026916504,7.149867078471184,0.4768674969673157,0.338022917509079,0.8928151726722717
1.8834201660156253,0.1113515661157667,2.189136475946009,7.084344512724876,0.5383691787719727,0.538756251335144,0.8137952089309692
1.8933854980468752,-0.300271525080502,2.212368298451602,6.968170202627777,0.5454620122909546,0.6814554929733276,0.7054935693740845
1.903350341796875,-0.781848734729737,2.272731873999536,6.872088832488656,0.5044653415679932,0.8494207859039307,0.5599467754364014
1.9133164062500008,-1.2272725348494946,2.3910227378591893,6.969529216021299,0.4115360379219055,1.0033584833145142,0.3961320519447326
1.9232814941406247,-1.5509529925681649,2.36701876193732,6.608174276685714,0.2953439354896545,1.15802264213562,0.2207815200090408
1.9332465820312486,-2.008412098396569,2.543302965082228,6.314604587331414,0.2212204486131668,1.3210617303848269,0.0294027049094438
1.9432114257812483,-2.4696920776873825,2.9751833930179474,6.047167702621222,0.2013378143310547,1.457677125930786,-0.1488956660032272
1.9531765136718757,-2.8483251918211576,3.3237340880990027,5.62690873889625,0.2300457507371902,1.5519354343414309,-0.2947078943252563
1.9631425781250016,-3.073852149301767,3.5375235537737604,5.179276030555367,0.3213828504085541,1.6131445169448853,-0.4318015575408935
1.9731076660156255,-3.087530546042323,3.726658762924373,4.7964071785479785,0.5013740658760071,1.60502290725708,-0.5387496948242188
1.9830722656249993,-2.912665854306519,3.623577450895309,4.250508157244324,0.775611162185669,1.5101145505905151,-0.6189579367637634
1.993037597656249,-2.5583453436523675,3.1737367111161348,3.561980534160137,1.194547414779663,1.3312114477157593,-0.6883087158203125
2.0030024414062506,-2.107739026328176,2.531816817688942,2.814359501594305,1.7507244348526,1.0192055702209473,-0.7397626042366028
2.0129682617187505,-1.6642539391860365,1.8581348815590144,2.099388692742586,2.327347993850708,0.5393544435501099,-0.7935965657234192
2.0229333496093744,-1.2552452682718631,1.3976660725206136,1.5252350523352622,2.776806116104126,-0.0247616469860076,-0.8622600436210632
2.0328984375,-1.185988776694238,0.9145984781831502,1.2741624424487352,3.01584792137146,-0.513544499874115,-0.9525973200798036
2.0428635253906258,-1.583061510621011,0.9162094205111264,1.4511638539522886,3.0288822650909424,-0.8533853888511658,-1.0604262351989746
2.0528286132812497,-1.8983777523592116,0.7001590241670608,1.590298183876276,2.786155462265014,-1.078211784362793,-1.1375516653060913
2.0627946777343755,-1.7096240898720918,-0.4562333634257316,0.9837620307803152,2.344040632247925,-1.0677354335784912,-1.1814268827438354
2.0727595214843753,-1.321242319662124,-1.8242992474526163,0.2980839519083499,1.8456801176071167,-0.8438742160797119,-1.1457023620605469
2.082724365234375,-1.2972691772699356,-3.037054742780328,-0.6156149470865726,1.3069570064544678,-0.5019149780273438,-1.0619792938232422
2.0926892089843747,-1.339859487979114,-3.723642337712645,-2.083700125223398,0.8153420090675354,-0.119632251560688,-1.0078126192092896
2.1026555175781247,-0.8132724853888154,-4.2714708657741545,-3.804922444561124,0.4425209760665893,0.227003738284111,-0.917410373687744
2.1126203613281245,0.2888996699829586,-5.423816608324647,-5.6120449317634105,0.2157862335443496,0.4345616102218628,-0.7302006483078003
2.1225854492187484,1.7176617042466995,-6.709742553803324,-7.302022802531718,0.0781490057706832,0.3880244791507721,-0.4689906239509582
2.132550292968748,3.4802883393794297,-8.05490511662662,-8.971226765340566,-0.012069284915924,0.0986203476786613,-0.1865297555923462
2.1425156250000015,4.689780741257965,-9.062973321145773,-10.158416442257163,-0.1267689615488052,-0.3795995116233825,0.0338058024644851
2.1524819335937497,4.841512102426588,-9.142527334854009,-10.801562370347977,-0.3128336369991302,-0.9288343787193298,0.1807903498411178
2.1624470214843754,4.27145186881274,-8.731690863990783,-10.955763921022417,-0.5988842844963074,-1.3799924850463867,0.2821672856807709
2.172411865234375,3.577064706045389,-8.370577332195639,-10.626795001506803,-0.9794067740440368,-1.6923209428787231,0.4189859330654144
2.182376708984375,2.6375018824756142,-8.082969766116141,-10.336989048600197,-1.3945536613464355,-1.7700740098953247,0.5999157428741455
2.1923415527343746,1.4492026368819175,-7.685973604556918,-9.77934464444518,-1.7530062198638916,-1.5585533380508425,0.7896849513053894
2.2023076171875005,0.1482180192854255,-6.971461645388603,-9.17258637303114,-1.95620858669281,-1.0163555145263672,0.922995626926422
2.2122727050781243,-1.2703364544197917,-5.955174478578567,-8.321092293536662,-1.9707872867584229,-0.2153030782938003,1.0128144025802612
2.2222377929687482,-2.1333248646140097,-4.927461662390828,-7.234474283915758,-1.8851310014724727,0.545525312423706,1.0101944208145142
2.2322028808593757,-1.9265797644928095,-3.929234468406439,-6.164689920195936,-1.7578569650650024,0.9880620837211608,0.8785392642021179
2.2421687011718756,-1.070741664444655,-2.861254816021025,-5.189122886309027,-1.5571576356887815,1.0906399488449097,0.646537721157074
2.2521337890625013,-0.313490122289583,-1.911496469390392,-3.859437878602743,-1.2639869451522827,0.9048601388931274,0.3732199668884277
2.262098876953125,0.2045754644645377,-1.0704627013728023,-2.411938976898789,-0.9470574259757996,0.4742538630962372,0.0679354295134544
2.272063964843751,0.358672604916431,-0.1883148326784372,-1.025601523122191,-0.6463608741760254,-0.0522275976836681,-0.2572848796844482
2.2820288085937506,0.0135460025325417,0.7019967609882354,0.5541255823791027,-0.3801411986351013,-0.5565650463104248,-0.6080756783485413
2.2919946289062505,-0.3175671990027651,1.4033824043408036,1.988644591000676,-0.1595348864793777,-0.9378713369369508,-0.9021481275558472
2.3019597167968744,-0.7224071693975478,1.9690403113424777,3.5170401531934736,0.0399638377130031,-1.0252745151519775,-1.0945591926574707
2.311924804687502,-1.4073255890086291,2.3787205979079005,5.243531937366724,0.2380496263504028,-0.8049570918083191,-1.2213809490203855
2.3218896484375016,-1.4009113380521534,2.436799277389049,6.603920126372575,0.4013344049453735,-0.5254021883010864,-1.255765080451965
2.33185595703125,-1.0441456262029707,2.422124563087523,7.256012746506929,0.5415830016136169,-0.3645059466361999,-1.2454410791397097
2.3418208007812495,-0.6089193949706853,2.5640873944357034,7.380261057466268,0.7021311521530151,-0.3869811594486236,-1.2417157888412476
2.351785888671875,-0.0550085513208061,2.6626673033922907,7.420005623355507,0.8737748861312866,-0.584934413433075,-1.269345998764038
2.361750732421875,0.3772727855660021,2.88128491987586,7.318611533761024,1.0350561141967771,-0.9305232763290404,-1.2826430797576904
2.3717160644531248,0.6826384189151227,3.063274348925054,7.204990999799967,1.1521304845809937,-1.1940470933914185,-1.269222378730774
2.3816818847656247,0.9257727831482888,3.3387738363206383,7.471740486767888,1.2177762985229492,-1.3011354207992554,-1.2091827392578125
2.3916467285156244,1.089771505215764,3.46316652418673,7.619408836281299,1.2429940700531006,-1.2415893077850342,-1.110571026802063
2.401611572265624,1.1244104915942996,3.5544022078603503,7.570286785715818,1.221072793006897,-1.0820870399475098,-0.9749998450279236
2.4115769042968758,1.170024607104063,3.5958220134854315,7.301876087537408,1.151957392692566,-0.8820438981056213,-0.8054189085960388
2.4215417480468755,1.2736055392183363,3.62508668641448,7.040539857789874,1.0182768106460571,-0.6436387300491333,-0.6118574142456055
2.4315078125000014,1.2495013177923855,3.636484278741479,6.893128113386035,0.816038966178894,-0.3374124467372894,-0.415592759847641
2.4414729003906253,1.3238286828935146,3.768652276784181,6.683937665939331,0.6272000670433044,0.0004960850346833,-0.2158245295286178
2.451437988281249,1.4979535160474478,3.926970030605793,6.350127736133337,0.4795878231525421,0.2700335383415222,-0.0103756990283727
2.4614028320312507,1.4161293654501437,4.083337819403409,5.92514232840836,0.3470993041992187,0.5206572413444519,0.1178171560168266
2.4713688964843747,1.1832940577175468,4.425343915146589,5.602635882905125,0.2606610655784607,0.6719657778739929,0.1748064160346985
2.4813339843750004,0.9276698489412664,4.711145893108845,5.074106514075398,0.2324225157499313,0.7281257510185242,0.1691173613071441
2.491298583984374,0.5963239711612462,4.909319856500625,4.655236374360323,0.2435807436704635,0.7176472544670105,0.083062820136547
2.5012636718750016,0.1749895602244883,4.992860309496522,4.1315392479926345,0.2923336029052734,0.6516807675361633,-0.106768362224102
2.5112290039062497,-0.0464492876922711,4.770082650724053,3.4806723702609537,0.3896776735782623,0.5951801538467407,-0.3338754177093506
2.5211948242187496,-0.046968416195549,4.292304979488254,2.9267589693278078,0.5292832255363464,0.4823467433452606,-0.5342151522636414
2.5311596679687494,0.2370578573310747,3.52620370285809,2.200987949520349,0.6617398262023926,0.3403244316577911,-0.7090477347373962
2.541124755859375,0.6998221934281289,2.7594956925064325,1.533027313646674,0.7698628306388855,0.1894917786121368,-0.8369281888008118
2.5510898437500007,1.0131893469251692,1.929565210044384,0.8748241016775369,0.8360248804092407,0.0276032928377389,-0.886660635471344
2.561055908203125,1.03472415625453,1.0804682548195124,0.1989367644578218,0.8384507894515991,-0.111327163875103,-0.8756900429725647
2.5710207519531245,0.6850452608611435,0.4173059591382742,-0.3081780604213476,0.7212851643562317,-0.0888610705733299,-0.8187852501869202
2.5809860839843743,0.036540089025814,0.0264297417640686,-0.4275736706525087,0.4635920822620392,0.1370439678430557,-0.7829300761222839
2.590950683593748,-0.4097428304076194,-0.3568102816432714,-0.6891705971628427,0.1372300684452057,0.4716292321681976,-0.7731879353523254
2.6009157714843756,-0.5768745167385786,-1.0052502244889736,-1.59139123980999,-0.1531317234039306,0.8371821641921997,-0.7300665378570557
2.6108815917968755,-0.5146452203840017,-1.748989447185397,-2.916418777099252,-0.3576428890228271,1.1797233819961548,-0.6287257671356201
2.6208469238281253,-0.2391783748826943,-2.692353416603804,-4.5876346642524,-0.4520676434040069,1.3430800437927246,-0.4911729693412781
2.630811767578125,-0.052282048966363,-3.53789764778316,-6.62614306409657,-0.4441983103752136,1.31405770778656,-0.3953253030776977
2.6407768554687507,-0.0076854764686897,-3.9778813026756046,-8.371501461303234,-0.3943077027797699,1.1555628776550293,-0.3537538945674896
2.650742919921875,0.0761385792415589,-4.404147397860885,-9.629931497091054,-0.3481130301952362,0.9411252737045288,-0.3519460260868072
2.6607080078125005,0.5410724048648029,-5.110401816293597,-10.482738412749766,-0.3379623889923095,0.6872820854187012,-0.3251429200172424
2.6706728515625002,1.070388832418993,-5.693406287154555,-11.011191793733834,-0.3697831928730011,0.4108160138130188,-0.2217277884483337
2.6806376953125017,1.289033409974724,-5.963621404406428,-11.09777234507799,-0.434380292892456,0.195837914943695,-0.0394021943211555
2.690604003906248,1.3921104842200875,-6.132299808722734,-10.739834520709516,-0.5347959399223328,0.026848766952753,0.1676370203495025
2.7005686035156256,1.6583206036143003,-6.238719617524743,-10.3506703679502,-0.684583306312561,-0.1335014849901199,0.395082950592041
2.7105336914062494,2.0051991276994348,-6.313838863655924,-9.88193875747919,-0.8502644300460815,-0.2763429880142212,0.6870593428611755
2.720498779296875,2.1219626358613373,-6.604872897052765,-9.31790319098234,-0.9683820009231568,-0.4071814119815826,1.0453752279281616
2.730463867187501,1.835265608755499,-6.816013894045352,-8.724220089718699,-0.9973849058151244,-0.4591459035873413,1.359705090522766
2.7404296875000007,1.1897604041874408,-6.60982321293652,-7.84365598308444,-0.9670517444610596,-0.4555916488170624,1.5338501930236816
2.7503947753906246,0.3558065114282071,-6.035061669763922,-6.736795980423689,-0.9209331274032592,-0.4376290142536163,1.5371960401535034
2.7603598632812485,-0.3466131511472165,-5.1807250603199,-5.417852731484175,-0.8857018947601318,-0.4255062937736511,1.3858119249343872
2.770324951171874,-0.6961012001436203,-4.255891019326448,-4.1238668136686085,-0.8598325252532959,-0.428940087556839,1.1559317111968994
2.780290771484374,-0.8170620138648897,-3.266757232379913,-2.89499371175468,-0.824110209941864,-0.4475055038928985,0.9345600605010986
2.7902561035156257,-0.742144500850886,-2.311284892016649,-1.7485872961252926,-0.7828018069267273,-0.471790999174118,0.774564802646637
2.8002207031250013,-0.610692761318758,-1.3684808945685625,-0.6137561674773693,-0.7217996716499329,-0.5413567423820496,0.6410616040229797
2.810185791015625,-0.4653802907491102,-0.5247346527218818,0.2273731698691845,-0.6275126934051514,-0.6619349122047424,0.539008378982544
2.820151611328125,-0.2828904013644904,0.0743146517500281,0.9958376684993504,-0.5252339839935303,-0.7465155720710754,0.4828183054924011
2.830116943359375,-0.2484351009897887,0.5745774187773466,1.8343407489955423,-0.4087705314159393,-0.7667891979217529,0.4825658798217773
2.8400817871093746,-0.1610488958185538,0.7468661225453018,2.5209610771536823,-0.2695223391056061,-0.7322799563407898,0.5112593173980713
2.8500468750000003,-0.1322809203652665,0.906546104630828,3.131119512400031,-0.121054969727993,-0.6417959332466125,0.5259204506874084
2.860011718750002,-0.2719201676040887,1.151786647363007,3.674375910240411,0.0392422936856746,-0.5140150189399719,0.5244549512863159
2.869977783203124,-0.4577922833055257,1.4720140420183538,4.141244649448991,0.2470419406890869,-0.3642462491989136,0.4817695915699005
2.87994287109375,-0.5716163770146667,1.8725746180608869,4.540570130738616,0.5159924626350403,-0.2336238175630569,0.3929827213287353
2.8899077148437495,-0.6891278539996594,2.295184236565232,4.901119014388323,0.8116970658302307,-0.1563660204410553,0.2366808503866195
2.899872802734375,-0.5539516140516847,2.730043972572684,5.220215359187126,1.126434326171875,-0.1948367059230804,0.0302714854478836
2.909838623046875,-0.1029276558373123,3.0519688187956806,5.474439126580953,1.4248437881469729,-0.314407467842102,-0.2044103145599365
2.919803710937501,0.362301207209751,3.3628958856642246,5.864412842157483,1.6578153371810913,-0.4284855723381042,-0.421768456697464
2.9297685546875005,0.8960906154595315,3.6990386423319577,6.436797719326615,1.7854747772216797,-0.5206509232521057,-0.5838889479637146
2.9397338867187486,1.448342951312661,3.9863200451970098,6.900666692197323,1.808931350708008,-0.5715671181678772,-0.6653121709823608
2.9496997070312485,1.9293616502963005,4.245362611049414,7.279059275573491,1.748227596282959,-0.5321648716926575,-0.6874154806137085
2.959664794921874,2.267591588501632,4.477631151744723,7.606908835670351,1.6046382188796997,-0.4186739921569824,-0.6410972476005554
2.9696298828125016,2.2785081193134187,4.677222580718994,7.844517568349838,1.3998421430587769,-0.2031988203525543,-0.5651305317878723
2.9795949707031255,1.9388678759187457,5.0585506330251695,8.022653536841274,1.1511458158493042,0.0545240640640258,-0.491253912448883
2.9895607910156254,1.4843869091182946,5.391857874006033,7.912372376435995,0.895983099937439,0.3012769520282745,-0.4552704095840454
2.999526123046876,1.0149840483222157,5.658866304171085,7.544906845265626,0.6699742078781128,0.5204902291297913,-0.4601120352745056
3.0094907226562517,0.4936683371983468,5.997454115903377,7.140615266001224,0.4899362325668335,0.6642134189605713,-0.5019267201423645
3.0194558105468756,0.0589660567749291,6.302771526196598,6.533742428296804,0.35357865691185,0.7508655190467834,-0.5834543704986572
3.0294206542968736,-0.1669288572352379,6.488897908920049,5.918660565173625,0.2882611751556396,0.7925585508346558,-0.6863451600074768
3.039386718750001,-0.2577008689198642,6.499933682197332,5.261259901759028,0.3097502291202545,0.7793484926223755,-0.7779731154441833
3.049351806640625,-0.1456971042393706,6.36099575162828,4.621090943652392,0.4169403314590454,0.7326536178588867,-0.8363385796546936
3.059316894531249,0.224072630486451,5.93247281742692,4.038827062025666,0.5877229571342468,0.6209574341773987,-0.8333494663238525
3.0692829589843766,0.7519363384816795,5.153563497149944,3.452139518737793,0.7440662384033203,0.4384227395057678,-0.7931399345397949
3.0792478027343746,1.2501302633456886,4.294528500756621,2.921870028242469,0.8418194055557251,0.2139981836080551,-0.7434335947036743
3.0892128906249985,1.569421107803285,3.4097090747654435,2.4990695633411404,0.8233675956726074,-0.0810021087527275,-0.6711540818214417
3.099177734375,1.591848774319142,2.499028062286973,1.9811609572470188,0.665449857711792,-0.4030661582946777,-0.5519235730171204
3.109142822265624,1.1934003681249916,1.7121704133540392,1.5918746394127608,0.3522177636623382,-0.58262038230896,-0.3895596861839294
3.1191086425781256,0.4963327341020107,1.0207423926532269,1.440502759206295,-0.0584142170846462,-0.4712198078632355,-0.2366087585687637
3.1290737304687495,-0.1571565645551308,0.2299684470593929,1.244375206950307,-0.4848864376544952,-0.1500696539878845,-0.1163111478090286
3.1390385742187474,-0.5862543395023793,-0.7870774291634559,0.3706090898931026,-0.8291285037994385,0.2852069735527038,0.0103120366111397
3.1490031738281266,-0.573097336287424,-2.2234031949460507,-0.861287743756175,-1.0654945373535156,0.6547114849090576,0.1439724564552307
3.1589689941406247,-0.2899458363013342,-3.448702530026436,-2.6907810527205465,-1.2075949907302856,0.930227756500244,0.2098524123430252
3.1689340820312486,0.1154296840085647,-4.240810939094424,-4.588261856240034,-1.201134443283081,1.0967457294464111,0.1969975084066391
3.178899169921876,0.6747229696154594,-4.869588734614849,-6.408358975827694,-1.0546413660049438,1.053923726081848,0.170461505651474
3.188864013671874,1.415084240311384,-5.581300249409675,-8.32417623102665,-0.7994695901870728,0.7127898335456848,0.1876162588596344
3.1988298339843757,2.4097934893026944,-6.721918144765496,-10.010891300606726,-0.528316080570221,0.0825328081846237,0.2836247980594635
3.2087949218749996,3.1402196414396166,-7.84783180746436,-11.068272694349288,-0.3382882177829742,-0.5959897041320801,0.4186276793479919
3.2187600097656235,3.0339035852730274,-8.40511848422289,-11.123344008708,-0.3284366428852081,-1.1707639694213867,0.5322937965393066
3.2287250976562474,2.4796102451115845,-8.619987561827898,-10.74788221808672,-0.5619105100631714,-1.6592934131622314,0.6400094032287598
3.238690917968749,1.6527183996930717,-8.667228620952367,-10.413673644351958,-0.981176733970642,-1.9887943267822263,0.8036486506462097
3.2486562500000025,0.3908535306183621,-8.70941122764349,-9.9542452842772,-1.4476250410079956,-1.9811865091323853,1.0282801389694214
3.2586210937500004,-1.0636210187844932,-8.72080531283915,-9.21758754427433,-1.8658255338668823,-1.529539942741394,1.2452404499053955
3.2685861816406243,-2.434620179784298,-8.115317792013286,-8.165119057014584,-2.226946830749512,-0.7081626653671265,1.392836570739746
3.278552001953126,-3.365425696402788,-6.989740813922881,-7.142815406394004,-2.485112190246582,0.2356645613908767,1.4746930599212646
3.288517333984376,-3.3771181800231336,-5.770605262169242,-6.1896069193094965,-2.6509530544281006,0.9175326824188232,1.4968737363815308
3.2984819335937514,-2.228323992474377,-4.300492962118983,-5.631988818639517,-2.7218925952911377,1.2383770942687988,1.4430971145629885
3.3084470214843753,-0.8085417305398732,-2.801774745309353,-4.822782559776305,-2.635981559753418,1.2085459232330322,1.3549977540969849
3.3184130859374994,0.4325556968487798,-1.652546550257504,-3.904370076262951,-2.3896632194519043,0.8785956501960754,1.2705451250076294
3.328377929687501,1.424376823183149,-0.8450745678409933,-3.1043636074215173,-2.0215094089508057,0.3654229342937469,1.1946395635604858
3.338343017578125,1.9071131397396328,-0.276520647136867,-2.054492735439539,-1.599581003189087,-0.1835696101188659,1.118921399116516
3.3483081054687487,1.7545181474789977,0.2958481556802987,-0.7012859823703765,-1.174049973487854,-0.6474967002868652,1.053324818611145
3.3582741699218763,1.2963511856421828,0.7560963077053428,0.7473083133548498,-0.7840666174888611,-0.9239346981048584,0.9937486052513124
3.3682390136718743,0.8426991439465433,1.1785931134849783,2.31717745718658,-0.4674982726573944,-1.0609549283981323,0.9392064213752748
3.3782041015625017,0.4654106493547558,1.651151296506822,3.647193888804317,-0.2281037718057632,-1.1072447299957275,0.9055842757225036
3.388170166015626,0.1509045549556613,2.062356600682437,4.781345803016424,-0.051294382661581,-1.0516549348831177,0.9015336036682128
3.3981352539062497,-0.0762098178468644,2.278627361778915,5.841881276875734,0.0750318616628646,-0.8817217350006104,0.8924133777618408
3.4080998535156253,-0.1763945316515862,2.60311913588047,6.732295746394992,0.149890124797821,-0.6553288698196411,0.8512555360794067
3.418064941406249,-0.2291372569322586,2.87236073192507,7.304722709140181,0.1951915621757507,-0.4220236837863922,0.7812948226928711
3.4280310058593733,-0.0427757502786815,2.916167140425741,7.566811218559741,0.2582635879516601,-0.2397045642137527,0.6749861240386963
3.4379960937500007,0.4281711981542408,2.762168418847024,7.603709162846207,0.3350300192832947,-0.1602970957756042,0.5397084355354309
3.447960937500002,0.9864837108291684,2.5439310338526964,7.442749370083212,0.4203891158103943,-0.1721559315919876,0.3907780647277832
3.4579262695312485,1.4121893956527114,2.454463821156323,7.341871997839212,0.5047402381896973,-0.2372230738401413,0.2296746671199798
3.46789208984375,1.7149916082546115,2.350803832456469,7.225661447384953,0.5765494704246521,-0.3090853095054626,0.0683103129267692
3.4778569335937517,1.892548315553367,2.2832123514816165,7.175712882867456,0.6081910133361816,-0.3317120671272278,-0.0679913386702537
3.4878220214843756,1.92580980303362,2.262034246635437,7.154229949855804,0.6075873970985413,-0.3154565393924713,-0.1742675751447677
3.4977871093749995,1.84752200986892,2.2121014642089603,6.984741982722282,0.585056483745575,-0.2260603755712509,-0.2414817661046981
3.5077531738281236,1.725424593333155,2.024899853469431,6.799831990051269,0.5590718984603882,-0.0525931306183338,-0.2774941921234131
3.5177177734375027,1.524174145105481,1.826320231886208,6.620470863679051,0.5274492502212524,0.1557861715555191,-0.305255264043808
3.527683105468749,1.3070781852312383,1.80833741595,6.178450150001049,0.4949172735214233,0.4017948508262634,-0.3347313404083252
3.5376479492187505,1.0247978055238722,1.93006702208668,5.666280379819869,0.5277116894721985,0.6453569531440735,-0.3566952347755432
3.5476140136718746,0.5992177929066121,1.953616239978373,5.113682153138518,0.615798830986023,0.836600661277771,-0.3997553884983063
3.5575791015624985,0.2041524532794952,2.0362936464041472,4.516278570047021,0.738922119140625,0.9505208134651184,-0.4829546809196472
3.567544189453126,-0.2168051602341234,2.1802283623471856,3.9578959147453303,0.8801600337028503,1.0052636861801147,-0.6314222812652588
3.577510009765624,-0.4446284119583666,2.213497302481532,3.3350849186748266,1.0362467765808103,0.9716843962669371,-0.8153870701789856
3.5874750976562515,-0.4387020906493067,1.958963446225226,2.456766545140743,1.215606451034546,0.7926279306411743,-0.9911097884178162
3.5974401855468754,-0.3191790546461939,1.765189179097116,1.4622510651558638,1.3795878887176514,0.5392196178436279,-1.1291241645812988
3.6074052734374993,-0.1747207532204687,1.5678402683526276,0.6739157448858022,1.485806584358215,0.2709856331348419,-1.200095534324646
3.617371093750001,-0.1921501730576157,1.22161626265347,0.1725584606200456,1.4759204387664795,0.0807666778564453,-1.2541342973709106
3.6273359375000025,-0.3642523412775248,1.0433195506423711,-0.081897946485877,1.315088391304016,-0.006220637820661,-1.2957990169525146
3.6373010253906264,-0.7228492140766233,0.867686504882574,-0.5131067587703466,1.053302526473999,0.0453733131289482,-1.2852376699447632
3.6472668457031245,-1.0938193193018435,0.4106207822859287,-1.051106551256776,0.7964796423912048,0.255500316619873,-1.1788058280944824
3.6572321777343744,-1.3758198591545223,-0.5708394012928009,-1.7250865935504436,0.5859426259994507,0.5980435609817505,-1.0024579763412476
3.667197021484376,-1.6806312196217477,-1.347013743647933,-2.54194775108099,0.4229080975055694,0.9684312343597412,-0.803173303604126
3.6771621093749998,-2.125871918259561,-1.6477806510299444,-3.623796062082052,0.3412744700908661,1.2762069702148438,-0.602106511592865
3.6871279296875015,-2.255775186240673,-1.8954460828214883,-4.781435234865546,0.359593391418457,1.4167600870132446,-0.4599725306034088
3.6970932617187477,-1.802855623538047,-2.280205863142013,-6.183065534842014,0.474914401769638,1.3492110967636108,-0.389799565076828
3.7070581054687493,-1.0023179704293608,-2.922928012862801,-7.560549820077419,0.6526912450790405,1.0484988689422607,-0.323894739151001
3.7170231933593767,0.0548676313130417,-3.894570566782355,-8.701749314713478,0.8003640174865723,0.5213647484779358,-0.2100342065095901
3.726989257812501,0.9579950637739152,-4.9618531768143175,-9.534746199008822,0.8544245958328247,-0.061477456241846,-0.0920043066143989
3.7369538574218764,1.4075645123310383,-5.663433758217096,-9.726971483129262,0.8068682551383972,-0.6162160634994507,0.0210607275366783
3.7469189453125002,1.4567061443798244,-6.2221963527470825,-9.69511971631646,0.6675837635993958,-1.0553234815597534,0.1593176275491714
3.7568847656249984,1.1708725291702895,-6.776304399469495,-9.323074456140398,0.4186484515666961,-1.3478716611862185,0.3244080543518066
3.7668500976562482,0.5582401050258428,-6.988169619083404,-8.746139076060055,0.0105155706405639,-1.484251618385315,0.4924481213092804
3.7768149414062497,-0.26032087869253,-6.829310013470053,-8.078099529731274,-0.4809276461601257,-1.4096076488494873,0.6804430484771729
3.7867800292968736,-1.0753037116631865,-6.635998687678575,-7.12864893387556,-0.9481710195541382,-1.097925901412964,0.9000300168991089
3.7967460937500013,-1.6323828831508755,-6.420229446363448,-6.243858733978867,-1.3062751293182373,-0.6151906847953796,1.0914684534072876
3.806711181640625,-1.9285478496953845,-5.937780860707163,-5.3529538505941625,-1.5628516674041748,-0.1271217465400695,1.1540700197219849
3.8166760253906267,-1.911303577166796,-5.065061037832498,-4.5458010171294205,-1.7352087497711182,0.2231092303991317,1.0831422805786133
3.826642089843747,-1.572252970228344,-3.9291619876921176,-3.5755431955665347,-1.9106584787368772,0.3719021379947662,0.882326602935791
3.8366071777343747,-0.9595248306244611,-2.585124044984579,-2.190141561335325,-2.114799737930298,0.3060360550880432,0.6122921705245972
3.8465722656249985,-0.325964257806912,-1.2963771968662738,-0.7261620649516582,-2.2649149894714355,0.1006104797124862,0.3669512271881103
3.856536865234374,0.1902879593823105,-0.3395005426630377,0.5090414090275764,-2.287640333175659,-0.1879355609416961,0.2060478329658508
3.866502929687498,0.6140547120325267,0.2260261391744017,1.4511492409050464,-2.1634035110473637,-0.3820187449455261,0.1374821960926056
3.8764680175781256,0.8857267500944435,0.7422793792769312,2.559839966124296,-1.957971215248108,-0.5137932300567627,0.1360936313867569
3.8864328613281236,1.0426199510056524,1.361758308315277,3.598749883630872,-1.759091854095459,-0.5865034461021423,0.1603770852088928
3.8963979492187475,1.309565472002327,2.0789049999013542,4.524906697660684,-1.5996779203414917,-0.5793049335479736,0.2218441665172577
3.906364013671875,1.4800253529079257,2.626160988771915,5.307053100162745,-1.4266878366470337,-0.5270203948020935,0.3296585083007812
3.9163291015625026,1.569779127460718,2.778541461499035,5.802081181406974,-1.2079517841339111,-0.4718168079853058,0.4667697846889496
3.9262939453125005,1.5810582079745827,2.74055192258358,5.996305530390143,-0.9608540534973145,-0.420837938785553,0.5934902429580688
3.9362602539062506,1.4060472396358847,2.8042852668255565,6.081771398490667,-0.688166081905365,-0.341404378414154,0.6822360754013062
3.9462250976562485,1.2074157417349516,2.752384983718395,6.1327650881469244,-0.4002456068992615,-0.2186638116836547,0.7139396071434021
3.956190185546876,1.25904670638144,2.6039897812351582,6.133810797807574,-0.112584002315998,-0.1231066584587097,0.6874376535415649
3.96615625,1.3208571197368204,2.482610595971346,6.004153321281075,0.1630944460630417,-0.0694687366485595,0.5929157137870789
3.9761208496093756,1.3886205962777136,2.414495091122389,5.86867166864574,0.4402786493301391,-0.0476228222250938,0.4667334854602813
3.9860859374999995,1.5605382747761904,2.24910345339179,5.781231870123744,0.7081072926521301,-0.1146808266639709,0.3483087122440338
3.9960510253906234,1.7668981749720871,2.037191179765761,5.644715029221773,0.8980556130409241,-0.2147919833660125,0.2318675816059112
4.0060170898437475,1.79117030031085,1.8554492957368487,5.659235722005367,0.9810155034065248,-0.2634209096431732,0.1264178305864334
4.015981933593749,1.6655336037330328,1.6951383222714065,5.926154135799408,0.969931423664093,-0.2729063034057617,0.0276507753878831
4.025947021484376,1.4677046543866394,1.561384808602929,6.032650516968965,0.8842615485191345,-0.2543801963329315,-0.0345065519213676
4.0359130859375005,1.1452230510637162,1.4826812742441893,6.019750118863582,0.7533501386642456,-0.1450220048427581,-0.0825907215476036
4.045878173828124,0.747263012908399,1.486905906201899,6.09545388688445,0.5954076051712036,0.0484732016921043,-0.1356355994939804
4.055843017578126,0.2655487328760326,1.6039154980793595,6.052437167456746,0.4493729472160339,0.2889025807380676,-0.2020313888788223
4.06580810546875,-0.1926269967891275,1.818384470450878,5.898994326195121,0.3449602127075195,0.5317678451538086,-0.2847097218036651
4.075774169921874,-0.483129845918715,2.088901493258774,5.633164876681566,0.3179240524768829,0.7328559160232544,-0.3752971291542053
4.085739013671875,-0.5797755719423294,2.3281574086233974,5.198255456313491,0.3875543177127838,0.8574621677398682,-0.4660907089710235
4.095703857421873,-0.3702205289669334,2.342999003924429,4.690557863110303,0.5646206736564636,0.8984849452972412,-0.5476561784744263
4.105669921875001,0.0182815066218376,2.199619583776593,4.247771425756812,0.7503686547279358,0.8984887003898621,-0.6069753170013428
4.115635009765625,0.4286698683913797,1.9522107570946212,4.014978568926454,0.9042189717292786,0.8510801792144775,-0.6332535147666931
4.125599853515626,0.9164924752362072,1.7669824922546744,3.705678810998797,1.082452654838562,0.6949930191040039,-0.6113886833190918
4.135566162109376,1.3692249909341334,1.4899404515922068,3.30163857614696,1.1890333890914917,0.5022903680801392,-0.5803543329238892
4.145531005859374,1.7274106525838373,1.052519925186038,2.9612597893446684,1.2012892961502075,0.3222277462482452,-0.5567541718482971
4.1554970703124985,1.9469018370315432,0.6392375224754214,2.6161978131622075,1.147189378738403,0.1527713388204574,-0.5323404669761658
4.1654619140625,1.7546029031530022,0.2393520692154765,2.091542655417323,1.015027403831482,-0.0192474015057086,-0.5146333575248718
4.175427978515624,1.1784317854434252,0.0536228691160678,1.2637293112397192,0.8324679732322693,-0.103066936135292,-0.5199341177940369
4.1853930664062515,0.4581355437852442,-0.1798363426685333,0.4953817169874906,0.6470435261726379,-0.0832849740982055,-0.5709999799728394
4.1953579101562495,-0.1734131777532398,-0.4949684600114822,-0.5179863475054503,0.5231301188468933,0.0178216695785522,-0.6227209568023682
4.205323974609374,-0.6231671160317958,-1.207861878067255,-1.7416683105170725,0.4860744178295135,0.1064206436276435,-0.6403043270111084
4.215289062500001,-1.013842915463075,-2.1319997534900903,-3.191626295810938,0.4724850952625274,0.1460431665182113,-0.6896691918373108
4.2252539062500025,-1.1106761268828065,-2.9649761795192955,-4.774919569361209,0.4646161198616028,0.1315169781446457,-0.8031289577484131
4.235219726562501,-1.1235500023074447,-3.7413609497547142,-6.281444076007604,0.4520028531551361,-0.004061094019562,-0.9422823190689088
4.2451850585937505,-0.7966151459027081,-4.499449600321055,-7.922444857639074,0.4100694060325622,-0.285605788230896,-1.0037609338760376
4.2551499023437485,0.0185766536435112,-5.565296040070057,-9.433792838919162,0.2716044783592224,-0.6532716751098633,-0.9046403169631958
4.26511572265625,0.6750837657518685,-6.596858517423272,-10.53926284852624,-0.0113465636968612,-1.038150429725647,-0.6714311838150024
4.2750810546875,0.2653133166849613,-6.734567782980204,-11.156956355452538,-0.4150905907154083,-1.2937833070755005,-0.3882343471050262
4.2850458984375015,-0.7833022214736789,-6.204834883579611,-11.223600034183264,-0.895183801651001,-1.3021773099899292,-0.0913513004779815
4.295011962890626,-1.6733907469742,-5.850175057968497,-11.109047772330046,-1.3386448621749878,-1.0307966470718384,0.1812216490507125
4.3049768066406235,-2.465900868710875,-5.5331970204979175,-10.982677646911144,-1.6843791007995603,-0.5518469214439392,0.4015181958675384
4.314942138671873,-2.8539634899690745,-4.985280814152956,-10.995111596548556,-1.8529545068740845,-0.068847469985485,0.6061869263648987
4.324906982421875,-2.854711970248818,-4.487999108763039,-11.150115111255644,-1.7753791809082031,0.3158882558345794,0.8062777519226074
4.3348730468750025,-2.558979549902677,-4.172576484040916,-10.97686749932766,-1.454638957977295,0.5269152522087097,0.9362629055976868
4.3448378906250005,-2.060708833475411,-3.6996912610217927,-10.43317563267946,-1.0340148210525513,0.4736238718032837,0.8955332040786743
4.354802978515624,-1.6457567439869043,-2.7859096521794795,-9.178190768909454,-0.6183944344520569,0.1786239445209503,0.6626386642456055
4.364768798828126,-1.0769990443389863,-1.9433149184554812,-7.373918410441279,-0.1901854574680328,-0.3269008994102478,0.3224156200885772
4.37473388671875,-0.2969317131333053,-1.3710586361020802,-5.252140191236138,0.2682353854179382,-0.9138150215148926,-0.0147253759205341
4.384698974609374,0.4689708991196006,-0.8838628559187054,-2.85366275345683,0.7175155282020569,-1.408998727798462,-0.2183800488710403
4.394664794921876,0.9405256772525608,-0.642246348902583,-0.3679927699148654,1.1298396587371826,-1.6920781135559082,-0.2530019581317901
4.4046298828124995,1.0821277124643325,-0.405510015143454,2.211246893206239,1.3835164308547974,-1.8170658349990845,-0.2295985370874405
4.414594970703123,0.905373407589644,0.3955483008384704,4.319458943873643,1.3776462078094482,-1.8254011869430544,-0.2067728489637375
4.424561035156247,0.812757375473529,1.099295997147262,5.92464022410512,1.165384292602539,-1.7302350997924805,-0.1517027616500854
4.434525878906249,1.0937851247712969,1.3342957163721323,6.988423301583528,0.8058665990829468,-1.6449198722839355,0.0027776267379522
4.444491210937502,1.416169697460532,1.3054600825101137,7.325568513292073,0.3374350965023041,-1.5152556896209717,0.2125604003667831
4.4544570312500005,1.5579498657181858,1.3835153820931911,7.568014749130606,-0.1626234352588653,-1.2284196615219116,0.4039090871810913
4.464421630859376,1.503976575729251,1.6960791102528572,7.690503064680099,-0.5973494052886963,-0.7982016801834106,0.5623626708984375
4.47438671875,1.3760272182948887,1.863133128237724,7.372339616817236,-0.862034022808075,-0.32835853099823,0.7014209628105164
4.484352783203124,1.1992980478614568,1.9478095995262263,6.77377575777471,-1.012906551361084,0.0769579112529754,0.7733683586120605
4.4943178710937515,1.2862440715171397,2.2491426163583994,5.956507773008942,-1.0522886514663696,0.369959145784378,0.7906423807144165
4.504282714843749,1.482293443970382,2.5627798189684747,5.105264453405142,-0.9674971103668212,0.5735617280006409,0.7593173980712891
4.5142490234374995,1.6788636254273357,2.801610494658351,4.418396287965774,-0.7754645347595215,0.6838040947914124,0.7084310054779053
4.524213867187501,1.9023036936312916,2.940417492324113,3.774174839597941,-0.50461745262146,0.713200032711029,0.6479952931404114
4.534178955078125,2.106611629733443,3.01460530282408,3.306573109939694,-0.1915314644575119,0.697952389717102,0.5768843293190002
4.544145019531249,2.214032140010595,3.0890310137331483,3.129182991379499,0.1326720267534256,0.6729028820991516,0.4948208630084991
4.5541098632812504,2.2487482102133334,3.1493393519625066,3.1426983065128327,0.4557856321334839,0.6366492509841919,0.4040566086769104
4.564074951171874,2.324114855234325,3.0942882036089894,3.3688369661509987,0.7419850826263428,0.5663421750068665,0.3138124346733093
4.574041015624998,2.3755340768262743,2.9775597667604683,3.503724744546413,0.9891729950904846,0.4920122623443603,0.2267648875713348
4.584006103515626,2.191650650724024,2.924688592794537,3.756099084681272,1.1866505146026611,0.4460155665874481,0.1274400949478149
4.593970703125001,1.818818039562553,2.9693419735133646,3.987597810047865,1.3231676816940308,0.4375302195549011,0.0340302623808383
4.603937255859374,1.4171598775416612,3.036224429436028,4.178949818465114,1.378602147102356,0.523377001285553,-0.0412498265504837
4.613901855468749,0.9447643377356232,3.0218238559007644,4.453371155235171,1.360134482383728,0.6978678703308105,-0.1097790896892547
4.623866943359373,0.5117313787639141,3.028835780489445,4.599212289321423,1.285048246383667,0.9011446833610536,-0.1892779022455215
4.633832763671875,0.150963737796992,3.121881728455424,4.543133843746781,1.1968313455581665,1.1041686534881592,-0.289908617734909
4.6437978515625025,-0.0676546093389391,3.1141251229792832,4.345272599565982,1.111329197883606,1.2686291933059692,-0.3922088742256164
4.653762939453126,-0.153508599974215,2.89307180378139,3.833467571043968,1.0376635789871216,1.3757386207580566,-0.4928885996341705
4.6637287597656245,-0.1607993415042758,2.558152451428771,3.2128900331139563,0.9823278784751892,1.4361796379089355,-0.6101566553115845
4.673694091796874,-0.1128494034580886,2.245035765561461,2.551087335348129,0.9582481384277344,1.389969825744629,-0.7399210333824158
4.683658935546876,-0.1911030751574784,1.9962363613039251,1.701962323072553,0.9495925903320312,1.2436068058013916,-0.8757914900779724
4.693625,-0.4353163206685334,1.7950357435673474,0.8494201958298683,0.9530725479125975,1.0668929815292358,-1.020616888999939
4.703590087890624,-0.9672386929374188,1.6991706465274097,0.1223784254342317,0.9467819333076476,0.9312642812728882,-1.176231861114502
4.713555175781248,-1.632624290691316,1.7640572524577378,-0.3511047634780406,0.9152479767799376,0.9316243529319764,-1.3606653213500977
4.723520996093749,-2.1472493450701235,1.7042431274861096,-0.6624205374032258,0.8760903477668762,1.0771639347076416,-1.5379308462142944
4.733485839843747,-2.333966094902157,1.3896762428104876,-1.0293559072196483,0.8383861184120178,1.2461265325546265,-1.6377514600753784
4.743451904296875,-1.9093131340019405,0.5978092412829399,-1.754521362349391,0.8074190616607666,1.3783235549926758,-1.6426180601119995
4.7534167480468765,-0.9783555686268957,-0.3087877167522907,-2.6223727024048564,0.8383386135101318,1.4286760091781616,-1.546819806098938
4.7633818359375,0.0953591750781051,-1.34491180293262,-3.478213871192932,0.9217397570610046,1.2904794216156006,-1.3839353322982788
4.7733479003906245,1.1316942919269204,-2.255206446442008,-4.387966078388691,0.998063862323761,0.9477409720420836,-1.2070419788360596
4.783312988281248,2.1785000772498546,-3.136889912495017,-5.220355644440651,0.9768139719963074,0.3923403322696686,-1.039375901222229
4.79327783203125,3.1247049691826105,-4.512417218443751,-6.259215877586603,0.8308202624320984,-0.2633695900440216,-0.8608695268630981
4.803243896484374,3.616356267470121,-5.915231759768724,-7.074990993446111,0.5887089967727661,-0.8702404499053955,-0.6599162220954895
4.813208984375001,3.048269379755854,-6.568896743786334,-7.537130366045236,0.3131887316703796,-1.3036354780197144,-0.4557628333568573
4.823174072265625,1.9217897537373003,-6.899054580825567,-7.9258964593976735,0.0683142766356468,-1.442079782485962,-0.2713980078697204
4.833140136718749,0.4981042372865602,-7.151801261404156,-8.262707324585318,-0.151770144701004,-1.2768895626068115,-0.1639527827501297
4.843104980468747,-0.6287364405967295,-7.100384377899766,-8.638487679636478,-0.2947980165481567,-0.9626669883728028,-0.0868489146232605
4.853069824218749,-1.3000539856828748,-6.881876651531457,-9.08785934059918,-0.2858998477458954,-0.6646848320960999,0.0208620987832546
4.8630361328125025,-1.4560963419184088,-7.007347197762131,-9.475153023311496,-0.0925130695104599,-0.4745372831821441,0.1715267449617386
4.8730009765625,-1.488351136574149,-7.362956871443987,-9.33220994875431,0.1852248013019561,-0.2887373268604278,0.2955107390880584
4.882966796875002,-1.3407850783914328,-7.619504697871208,-8.095109116721153,0.3472237288951874,-0.1960572898387909,0.302077978849411
4.892931640625,-1.0258822397597134,-7.238706222397089,-6.493533752027154,0.3651899695396423,-0.1569042950868606,0.1842429637908935
4.90289697265625,-0.7189414660483598,-6.34952567858696,-4.563480466204881,0.301194280385971,-0.1513536423444748,-0.0097660832107067
4.912862792968752,-0.3455213007899001,-5.588872145968676,-2.8200036449611185,0.1858266741037368,-0.1822801381349563,-0.2391529232263565
4.9228278808593755,0.0264150921842083,-4.674310492664575,-1.1592612210273745,0.0425908677279949,-0.2319519072771072,-0.483067125082016
4.932792968749999,0.4311535749658942,-3.585657177823782,0.3175590522289276,-0.0958500951528549,-0.3145695328712463,-0.6776408553123474
4.9427590332031235,0.7576120460305362,-2.6414818920224903,1.5785124690145254,-0.2569687366485595,-0.334488183259964,-0.7633212804794312
4.952723876953125,1.2198911193612962,-1.8522107522070408,2.9434464847564694,-0.5088251829147339,-0.295260339975357,-0.7121561169624329
4.962689208984375,1.4815237747721373,-0.9509037172734736,4.073305670210718,-0.822583794593811,-0.1967597305774688,-0.5847936272621155
4.9726550292968765,1.5247970993094144,0.1279874974876642,4.808073066422343,-1.1028196811676023,-0.0567419081926345,-0.4138908684253692
4.9826198730468745,1.5751516142792998,0.9255904123187064,4.97755168120563,-1.2751760482788086,0.0596324354410171,-0.2365481704473495
4.9925861816406245,1.5035736940167843,1.744056666958332,4.850043491667509,-1.3088527917861938,0.1175154447555542,-0.1004611626267433
