time,ax,ay,az,gx,gy,gz
0.0,-0.0490453686000779,0.093758334019035,-0.1137087967664003,0.0078640356659889,-0.0221272204071283,-0.2474128901958465
0.009963867187508413,-0.0437002081798389,0.0602349807322025,-0.2181827321976423,0.0239018574357032,-0.0332632288336753,-0.2493852376937866
0.019928710937502814,-0.0308554857844486,0.0398527024388313,-0.2423936288684606,0.0424797609448432,-0.0493581518530845,-0.2471118122339248
0.02989282226563006,-0.0299308452202007,0.0720420306429266,-0.1847147623598575,0.0541683733463287,-0.0526516810059547,-0.2485741525888443
0.03985693359375375,-0.0292286517675966,0.0605288491122424,-0.1134247191280126,0.0600730031728744,-0.0562363415956497,-0.2437528520822525
0.04982202148437764,-0.0338196328196674,0.0092433369025588,-0.0766723207920789,0.0699274986982345,-0.054944708943367,-0.2432940006256103
0.05978588867187895,-0.0251696221677586,-0.0042867374084889,-0.051289457732439,0.0748180523514747,-0.0623460635542869,-0.2399397790431976
0.06975097656250284,0.0042395372658967,-0.0141289169870316,-0.0489636451333761,0.0756731927394867,-0.0706354156136512,-0.2435092180967331
0.07971484375000415,0.0092140377428382,-0.0347397433392703,-0.0025508535265922,0.0681841224431991,-0.0702942684292793,-0.2450370639562606
0.08967871093750546,0.0115832876248285,-0.0448768142111599,0.0531914919614791,0.066583827137947,-0.0676891654729843,-0.2465358823537826
0.09964379882812935,-0.0109188323667272,-0.06399301809147,0.1117751983553171,0.0635926648974418,-0.059451650828123,-0.2527662515640259
0.10960791015625304,-0.0312630802046507,-0.0575936724431812,0.0959311480134725,0.0554692223668098,-0.0532219819724559,-0.2564315497875213
0.119572753906251,-0.0473109460229054,-0.0298877732634544,0.036675241446495,0.0457736812531948,-0.061508972197771,-0.2582107782363891
0.12953686523437824,-0.0182086240487173,0.0074381871767342,0.0005354220509529,0.037470743060112,-0.0640671998262405,-0.257477343082428
0.13950097656250549,-0.0082769030231982,0.0592570756107568,0.0169862061142921,0.0243661068379879,-0.0649356767535209,-0.2584349811077118
0.14946582031250344,0.001193959024921,0.0807011379167437,0.0559025044858455,0.0183532200753688,-0.06084905564785,-0.2587252557277679
0.15942993164062713,0.0083207056323066,0.0479578290916979,0.0383083956062793,0.0185617618262767,-0.0596112944185733,-0.2591222822666168
0.16939501953125102,0.0069333063945174,-0.0008561784379184,-0.0051548985451459,0.0181239396333694,-0.0645818188786506,-0.2570628523826599
0.17935888671875233,-0.0198666934540495,-0.0374859733074903,-0.0195797297388315,0.0210395269095897,-0.067417673766613,-0.2598166465759277
0.18932275390625364,-0.0388346114374697,-0.0337109848134219,-0.0018839140504598,0.021734345704317,-0.069168172776699,-0.2556035220623016
0.19928784179687753,-0.0238235778536647,-0.0177903621040284,-0.0111146837323904,0.0194091238081455,-0.0759329795837402,-0.2586175799369812
0.20925170898437884,-0.0354181540574878,0.0405753176249563,0.0046668227672576,0.0069146370515227,-0.073452778160572,-0.2697165608406067
0.21921679687499918,-0.052081046501547,0.0552937249377369,0.1026928972333669,-0.0066450019367039,-0.0606607906520366,-0.2757434546947479
0.22918090820312997,-0.0360700055623427,0.0218292622312903,0.1433212602198124,-0.0115050040185451,-0.0482422038912773,-0.2765176296234131
0.23914501953125367,-0.0007789119506254,-0.0118624333597719,0.0381125807732343,-0.0134170390665531,-0.0536258444190025,-0.2771517932415008
0.24910986328125162,0.0539716825537383,-0.0366338865227997,-0.0663993485808372,-0.0019894153811037,-0.0602941326797008,-0.2817124426364898
0.2590737304687529,0.0779571364382281,-0.0496468050919473,-0.0741126994371414,0.0095756473019719,-0.0683280751109123,-0.2855929732322693
0.2690378417968766,0.0765244732866063,-0.0067021279871463,-0.0745662884235382,0.0227098241448402,-0.0697685778141021,-0.289790391921997
0.2790029296875076,0.056029528398998,0.0388104999095201,-0.0880178906708955,0.0529104210436344,-0.0696925967931747,-0.2854969799518585
0.2889667968750018,0.0874115222755819,0.0504784336104989,-0.2102414178043603,0.0871722549200058,-0.0850379988551139,-0.2881042063236236
0.29893188476562926,0.1182791734218597,0.0711566261105239,-0.3497510107815265,0.1293880194425583,-0.1074986830353736,-0.282728374004364
0.30889599609375296,0.152617240625061,0.0691235128477215,-0.427602896746993,0.1716840863227844,-0.1263927370309829,-0.2851558625698089
0.31886010742187665,0.1478483822554349,0.0580102904200553,-0.4022802394419908,0.2112074792385101,-0.1434975564479828,-0.2844632863998413
0.3288247070312522,0.1316405035698786,0.0670019906491041,-0.3266588890075683,0.2161127626895904,-0.1488773971796035,-0.2828978896141052
0.33878881835937946,0.0917473960554227,0.082076079531759,-0.061990884488821,0.2053914368152618,-0.1276381462812423,-0.2866742610931396
0.3487539062499998,0.0490425190558657,0.0341641354084014,0.2369394551157951,0.1882180422544479,-0.0893187224864959,-0.2861954271793365
0.3587207031250017,0.041923005906865,-0.0657755175940692,0.338360432717204,0.1705985367298126,-0.0571184605360031,-0.2825577855110168
0.36868481445312895,0.0735060022482648,-0.1376060974434018,0.270627205184102,0.1544517874717712,-0.0557325519621372,-0.2775971293449402
0.37864990234375284,0.1233987814579159,-0.1595607396200299,0.1579834073007106,0.1456330716609954,-0.0666256919503212,-0.2699978649616241
0.38861376953125415,0.1589138565512373,-0.1918896224252879,0.1122708729177713,0.1355330348014831,-0.0752593949437141,-0.2625673711299896
0.3985786132812521,0.1559661126615479,-0.2263182539887726,0.1027267995029687,0.1197662353515625,-0.0684964805841445,-0.2519288063049316
0.40854272460937935,0.1259666957171633,-0.1857176557920873,0.1052379055410623,0.1109322682023048,-0.0729847103357315,-0.2466192543506622
0.4185065917968771,0.0930972397617995,-0.1002260687284171,0.0899941591799259,0.0982045978307724,-0.0749104395508766,-0.2350668311119079
0.4284716796875081,0.0773402831815183,-0.0412443029277026,0.1265805532991886,0.0822554528713226,-0.0821840614080429,-0.2294752597808838
0.43843579101562824,0.0707897290268912,-0.0425273284755647,0.1902086836010217,0.0687053352594375,-0.0796364247798919,-0.2287712395191192
0.44840087890625213,0.0750332848807796,-0.0337403570383787,0.2067337019443511,0.0510792098939418,-0.0741343349218368,-0.2267869114875793
0.4583649902343794,0.0650144700936973,-0.0053325931996107,0.2085387055397033,0.0271955952048301,-0.0641008913516998,-0.2308787405490875
0.46832885742187713,0.0247291483912616,0.0267738790266215,0.2017524064004421,-0.0009747892618179,-0.0577846802771091,-0.2385236173868179
0.47829370117187864,-0.0515532597677782,0.0676490563809871,0.2476788757950067,-0.0254087597131729,-0.0385566540062427,-0.2447575330734253
0.4882578124999988,-0.0662833209857344,0.0672524582788348,0.2374053190618753,-0.0415427200496196,-0.027874182909727,-0.2513398230075836
0.4982229003906298,-0.0998254155056551,0.0526287435121834,0.183175131702423,-0.0572280175983905,-0.0257424861192703,-0.2598526179790497
0.5081865234375087,-0.0983453330157324,0.0827827664963901,0.1335509768337011,-0.0682500451803207,-0.0211679749190807,-0.2567687034606933
0.5181506347656288,-0.0281842938138172,0.0949655178517103,0.0506061516433954,-0.0746539533138275,-0.0275987889617681,-0.2584087550640106
0.5281157226562527,0.0348507294330745,0.0788375360019505,-0.015634206983447,-0.0773136541247367,-0.035270556807518,-0.2580417692661285
0.5380800781249988,0.0736923551332205,0.0864639392271637,-0.0789683227747678,-0.0795622169971466,-0.0443547442555427,-0.2593148648738861
0.5480446777343779,0.0861146143328398,0.1004975791461765,-0.0520090041786432,-0.0791142731904983,-0.0462338700890541,-0.2576304078102112
0.5580087890625052,0.0910013999937102,0.0625100860573351,-0.0396615637809038,-0.0724324062466621,-0.0425201766192913,-0.2579006254673004
0.5679729003906289,0.0902788944054394,0.0075027768455445,-0.0468862543374299,-0.053646732121706,-0.0475157350301742,-0.2485324144363403
0.5779375000000044,0.1139926186764612,-0.0936249168977141,-0.1069464630246162,-0.0389310494065284,-0.057360004633665,-0.2390608340501785
0.5879016113281281,0.1361726671067997,-0.1803906155504286,-0.1346761814713478,-0.0222194455564022,-0.0686310306191444,-0.2257996201515197
0.597866699218752,0.1620729416366666,-0.2564874745421111,-0.0749812989652156,-0.0112427547574043,-0.0728054121136665,-0.2143912315368652
0.6078308105468793,0.152826535994187,-0.2916130023285746,0.0387169764071702,-0.0075066061690449,-0.0606816411018371,-0.2049540579319
0.6177944335937546,0.1349918232917785,-0.2866599099658429,0.1258347033679485,-0.0043961904011666,-0.0483873039484024,-0.1944238990545272
0.6277597656250045,0.1329406994482502,-0.2559767485409975,0.1293342359215021,-0.0003045094199478,-0.0427027866244316,-0.1857659667730331
0.6377238769531282,0.123080691952072,-0.1836352965600788,0.0424561629354953,0.0079396869987249,-0.0429461784660816,-0.1830784380435943
0.6476887207031297,0.1230192440884187,-0.0795528446644544,-0.0539858572095632,0.0177339930087327,-0.0511886589229106,-0.1701162904500961
0.6576525878906274,0.1564476856334135,-0.0300393105633556,-0.0732137047708034,0.0223455466330051,-0.0527643486857414,-0.1644244343042373
0.6676166992187547,0.149384761509858,-0.019136662146449,-0.068859601214528,0.0247873980551958,-0.0517305098474025,-0.1609114557504654
0.6775817871093786,0.1661094306111335,-0.0619685265265405,-0.0366588748335838,0.0303020793944597,-0.0443977713584899,-0.1544200927019119
0.6875456542968799,0.1534241000285372,-0.1035080130085349,0.0012146364867687,0.0396202132105827,-0.0400448329746723,-0.1564678102731704
0.6975109863281297,0.1038822896810248,-0.1173942072808742,0.0121042792916297,0.050264123827219,-0.0367428995668888,-0.1551694422960281
0.7074748535156274,0.0623574893115088,-0.105005265828967,0.0114917003512382,0.065632164478302,-0.0364645980298519,-0.1543111056089401
0.7174389648437547,0.0548491960406303,-0.0674897741660475,-0.0278916310101747,0.0822137668728828,-0.0427920445799827,-0.1534316539764404
0.7274038085937526,0.0629044922024011,-0.0218561502382159,-0.0947580125808715,0.0918629318475723,-0.0518246889114379,-0.1551443338394165
0.737367675781254,0.0808251661552116,-0.0136298814237117,-0.1247942544043064,0.0995917022228241,-0.0634978413581848,-0.1528013050556183
0.7473327636718778,0.0954851212790235,-0.0057854515336453,-0.0675350746124982,0.0993890389800071,-0.0632490962743759,-0.1517959684133529
0.7572966308593791,0.0989298914380371,-0.004477729935944,0.0047942485392093,0.0882736146450042,-0.0635037943720817,-0.152544304728508
0.7672607421875028,0.0870104306614026,-0.0250352186657488,0.0951268458932638,0.0658143833279609,-0.0592011921107769,-0.1546524614095688
0.7772258300781267,0.0768058840438723,-0.0486975415430963,0.1885217534273862,0.0460208356380462,-0.0392999686300754,-0.1550458967685699
0.787189941406254,0.0695398020310327,-0.0580418546020984,0.2307043601185083,0.0255808066576719,-0.0284505151212215,-0.1562416553497314
0.7971538085937517,0.0600976180881261,-0.0691303809799254,0.2195481753319501,0.0032978150993585,-0.0201082210987806,-0.1567552536725998
0.8071188964843792,0.0563146654833108,-0.0728751204662025,0.1817109043687582,-0.0128505285829305,-0.0153259830549359,-0.1571259796619415
0.8170827636718769,0.0507701465660706,-0.07562120430395,0.1384241358280181,-0.0213246494531631,-0.014026747085154,-0.1507931649684906
0.8270476074218784,0.0454748531695455,-0.0729462860062718,0.0630202275365591,-0.017957080155611,-0.0129316551610827,-0.1506325751543045
0.8370117187500021,0.055569948063232,-0.0628593378864228,-0.0284960266441106,-0.0119949430227279,-0.0239592492580413,-0.1410416066646576
0.8469755859375034,0.0563654823550954,-0.0329959684118628,-0.1006476551413536,-0.0041785659268498,-0.032319713383913,-0.135407954454422
0.8569406738281273,0.0771826084017753,-0.0057221770390868,-0.0849129103928804,-0.0008215811103582,-0.0330293625593185,-0.1287347674369812
0.866904785156251,0.0637941345185041,0.0004248012833297,-0.0301584068983793,-0.0004953439347445,-0.0273315329104661,-0.1215037554502487
0.8768698730468785,0.0506804955212399,-0.0417078287862241,0.0219172327756881,-0.006029303651303,-0.0273373443633317,-0.1210691854357719
0.8868339843749986,0.0308804740952327,-0.0732385469511151,0.0727788204848766,-0.0119268745183944,-0.025669140741229,-0.1181852519512176
0.8967978515625035,-0.0008829933796077,-0.0868264889292418,0.1226718554228544,-0.0164090991020202,-0.0124684693291783,-0.115329660475254
0.9067626953125085,-0.0130425830550491,-0.0568185964174568,0.1317453887164592,-0.0189401656389236,-0.0093246083706617,-0.1134713068604469
0.9167268066406287,-0.0027217531140893,0.0062991001442074,0.0703483784675598,-0.0182682685554027,-0.0063599967397749,-0.1107007786631584
0.9266916503906266,0.0225821629578247,0.0488791817203164,-0.0076724343240261,-0.0144415721297264,-0.0139199122786521,-0.111337810754776
0.9366555175781279,0.0502749469276517,0.0448418890282511,-0.0620353081524372,-0.0048850243911147,-0.0296297539025545,-0.1077302247285842
0.9466196289062516,0.0664422744071111,-0.0198246444106101,-0.0863362211942672,-0.0041159032844007,-0.0383175201714038,-0.1094101443886756
0.9565849609375086,0.0691434961898252,-0.0963838602170348,-0.0223550396710634,-0.0220261998474597,-0.027681291103363,-0.1128550618886947
0.9665485839843768,0.074714208994247,-0.1560091846182942,0.1072182657033204,-0.0276289582252502,-0.0115446671843528,-0.1127543970942497
0.9765136718750043,0.0574963495485484,-0.1532825361333787,0.1726519841223955,-0.0299568064510822,-0.0027881737332791,-0.1101711690425872
0.986477783203128,0.0408965124033391,-0.1450445768810808,0.1266051032185554,-0.031423944979906,-0.0043453238904476,-0.1107093915343284
0.9964418945312516,0.0487746618999168,-0.1491226399749517,0.0636222850829362,-0.0259030014276504,-0.0030363518744707,-0.1142721250653266
1.0064064941406272,0.0577021743189543,-0.1190643324501812,0.0258148247361183,-0.0187910292297601,0.0001421307679265,-0.1158074364066124
1.016370605468758,0.0769082484398037,-0.0644930765680968,-0.0339870252758264,-0.0164537467062473,-0.0066632134839892,-0.1116328686475753
1.0263359375000043,0.0960751230614259,-0.0219514273062348,-0.0929109234094619,-0.0109971966594457,-0.0148273995146155,-0.1050982773303985
1.0362998046875056,0.088223240517266,-0.0160272979542613,-0.0851186620980501,-0.0133262397721409,-0.0192542243748903,-0.1085486784577369
1.0462636718749998,0.0528613466916605,-0.025781799249351,-0.044402036306262,-0.0105640087276697,-0.0189519561827182,-0.1070091053843498
1.0562287597656272,0.0405331224510446,-0.059493514715135,0.0333522345036268,-0.0093328906223177,-0.0111208073794841,-0.1057329848408699
1.066192871093758,0.013163506020978,-0.0637545331604778,0.0631903234064579,-0.0107856448739767,-0.0013954765163362,-0.1019180044531822
1.0761577148437524,0.0216826933674514,-0.0540755813196301,0.0461632007598876,-0.0127564035356044,0.0044255550019443,-0.0965590849518776
1.0861215820312538,0.0643982378914952,-0.0436976874291896,0.0229097509443759,-0.0139859858900308,0.0065305177122354,-0.0935654267668724
1.0960856933593774,0.0741342536818236,-0.0592142593823373,-0.0148795892238616,-0.0116399675607681,0.0023872971069067,-0.0944667905569076
1.1060507812500049,0.0681427947146818,-0.0828153535917401,-0.044422494572401,-0.0103533947840332,-0.002431426430121,-0.0922808721661567
1.1160148925781286,0.0496935303105041,-0.0908041603885591,-0.0464922865837812,-0.0195112936198711,0.0001770406961441,-0.0850781425833702
1.1259787597656299,0.0523121153110638,-0.1192471416711807,-0.0069166475206613,-0.0186897069215774,0.0066767511889338,-0.075273185968399
1.1359438476562538,0.0547616273550316,-0.0881327492222189,0.0188046537131071,-0.0275182873010635,0.0030991402454674,-0.0734791755676269
1.145907714843755,0.0344168315278366,-0.067286506678909,0.0230231481909751,-0.0363272242248058,0.0002088116016238,-0.0691374242305755
1.155872802734379,0.0320178075620904,-0.0921986834868788,0.0680237349122762,-0.0353511124849319,0.0097619816660881,-0.0655964165925979
1.1658366699218767,0.0104359076879918,-0.0968143605887889,0.0671563044279813,-0.0280878748744726,0.0123319309204816,-0.0668307915329933
1.175800781250004,-0.0204960043335333,-0.0622282003760337,-0.0359089332491159,-0.0243098214268684,0.0023971933405846,-0.0644470155239105
1.1857658691406279,0.005690357128717,-0.0360173620596528,-0.0870738878190517,-0.0188396871089935,-0.0027051570359617,-0.0646587312221527
1.1957299804687551,0.0280320623941719,0.0277019536569714,-0.0405289942651987,-0.0151884816586971,0.002120841294527,-0.066259890794754
1.2056945800781271,0.0274118846692144,0.0743983845107257,0.0036731355547904,-0.008517263457179,0.0096844853833317,-0.0648814365267753
1.2156586914062508,0.0303299275403842,0.0090269176729023,0.0343143575340509,-0.0099167134612798,0.0151287605985999,-0.0695231258869171
1.225622802734378,0.0330767054978758,-0.0763693923227488,0.0465437245100736,-0.0073092128150165,0.0239009466022253,-0.0679968670010566
1.235587890625002,0.0292730388985946,-0.1207081541344523,0.0452115991234779,-0.0021642334759235,0.0243555679917335,-0.0686802715063095
1.2455517578125033,0.0156339147225022,-0.1275005907535553,0.0115583358466625,0.0085544567555189,0.0205957181751728,-0.0618668459355831
1.2555166015625083,0.0272646216856315,-0.119017132307589,-0.0443675495147705,0.0257986932992935,0.0043275309726595,-0.0601629503071308
1.2654807128906285,-0.0001626066831871,-0.0933629049606621,-0.1020353101074695,0.0387861281633377,-0.0087890699505805,-0.0573205612599849
1.275445068359378,0.018734620684199,-0.0917602920696139,-0.1377653796583414,0.050535500049591,-0.0221259910613298,-0.0538264065980911
1.2854096679687537,0.0423436059391126,-0.0901832520112395,-0.1176829610943794,0.0578227043151855,-0.0234141610562801,-0.0497216768562793
1.2953737792968774,0.0335396103018894,-0.0896830474041402,-0.0694879622459411,0.0540188997983932,-0.0240781717002391,-0.0551472678780555
1.3053388671875084,-0.0007304696990177,-0.070559537000209,-0.007045826858282,0.0510255061089992,-0.0207910314202308,-0.055154725909233
1.315302734374999,-0.0230391860103234,-0.0464708054043352,0.0234808288305997,0.0412978157401084,-0.0164897218346595,-0.0554506853222847
1.3252666015625039,-0.0398852895341813,-0.0266729028701782,0.0462672456562519,0.0310052298009395,-0.012903775088489,-0.0630353689193725
1.3352316894531278,-0.0568324788123369,-2.922609448432922e-07,0.0655471156656742,0.01895247772336,-0.0117957321926951,-0.0631182491779327
1.345195800781255,-0.0423641738031059,0.0012824410259723,0.0690560005694627,0.0102162426337599,-0.0077969962731003,-0.0636410266160965
1.3551596679687528,-0.0220841868404299,-0.0548807602226734,0.0469447065263986,0.0030061276629567,-0.0089278165251016,-0.068343736231327
1.3651218261718796,-0.0082971420936286,-0.0918777809694409,0.0358610024541616,0.0021975925192236,-0.0093264915049076,-0.0711123570799827
1.3750856933593774,0.0004865048753097,-0.0932714272849261,0.0570727173089981,0.0057373289018869,-0.0116040697321295,-0.0687550231814384
1.3850507812500048,0.0053609790438786,-0.0960338777355849,0.0985620810389518,0.0086715994402766,-0.0047637410461902,-0.069882608950138
1.3950148925781285,0.0042531639324501,-0.0583249093271791,0.1013864908099174,0.0218322798609733,-0.0001961106900125,-0.0704937055706977
1.4049790039062522,0.0122323991833254,-0.0061607145868241,0.034974282747507,0.0366202816367149,1.641456037759781e-07,-0.0660888329148292
1.4149436035156278,0.0327198914168402,0.0381933909244835,-0.0211205294400453,0.0502027831971645,-0.0024456535466015,-0.0644671469926834
1.424907714843755,0.0582592236798256,0.0300187061667442,-0.0329629429250955,0.058652464300394,-0.0128181334584951,-0.0605914443731308
1.434872802734379,0.0752037826094776,0.0062966159261763,-0.0176321028023958,0.0702170208096504,-0.0141750471666455,-0.0569674260914325
1.4448369140625061,0.079134034730494,-0.0421238622412085,0.0110597386747598,0.0801471546292305,-0.0136437462642788,-0.0534933321177959
1.454800781250004,0.0797568793365731,-0.082097560711205,0.0531131660282611,0.0845421478152275,-0.0170374307781457,-0.0506998971104621
1.4647658691406278,0.0868454493580386,-0.1086689029030501,0.0954155997067689,0.0843152478337287,-0.0151971876621246,-0.0518003180623054
1.474729980468755,0.0583665930444374,-0.1245974166579544,0.1309434246838092,0.0843546986579895,-0.0094652269035577,-0.0519066601991653
1.484694824218753,0.0478219277523458,-0.1134730883143842,0.1532394276440143,0.0789002776145935,-0.002260310575366,-0.0451377071440219
1.4946586914062507,0.0621731457205489,-0.0836320768021047,0.1125011745423078,0.068784661591053,-0.0070254616439342,-0.0431618094444274
1.504622802734378,0.0795800614649429,-0.1140038341902196,0.0289046074450016,0.0564129427075386,-0.0112678771838545,-0.0390285849571228
1.5145878906250019,0.0840783957974985,-0.1472485166661441,0.0136678753465414,0.04196497797966,-0.0070449621416628,-0.0383781120181083
1.5245517578125032,0.0952130994046106,-0.0969091992653906,0.0276736043453216,0.0231710504740476,-0.0033176019787788,-0.0366489216685295
1.5345166015625082,0.0806220082659274,-0.0137988082498311,0.0573304914623498,0.0034107388928532,-0.0025326036848127,-0.0360235832631588
1.5444807128906284,0.0523722480004653,0.0304999138124287,0.0804822344690561,-0.0136790322139859,0.0009595992742106,-0.0387969985604286
1.554445068359378,0.0541276768330484,-0.030190555602312,0.0877256297260522,-0.0242363363504409,0.0089922258630394,-0.0353886857628822
1.5644099121093795,0.0755082454487681,-0.062779696778953,0.0822889916300773,-0.0269639454782009,0.0105192828923463,-0.0400990173220634
1.5743737792968773,0.0786221396856009,-0.04521232977584,0.0516612136542797,-0.0382790938019752,0.0051539102569222,-0.0366610884666442
1.5843378906250045,0.0714155693076551,-0.0250230898365378,0.0529910009533166,-0.0471729859709739,0.0093803461641073,-0.0298497881740331
1.594302734374999,0.0671522493073716,-0.0037708968408405,0.0887128871977329,-0.053559523075819,0.0161581579595804,-0.0270031616091728
1.6042666015625038,0.0597249123182147,-0.0418706181325018,0.0997018987238407,-0.0480584986507892,0.0279173459857702,-0.0223133340477943
1.6142316894531277,0.0320068112440407,-0.0778013248220086,0.0772299546748399,-0.0308205280452966,0.0327144563198089,-0.018912311643362
1.624195800781255,0.0403972211116924,-0.0546218170255422,0.0002174421429634,-0.0176173746585845,0.0305746048688888,-0.0058452454395592
1.6341596679687527,0.1086498328763991,-0.0174304427504539,-0.0580488688647747,-0.0017463434487581,0.0233325064182281,0.0034254561178386
1.644124999999999,0.1650686528539285,0.031128713235259,-0.1012117187649011,0.0123939765617251,0.0113874301314353,0.0114239938557147
1.6540888671875038,0.1881562080506235,0.0407112189643084,-0.0760983202964067,0.0278705582022666,0.0033601922914385,0.0196377709507942
1.6640537109375053,0.1590819796597585,0.0515320343166589,-0.0067938979238271,0.0384017638862133,0.0017559041734784,0.0240005627274513
1.674017822265629,0.1139226952454075,0.0561311986751854,0.035588030731678,0.0447662025690078,0.002246924676001,0.0279228966683149
1.6839816894531268,0.0758846410131081,0.0182049342542886,0.1184369943320751,0.0452442392706871,0.0115360300987958,0.0267875902354717
1.6939467773437578,0.0356335869064554,0.0062501464359462,0.1634101085245609,0.0519789606332778,0.021262802183628,0.0221827886998653
1.703910644531252,0.0038956922642886,0.0491967232368886,0.1200228022187948,0.0522159859538078,0.0284128580242395,0.0198447983711957
1.7138747558593792,0.033670470139943,0.0836466898493468,0.0342711029142141,0.04652089625597,0.0239288546144962,0.0183318648487329
1.7238398437499995,0.0825969616007059,0.0405493064008653,-0.0211012402176857,0.0428579859435558,0.0239237938076257,0.019410977140069
1.7338039550781268,0.0991291038045659,-0.0290703194007277,0.0137602298051118,0.0471532121300697,0.0230196863412857,0.0146075095981359
1.7437687988281283,0.0893292655304074,-0.0464373415261507,0.0142915602028369,0.0463721044361591,0.0306845307350158,0.0180467143654823
1.753732910156252,0.099288568682596,-0.0566885402970016,-0.0152209500074386,0.0402722433209419,0.0181391797959804,0.0200485289096832
1.7636967773437533,0.0969461337422952,-0.0885858998171985,-0.0132704004615545,0.0275977235287427,0.0095273163169622,0.020413115620613
1.7736616210937548,0.046492907638289,-0.1261829322837293,0.1195750584512948,0.0108633143827319,0.0230404436588287,0.0206274650990962
1.7836257324218785,0.0228945899078622,-0.1057809263765811,0.2124526641130447,-0.0057281795889139,0.0367900803685188,0.0180066488683223
1.7935910644531283,0.0283261134373024,-0.0310408888213336,0.1581932506591081,-0.0276078972965478,0.037825271487236,0.0152326561510562
1.8035546875000001,0.0468408442931249,-0.0203578745044767,0.1092401269197464,-0.0391913130879402,0.0358049944043159,0.0148177351802587
1.8135187988281274,0.0531646404871717,-0.0527421407587826,0.0939221462786197,-0.0403183065354824,0.0417412593960762,0.0137392496690154
1.8234838867187548,0.0659161316411569,-0.0498563561893999,0.0259387433767318,-0.0300494208931922,0.0384519919753074,0.015945678576827
1.8334479980468785,0.0838511263802647,-0.0381086352504789,-0.0487654922127723,-0.0218781549483537,0.0279085990041494,0.0196880102157592
1.843412597656254,0.1133859214875847,-0.040669133388251,-0.0662321753203868,-0.0198815837502479,0.0300162248313426,0.0269943922758102
1.8533767089843778,0.1271438132051378,-0.0530152586117386,-0.0267108967930078,-0.0089359115809202,0.0336747728288173,0.0328994467854499
1.8633408203125086,0.1296504622638225,-0.0928539325252175,-0.019888357296586,-0.0009224601089954,0.0382865704596042,0.0385789051651954
1.873305908203129,0.1214584610451012,-0.147966601807624,-0.0147989252030849,0.0108849937096238,0.0417556799948215,0.0484920851886272
1.8832697753906267,0.1305241032931953,-0.1782498041294515,-0.0027916765451431,0.0226843953132629,0.0426606237888336,0.0634697005152702
1.8932348632812541,0.1327551137482747,-0.162282419668883,-0.0124865566074848,0.0366651937365531,0.0441733002662658,0.0732176750898361
1.9031989746093778,0.1203928776402026,-0.1596647845163941,-0.042602293407917,0.0444034151732921,0.0429325737059116,0.0854547247290611
1.9131625976562532,0.1350863697074353,-0.1799132072970271,-0.0689198069691658,0.0600348375737667,0.0364813320338726,0.1020358353853225
1.923127685546877,0.1425074230862781,-0.1591775855213403,-0.0631874007970094,0.0713865607976913,0.0362570956349372,0.1124882102012634
1.9330917968750043,0.1575027841769158,-0.1412969147853553,-0.0658294397383928,0.0736316367983818,0.0298738069832324,0.1273554861545562
1.943055908203128,0.1654583097586408,-0.1673097463116049,-0.0337198987722396,0.0727669075131416,0.0325393639504909,0.1402337253093719
1.9530205078125036,0.173215353626199,-0.1649547076180577,0.0348982949018478,0.0660231262445449,0.0398955903947353,0.1480904221534729
1.9629846191406273,0.152990129058063,-0.1526847163707017,0.0744300948232412,0.0597798824310302,0.0443292222917079,0.158297523856163
1.972949951171877,0.1397463974077254,-0.139473498750478,0.0757505297720432,0.0545304119586944,0.0543944351375103,0.164912611246109
1.9829138183593784,0.1219790873857215,-0.1022267410263419,0.0683645111739635,0.049654696136713,0.0586842522025108,0.17122882604599
1.9928776855468797,0.1153716519447043,-0.0421634635992348,0.0163975925713777,0.0508398674428463,0.0582564286887645,0.1757693290710449
2.0028427734375036,0.1136206435589119,0.0002164192296564,-0.0465489852070808,0.0521307028830051,0.057340033352375,0.1809310615062713
2.0128068847656273,0.1334980776026844,0.0222113934166729,-0.0730301648974418,0.0580812059342861,0.0524718314409256,0.1889442056417465
2.022771728515629,0.1663593867842107,0.0137780577227473,-0.0739034406006336,0.0659287422895431,0.0469204746186733,0.188830479979515
2.03273559570313,0.1538351650474592,-0.0310240838170051,-0.0628776041954755,0.0673942416906356,0.0388144813477993,0.1893054693937301
2.042699707031254,0.1141684867000207,-0.0762725078195333,0.0064501990526914,0.0703407600522041,0.0406459383666515,0.1888175904750824
2.0526647949218777,0.086224212187156,-0.1474345407575368,0.0774035576760768,0.068433292210102,0.0457481518387794,0.1900043189525604
2.062628906250005,0.083881046594493,-0.1908078185379505,0.0546802692145109,0.0672617629170417,0.043775551021099,0.196942389011383
2.0725927734375027,0.1129713128047063,-0.1479236394487321,-0.029416648620367,0.0783518925309181,0.0174074899405241,0.198527991771698
2.08255786132813,0.110986020739004,-0.0593143587559461,-0.0598807604670524,0.0794126242399215,-0.0014586101751774,0.1985961645841598
2.092521728515628,0.0752133906880393,0.0027928455889225,0.0109364045560359,0.0694187954068183,0.0075472146272659,0.1892862021923065
2.102486816406252,-0.0042316827530041,0.0551578235983848,0.1718079345136881,0.0359162352979183,0.0444825962185859,0.1756755858659744
2.112450683593753,-0.0579291514752432,0.0924481282033026,0.3309416808933019,0.0058566639199852,0.0941389724612236,0.1614897847175598
2.122414794921877,-0.061073879241757,0.0914461115539073,0.2923474540829658,-0.0089635616168379,0.1103600189089775,0.1598575264215469
2.132379882812508,-0.0094677567755803,0.0705859866157174,0.0542851324170827,-0.0095214480534195,0.0982576757669448,0.1554541140794754
2.142343994140628,0.0379116879062727,0.0514445021636784,-0.1191056873738765,-0.0039447885937988,0.0802344679832458,0.1627072244882583
2.1523088378906294,0.1090689350713044,0.0356779009722173,-0.1367810447961092,0.0130695048719644,0.0627660602331161,0.1696141958236694
2.162272705078127,0.1282922525878995,0.0540476703993976,-0.1103612399041652,0.0292327627539634,0.0592826455831527,0.1791384667158126
2.172236816406251,0.1404748212801292,0.060281596352905,-0.0380108739644289,0.0410247705876827,0.0641299411654472,0.1904439330101013
2.1822019042968783,0.1653222622888162,0.0335517025984823,0.0050771571338176,0.046629924327135,0.0584693923592567,0.1981074512004852
2.1921657714843796,0.1671021314429119,0.000185439569503,0.0473398433238267,0.053673580288887,0.058840662240982,0.2040895819664001
2.2021296386718774,0.162279643189907,-0.0398776907496154,0.0819014536172151,0.0539047420024871,0.0544115602970123,0.2121166288852691
2.212094970703127,0.1683403314683586,-0.0746966368049383,0.0956996773451566,0.0464379303157329,0.0610985532402992,0.2272359728813171
2.222059082031251,0.2017774677764624,-0.0744828479237854,0.1382172150790691,0.0402532704174518,0.0639015287160873,0.237571969628334
2.23202368164063,0.1941812039611861,-0.0660622255809605,0.127073889774084,0.030640322715044,0.0582460388541221,0.2541362941265106
2.2419877929687537,0.2221660662127658,-0.1009985144056379,0.1064075338423252,0.0209916904568672,0.0582772009074687,0.2668382525444031
2.2519519042968774,0.2110624518636614,-0.0588293517179787,0.1503150646299123,-0.0009145331569015,0.0580358915030956,0.2767724990844726
2.2619169921875084,0.1986754831731319,-0.0601302051834762,0.1815624358087778,-0.0236741732805967,0.060662567615509,0.2848740816116333
2.2718806152343767,0.1710013673711568,-0.0900927972488105,0.2433446459829807,-0.0410627350211143,0.0750911235809326,0.2854522168636322
2.281845703125004,0.1541353901030495,-0.0896449073508381,0.2385796235382556,-0.05661266669631,0.0789324715733528,0.2892346978187561
2.291809814453128,0.1620725032452493,-0.0433164330266416,0.1885766984850168,-0.0681688264012336,0.0869803950190544,0.2883406579494476
2.301773925781255,0.2025587908798828,0.0161436178103089,0.0909270561158657,-0.067828744649887,0.0847705081105232,0.2886445224285126
2.311738769531253,0.2316907408073544,0.048473231267929,-0.0097702833861112,-0.0624714344739913,0.0821720361709594,0.2879238426685333
2.3217028808593767,0.2392387085014954,0.0399307361111044,-0.0528735120534896,-0.0523772537708282,0.0838772654533386,0.2851922512054443
2.3316669921875075,0.218221091446653,0.0218185947068035,-0.0866653070181608,-0.0363612994551658,0.0816310495138168,0.2793411314487457
2.3416315917968795,0.189615101622045,-0.0032061025649309,-0.1336696347773075,-0.0097499312832951,0.0777894407510757,0.2803928256034851
2.3515957031249997,0.1874111618369817,-0.0066246788367629,-0.1897995182782411,0.0186527930200099,0.0698321163654327,0.2813283205032348
2.361561279296879,0.1845814548363909,0.0407310927085578,-0.2382201425760984,0.0511577390134334,0.0507764033973217,0.2880173921585083
2.3715251464843767,0.1715741622904315,0.0880612914212048,-0.2565665311276912,0.0774744227528572,0.0363827757537364,0.286314994096756
2.381489013671878,0.132548996716924,0.1122973225332796,-0.2154261269658803,0.0984425544738769,0.0267080441117286,0.2914844453334808
2.3914541015625055,0.0833607125148177,0.1069184059739112,-0.1303764384508133,0.1031296998262405,0.0213050656020641,0.2932243049144745
2.401418212890629,0.0333018194906413,0.0517073908835649,-0.0153758483082056,0.0925233960151672,0.0274620279669761,0.2958456575870514
2.411383300781253,-0.0013089271740987,-0.0255099965706467,0.1127203702509403,0.083709716796875,0.0366244316101074,0.301393985748291
2.421347167968758,-0.0115116106281057,-0.0703400490306317,0.2108972513645887,0.0612603276968002,0.0448535978794097,0.3035463392734527
2.431311279296878,-0.0337672085126861,-0.0928670842677354,0.2602788296490907,0.0308127515017986,0.0550579279661178,0.3076239228248596
2.4412761230468796,-0.0395482761321589,-0.0559727932430803,0.3098655751168728,-0.0108449449762701,0.0685825198888778,0.3073629140853882
2.4512402343749997,-0.0295513809159398,-0.0303584595151245,0.370865695002675,-0.0425386913120746,0.0916857123374939,0.3171311318874359
2.461204101562508,0.0090352105772122,-0.0246959037087857,0.2942500728338956,-0.0747778564691543,0.1037477031350135,0.3265358209609985
2.4711691894531285,0.0654996963273733,-0.0480317711107432,0.1777045913368463,-0.0935397893190383,0.100027896463871,0.3398366272449493
2.4811330566406298,0.0780527057671919,-0.0735125415869057,0.1173673192739486,-0.0964176058769226,0.1052556857466697,0.3520283102989197
2.4910983886718796,0.1046593019355088,-0.099507252934575,0.0360983183413744,-0.0946824923157692,0.1014210805296897,0.3687911331653595
2.5010622558593774,0.1322827469961717,-0.1132299272082746,-0.0511000726401805,-0.0896453931927681,0.0857542380690574,0.3860169947147369
2.511026367187508,0.1171509731095284,-0.1258579381130635,-0.0568681346476078,-0.0930539220571518,0.0816094130277633,0.3994636833667755
2.520991210937506,0.0691345456983894,-0.1131657759308815,0.0515156677037477,-0.1026053503155708,0.0939619541168212,0.4080044329166412
2.53095532226563,-0.0041012978389859,-0.0626281594790518,0.1678682569772005,-0.116207979619503,0.1080988124012947,0.4117515087127685
2.540919921875002,-0.0529590349124744,0.0207077108554542,0.1529845761001109,-0.1328394114971161,0.1150912120938301,0.4130199551582336
2.550884033203129,-0.0639658378235995,0.039716070447117,0.1121545530617237,-0.1528538912534713,0.1198619157075882,0.4157862365245819
2.5608481445312528,-0.0454575732411816,0.0008465338267385,0.0897445683330297,-0.1533441692590713,0.1265475153923034,0.417196661233902
2.5708132324218766,-0.0340000308878719,-0.0308010887160897,0.0413140071630477,-0.1525216400623321,0.1186966150999069,0.4127737581729889
2.580777099609378,-0.033246947498247,-0.014194529569149,-0.0329682036221027,-0.1425065547227859,0.1102850213646888,0.4124400615692138
2.590741210937505,-0.0310081555955111,0.0111455172620713,-0.1177630405932664,-0.1368419528007507,0.0982135906815528,0.412222295999527
2.600706298828129,-0.0259780890064314,-0.0052517830483615,-0.1569242536365985,-0.1354861259460449,0.0935586541891098,0.408705323934555
2.610670410156253,-0.0231344630783423,-0.0886667099684476,-0.1130243216335773,-0.1385724693536758,0.0996478423476219,0.4005315899848938
2.6206350097656284,-0.0447293320318683,-0.1806850684523582,-0.0789770906031131,-0.1423435062170028,0.1043896004557609,0.3997885882854461
2.630599121093752,-0.0913484598657116,-0.2016017458833754,-0.1017249289840459,-0.1472458392381668,0.1016753315925598,0.3986297845840454
2.6405632324218793,-0.1957813691668212,-0.1537459158614277,-0.1239110418289899,-0.1516571044921875,0.0887986794114112,0.3985432088375091
2.6505280761718772,-0.2900022061310708,-0.0909856544353067,-0.061804422006011,-0.1456734538078308,0.081717275083065,0.4006924629211426
2.6604919433593786,-0.3179678522255271,-0.051736178586632,-0.0252238731056451,-0.1312013119459152,0.0793031156063079,0.4030440151691437
2.670456054687506,-0.2725105712452903,0.009533844281733,-0.0782359168469905,-0.1060787960886955,0.0621144883334636,0.3981115221977234
2.680421386718752,-0.2221384475534781,0.0872508518211543,-0.2031657803297042,-0.0811114013195037,0.0267490372061729,0.3925133049488067
2.6903850097656274,-0.1653249291699379,0.1042069550581276,-0.2688631181210279,-0.0604956001043319,-0.0026005948893725,0.3765351176261902
2.700350097656255,-0.1424570811385288,0.0527484243690967,-0.1842804625958204,-0.0344235226511955,-0.0103583838790655,0.3544007837772369
2.7103142089843786,-0.1720586944043636,0.0295955123186111,-0.0378957231521606,-0.010000629350543,0.003461230546236,0.3292783498764038
2.720278320312506,-0.1971551782706752,0.059563511211425,0.0735492203354835,0.006661438383162,0.0181557554751634,0.2965925633907318
2.730242919921878,-0.2166645096544176,0.0781618286974728,0.1244376960515975,0.0239922106266021,0.0322832725942134,0.2674277722835541
2.740207031250005,-0.2088440451618284,0.0941788975186646,0.0815840582311153,0.03656792268157,0.0328934006392955,0.2351910322904586
2.750172363281255,-0.1929347475640475,0.1210591595292091,-0.0075520228147506,0.0395939797163009,0.0374019518494606,0.2065953612327575
2.7601362304687527,-0.1575980612449347,0.0999238709114491,-0.0552495935350656,0.0386594757437706,0.0345992408692836,0.1863337606191635
2.770100097656254,-0.1339647817989811,0.0348389659300446,-0.0767886406481266,0.0437485575675964,0.0316182188689708,0.1644874364137649
2.780065185546878,-0.1055262574957683,-0.0001557750836014,-0.1385971543073654,0.0413770154118537,0.0173260997980833,0.1475531905889511
2.790029296875005,-0.103469580694288,-0.0188490773767232,-0.1282107848495245,0.0304712764918804,0.0090264389291405,0.1305816769599914
2.799993164062503,-0.1225025632705539,-0.0121136316418647,-0.0218213711857795,0.0166020654141902,0.0132590010762214,0.1229405328631401
2.809958007812508,-0.1225249577654525,-0.0114218499854207,0.0704740506738424,0.0038316631689667,0.0267146006226539,0.1128141731023788
2.819922119140628,-0.1302763025445863,0.0024001930095255,0.0898982975900173,-0.003047548700124,0.0332665108144283,0.1049085780978202
2.829887207031252,-0.1011761725274845,0.0127688806802034,0.0131260235548019,-0.0057010552845895,0.0284130424261093,0.1044615134596824
2.839851318359379,-0.0578748640047386,0.0198582544192671,-0.0401969858318567,0.0018455442041158,0.0224230606108903,0.1086812913417816
2.849815185546877,0.0037445933558046,-0.005397182868421,-0.0686994422167539,0.010286035016179,0.0153374345973134,0.1136125177145004
2.859780273437508,0.0439588956486433,-0.0320166019856929,-0.1188496667861938,0.0298584047704935,0.0013846008805558,0.1218041330575943
2.8697441406249986,0.0515399984274059,-0.0455373239465057,-0.1390004744112491,0.0473509542644023,-0.0058949450030922,0.1290947496891021
2.8797092285156296,0.0420555097127333,-0.0532223254911601,-0.081741294619441,0.0568014457821846,-0.0044531095772981,0.1335299760103225
2.8896730957031274,-0.0075042016176506,-0.0383764924064278,0.0098597152352333,0.0612044036388397,0.0026595371309667,0.1338981688022613
2.899637207031251,-0.0266272005649283,-0.0387187299728393,0.0603279197126626,0.0642300248146057,0.0118405185639858,0.137301966547966
2.9096022949218785,-0.034949659762904,-0.0469021825589239,0.0691372491121292,0.0655565708875656,0.0232512019574642,0.1388962864875793
2.9195664062499986,-0.0330704584201797,-0.0829195446185767,0.0960211643844842,0.0644353777170181,0.0254062321037054,0.1359252780675888
2.9295302734375035,-0.0418185226190835,-0.0952533948823809,0.0892354497671127,0.0624068416655063,0.0323871560394763,0.1345956027507782
2.9394951171875086,-0.0760575864272192,-0.0993131916671991,0.1025543655455112,0.0569084770977497,0.0404781065881252,0.1336019784212112
2.9494592285156287,-0.0944996539056301,-0.0955756125740706,0.108358667910099,0.0468523949384689,0.0397617369890213,0.1338333636522293
2.9594243164062526,-0.0937631197920069,-0.0973772551685571,0.1181710368722677,0.0352769643068313,0.04785668104887,0.1266081929206848
2.9693881835937574,-0.126220597412996,-0.0680121906049549,0.1159586215198039,0.0241944231092929,0.0473878197371959,0.1209158897399902
2.9793520507812516,-0.1499956599498167,0.0207436589516699,0.1009995373189449,0.0100197484716773,0.0488352477550506,0.1175794750452041
2.989317138671879,-0.1350383293146267,0.0962866834528744,0.0717050537735223,-0.0033636544831097,0.0475428737699985,0.1084931716322898
2.999281005859377,-0.1174309956273064,0.062158642271161,0.0482055202424526,-0.0145161738619208,0.0387997180223465,0.1043378412723541
3.00924536132813,-0.1375521387664601,-0.0387548241995275,0.0478869558125734,-0.0109723443165421,0.0365394949913024,0.0938957035541534
3.019210205078128,-0.1782290901349857,-0.0724973731949925,0.0428957233965396,-0.0117683634161949,0.0344366654753685,0.0873152986168861
3.0291743164062517,-0.2038577081166207,-0.0362989554800093,0.0104962595731019,-0.0070400526747107,0.0214036647230386,0.0826514214277267
3.039139404296879,-0.1937354329550638,0.0184396197929978,-0.0539075312763452,-0.0095311729237437,0.0100210476666688,0.0744667276740074
3.049103027343758,-0.185545331432484,0.0322794907055795,-0.068954878282547,-0.0095469206571578,0.0005970830097794,0.0596649870276451
3.059067138671878,-0.2062595816265791,0.0112171211935579,-0.025045009407401,-0.0121855800971388,0.0058672125451266,0.0468469262123107
3.0690322265625056,-0.2180172394376248,-0.0057680620074272,0.0438660297334194,-0.0125339832156896,0.0197274908423423,0.0394640415906906
3.07899609375,-0.2068663518806919,-0.010566986721754,0.0417471378833055,-0.0104862786829471,0.0145604256540536,0.0259604826569557
3.0889611816406273,-0.1710975212220102,-0.0682923227205872,-0.0303016147613525,-0.0125759998336434,0.0039372197352349,0.0188413895666599
3.098925292968758,-0.1365041640834882,-0.0573522649027407,0.0012900398105382,-0.0052706822752952,0.0046882312744855,0.008408723399043
3.108889404296878,-0.1576737568296492,0.03187280960083,0.0153980601400136,-0.0132618881762027,0.0028664038982242,0.0025666481815278
3.118854003906254,-0.1312803284879773,0.038432021985948,0.023292028260231,-0.0257430598139762,0.0014770327834412,-0.002818529959768
3.1288181152343775,-0.1174510520346462,-0.0194734928853809,0.057755438876152,-0.0329925194382667,0.0073041934520006,-0.0096804779022932
3.1387822265625083,-0.1179552752297371,-0.1093577619500458,0.110100543141365,-0.0336138345301151,0.0060509098693728,-0.015722656622529
3.1487473144531286,-0.1464277383351698,-0.1179880815207958,0.0965618471324443,-0.0310420282185077,0.0047174030914902,-0.0194492004811763
3.158710937500004,-0.1425502393146976,-0.0292474295333027,0.0354419002592563,-0.0322023704648017,-0.0046366835013031,-0.0177756696939468
3.168676269531254,-0.0974701941490173,0.0153716105245053,-0.0219558112204074,-0.0386817157268524,-0.0073454268276691,-0.0213124472647905
3.1786403808593775,-0.0759364442655816,-0.06543824846372,-0.0065197571575641,-0.0430687367916107,-0.0065057314932346,-0.0279881935566663
3.188604003906253,-0.0924783041458576,-0.140205466286838,0.0685012892961502,-0.0385566540062427,-0.0006413895171135,-0.0305956397205591
3.1985690917968768,-0.1099330045547336,-0.113161099755764,0.0537614008039236,-0.0333746746182441,-0.0018155772704631,-0.0296283792704343
3.208533203125004,-0.1125348941488191,-0.0702152536071837,-0.0234171159446239,-0.0240605808794498,-0.0133862728253006,-0.0297097377479076
3.2184973144531277,-0.1043011726802214,-0.0660341685302555,-0.0194838681489229,-0.0144348517060279,-0.0123700117692351,-0.0235826075077056
3.228462158203129,-0.0435945193156599,-0.1064005195796489,-0.0162146372199058,-0.0054564289748668,-0.0158462971448898,-0.0210910104215145
3.238426025390627,-0.0134075804425403,-0.0829882259406149,-0.0183773682117462,0.0047376193106174,-0.0230378974229097,-0.0260953567922115
3.248391357421877,-0.0489442463131621,-0.042261955537647,-0.0116565355241298,0.0065300846472382,-0.0323250778019428,-0.0321768932044506
3.258355224609378,-0.090702928503789,-0.0428118445053696,0.0295189399510622,0.0057788072153925,-0.030474979430437,-0.0377354398369789
3.2683190917968794,-0.1084814175069332,-0.057528790513426,0.1034065984606742,0.0108639262616634,-0.0259823277592659,-0.0389074683189392
3.2782841796875033,-0.111103509638831,-0.0546751546479761,0.1072813940674066,0.0154994241893291,-0.0267844721674919,-0.0393426343798637
3.288248291015627,-0.0884292114181444,-0.0551598694249987,0.0588531709849834,0.0192137770354747,-0.0344937294721603,-0.0436115451157093
3.2982121582031283,-0.0604798223387449,-0.0394770009942352,0.0440992539674043,0.0152898775413632,-0.0342532470822334,-0.0495860800147056
3.30817700195313,-0.0243494648912921,-0.0463633995071053,0.038562662628293,0.008351307362318,-0.0340819656848907,-0.0642066523432731
3.3181411132812535,-0.0477509448753669,-3.09796601533e-05,0.0410223307400941,0.0005972487851977,-0.0365107655525207,-0.0723934769630432
3.3281062011718774,-0.0382092826133593,-0.0235059632718563,0.0536246226817369,-0.0017010262235999,-0.0355660393834114,-0.0831743329763412
3.3380703125000046,-0.058176879158616,-0.050337417704612,0.0190168351590633,-0.007172224111855,-0.0386691577732563,-0.0931097865104675
3.348034179687506,-0.079686809775047,-0.0527015164874494,-0.0317155732125043,-0.0030885031446814,-0.0480817928910255,-0.1025028377771377
3.35799926757813,-0.0879790564978495,-0.0325939634822309,-0.0487993944823741,-0.0002098926343023,-0.0532243549823761,-0.1142143532633781
3.3679619140625086,-0.0811653213623911,-0.0132416127584874,-0.03964987334311,0.0049460027366876,-0.0553814955055713,-0.1178432181477546
3.3779260253906287,-0.0564276608711108,0.0022550854504108,-0.0587695843547582,0.0100558102130889,-0.0583261549472808,-0.1222917586565017
3.3878908691406266,-0.0424491486728191,0.0013742109626531,-0.0635439591497182,0.0125267254188656,-0.0700482204556465,-0.1238207891583442
3.3978549804687574,-0.0517015091320499,-0.0116511286966502,-0.0198012635350227,0.009408694691956,-0.0731761083006858,-0.1262139081954956
3.407820068359378,-0.0616286270476877,-0.0458501892879605,0.0938853213995695,0.0053485054522752,-0.0652828887104988,-0.1302668899297714
3.417783691406253,-0.0923224925296381,-0.0827108703039586,0.1533405499309301,-0.002394635695964,-0.0549274459481239,-0.130075141787529
3.427747802734377,-0.095764961133711,-0.0885956905588507,0.1514239026546478,0.0052184918895363,-0.0524779930710792,-0.1279207617044448
3.4377128906250043,-0.0767416962338611,-0.0659985126949846,0.103752050897479,0.0101128499954938,-0.0578378736972808,-0.1259566843509674
3.447677001953128,-0.0529370057437568,-0.047653585448116,0.0236228676497936,0.0148057369515299,-0.0626488551497459,-0.1238172277808189
3.457640625,-0.0281865223035216,-0.0192746093124151,-0.0088519994974136,0.0206132903695106,-0.0657618269324302,-0.120618499815464
3.467605957031253,-0.009435060082376,0.0054663025818765,0.0012362637966871,0.0239413455128669,-0.0687203109264373,-0.1236318349838256
3.477570068359377,-0.0319494550336152,0.0518847932770848,0.050565819633007,0.0267797410488128,-0.0616602636873722,-0.1240981519222259
3.4875349121093784,-0.0610291998498141,0.0781388862133026,0.0599023877769708,0.0269305892288684,-0.0553248710930347,-0.1240300610661506
3.4974987792968797,-0.0899294599132612,0.1036859999239444,0.0698246468544006,0.0278698876500129,-0.0470754653215408,-0.1294003129005432
3.507462890625,-0.0917038857072591,0.1250184185490012,0.0538783051818609,0.0219273902475833,-0.0431181117892265,-0.129755288362503
3.5174279785156273,-0.086344477565959,0.1032541843779385,0.0116278939515352,0.0237705633044242,-0.0484532192349433,-0.1303837895393371
3.5273916015625026,-0.0662290700478479,0.0637342210248112,-0.0205588039040565,0.0183128025382757,-0.0477933287620544,-0.1280621588230133
3.5373569335937525,-0.0330055764904245,0.0389740199081599,0.0436345590651035,0.01060401648283,-0.0532461516559124,-0.1350905001163482
3.5473210449218797,-0.0870981820100918,0.0152257723130285,0.1307540395915508,0.0009320797398686,-0.0508482232689857,-0.1405945718288421
3.55728515625,-0.0923151494733989,-0.0153977678790688,0.1850268970489501,-0.0084904497489333,-0.0475299246609211,-0.142242819070816
3.567249755859379,-0.1110070635270327,0.0167399762682616,0.1779319703519344,-0.0265244282782077,-0.0432662032544612,-0.1464385390281677
3.5772138671875027,-0.1007903150150552,0.0309454656228423,0.1599485698938369,-0.0354702547192573,-0.0379739701747894,-0.1492391228675842
3.58717797851563,-0.0678379665492102,0.0400824195414781,0.1506061565309762,-0.0529771670699119,-0.0388322249054908,-0.1550810188055038
3.597142822265628,-0.0465083244031295,0.0525876808494329,0.1373579679012298,-0.0602574497461319,-0.03545693308115,-0.1623525172472
3.607106689453129,-0.040460495606251,0.0400740901045501,0.1374298640936613,-0.0692824572324752,-0.0309417061507701,-0.1670263856649398
3.617072021484379,-0.0188948162145912,0.0129220254153013,0.1104845740228891,-0.068950355052948,-0.02659223228693,-0.1764955222606659
3.6270358886718768,-0.0230156590042635,0.0072708677858114,0.0456412227123975,-0.0672084093093872,-0.0283425040543079,-0.1838215291500091
3.637000000000004,-0.0145830904953181,-0.0074932783648371,-0.0173924488276243,-0.0569637641310691,-0.0339159667491912,-0.1776453852653503
3.646964843750002,0.0287745878571644,-0.0236037245579063,-0.0844423702716827,-0.0532652623951435,-0.0512592494487762,-0.1763422787189483
3.656928955078129,0.032271709257923,-0.0391311101660132,-0.1063128412961959,-0.0506534986197948,-0.0601526126265525,-0.1722854822874069
3.666893066406253,0.0257965949596837,-0.085994422019273,-0.0602390723854303,-0.0516271367669105,-0.0649672597646713,-0.1708354502916336
3.676857910156251,-0.0037694720687344,-0.1441261468619108,0.0029319617986679,-0.0539049357175827,-0.0582704730331897,-0.1694498062133789
3.686821777343752,-0.0345717663612216,-0.1534421106092631,0.072751932477951,-0.0565445944666862,-0.0515019036829471,-0.1676933765411377
3.6967866210937537,-0.0460283953990787,-0.1444888426944613,0.0770294636666774,-0.0587273240089416,-0.0471321903169155,-0.1673996299505233
3.7067509765625033,-0.0508857723023742,-0.1360949622280895,0.0051572366327047,-0.0597753264009952,-0.0477927774190902,-0.1685707420110702
3.7167148437500046,-0.0473998298827558,-0.1142307748138904,-0.0421358449399471,-0.0606741420924663,-0.0496724359691143,-0.1723585575819015
3.7266799316406285,-0.0311427782932296,-0.0821658036418259,-0.0492126514583826,-0.0566801577806472,-0.0538428835570812,-0.174283891916275
3.73664379882813,-0.0164345270482823,-0.04860664838925,-0.0686994422167539,-0.0529533252120018,-0.0527888052165508,-0.1735166311264038
3.7466079101562535,0.0032096827615052,-0.0754708360478282,-0.0878144770532846,-0.0473053529858589,-0.0534043461084365,-0.1780502200126648
3.7565729980468774,0.0013342077458277,-0.0979112159147858,-0.0852805746614933,-0.0434011593461036,-0.0532831698656082,-0.1846575289964676
3.7665368652343787,-0.0134149965640157,-0.0436681690737605,-0.0694148970097303,-0.0336293205618858,-0.0549627430737018,-0.1922730803489685
3.7765017089843766,-0.0351678690908476,0.0226728734485805,-0.0790875652402639,-0.0223196726292371,-0.0572091192007064,-0.1933596581220626
3.7864658203125074,-0.0241263236599043,0.0311798589006066,-0.0752922646105289,-0.0042649735696613,-0.065644547343254,-0.1971567124128341
3.7964299316406276,-0.0314162614723667,-0.0042006665602326,-0.0442447999179363,0.0055841952562332,-0.0625057443976402,-0.2043610960245132
3.806394775390629,-0.0460316833347082,-0.0433615873426198,-0.0208855516403913,0.0264993868768215,-0.054389365017414,-0.2162852883338928
3.816358886718753,-0.0578241932634264,-0.0327137904696166,-0.0826823748618364,0.0296523012220859,-0.0564341396093368,-0.2188571095466613
3.82632299804688,-0.0252447332305833,-0.0455734181731939,-0.1043541084438562,0.0304684415459632,-0.0655876919627189,-0.2298004776239395
3.836287841796878,-0.0709068160679191,-0.031259353877604,-0.0698036040663719,0.0352834351360797,-0.0648888796567916,-0.2327217012643814
3.8462517089843793,-0.0907971095932647,-0.0720509446017444,0.0054179333955049,0.0453338325023651,-0.0577459521591663,-0.2308502495288849
3.8562167968749996,-0.0850703659769147,-0.0756317256979644,0.0151975691318511,0.0528825633227825,-0.0575483478605747,-0.2292819023132324
3.866180908203127,-0.0689156422507017,-0.0608631956331431,-0.0054518356651067,0.0525618381798267,-0.0598721168935298,-0.2298135012388229
3.876144775390628,-0.0560942276656627,-0.0615044161461293,-0.0073392568469047,0.0470610782504081,-0.0555937513709068,-0.2347491383552551
3.886109863281252,-0.0324433029651641,-0.0704516927115619,-0.0010837035834789,0.0438715852797031,-0.0519957356154918,-0.2388288229703903
3.8960739746093793,-0.0270411151280626,-0.0287122997432947,-0.0223643920212984,0.0443890355527401,-0.0547640919685363,-0.2368737906217575
3.906038085937503,-0.000834551128,-0.0180908063553273,-0.0787234081029892,0.0393587760627269,-0.0610453225672245,-0.2420619279146194
3.9160026855468786,0.0020372049160301,-0.028243513187766,-0.0696522128969431,0.0393633060157299,-0.0613662339746952,-0.2520626485347748
3.9259667968749987,-0.0180173027276992,0.0052342473916709,-0.0201496385812759,0.039882980287075,-0.0539171881973743,-0.2541609406471252
3.9359318847656297,-0.0306443272517994,0.0666667673453688,0.0025713117927312,0.034672237932682,-0.047186579555273,-0.2566206455230713
3.9458959960937534,-0.0411375180849805,0.0736534113623201,-0.001900280663371,0.0321858488023281,-0.0452143885195255,-0.2636855840682983
3.955859619140629,-0.0440193205989897,0.0523421816557645,-0.0143348148226737,0.0381934083998203,-0.043097972869873,-0.2627713084220886
3.9658249511718786,-0.0486342305159196,0.0099662443496286,-0.0414379258036613,0.0458563193678855,-0.0473620630800724,-0.2672385275363922
3.9757890624999987,-0.0502515660520642,-0.0150984926715493,-0.0701402886748313,0.0512295104563236,-0.0537754856050014,-0.2655218541622162
3.9857529296875036,-0.0093352895023301,-0.0234318751223385,-0.0592342792570591,0.049685962498188,-0.0572855547070503,-0.2717150747776031
3.9957177734375087,0.0050579775093123,-0.0224004862479865,0.007083236259222,0.0503632053732872,-0.0527115762233734,-0.2748211324214935
4.005681884765629,-0.0073603727001696,0.0508472669228911,0.0599210924774408,0.0461904592812061,-0.0481002479791641,-0.2804350554943084
4.015646972656253,-0.0319413447923958,0.0740286744154989,0.0569429534494876,0.0341630913317203,-0.0529743656516075,-0.2859770953655243
4.025610595703128,-0.048797969710268,0.0908317790478467,0.0584334842681884,0.0136642549186944,-0.0486181117594242,-0.2998163402080536
4.035574707031252,-0.0445703420778736,0.0973949369557201,0.1146522150963544,0.0171354189515113,-0.0376139283180236,-0.2997050285339355
4.045540039062509,0.0237254877740517,0.1058000694684684,0.0317389540880918,0.0231593027710914,-0.0474738553166389,-0.3022046387195587
4.055504150390629,0.0687196082219481,0.1110296406850218,-0.0879699598759412,0.022817350924015,-0.0585565976798534,-0.3061195015907287
4.065467773437508,0.0838936138151213,0.0800251383513212,-0.0511661236137151,0.024594884365797,-0.0645061209797859,-0.3137437403202057
4.075432861328128,0.0584095188707113,0.084502429895848,0.016719664132595,0.0290809795260429,-0.0560668297111988,-0.3130824863910675
4.085396972656252,0.0475658340994268,0.0855716665625572,0.0269347686767578,0.0397671461105346,-0.0482560843229293,-0.3052585422992706
4.095361816406253,0.119079858812876,0.005741320130974,-0.0863742151170968,0.0526768192648887,-0.0683240741491317,-0.2972301840782165
4.105325683593758,0.1687843123761936,-0.0340796719953417,-0.158404263061285,0.0632316321134567,-0.0885403156280517,-0.2943853735923767
4.115289794921878,0.1664732954874634,-0.0667277037523686,-0.1170405715376138,0.0704767629504203,-0.1015607714653015,-0.2911640107631683
4.125254882812506,0.1326037956440821,-0.1063457206524908,-0.0105108726203441,0.0690621212124824,-0.0923738926649093,-0.2875302135944366
4.135218994140629,0.0859691049149259,-0.118489309041202,0.1087520511418581,0.0675068348646164,-0.0853122547268867,-0.2822640836238861
4.145182861328127,0.0656606590427458,-0.1100375609077513,0.1275894380807876,0.0588500313460826,-0.0815857723355293,-0.2804535627365112
4.155147949218755,0.0565900848912075,-0.0914805983453989,0.1150701482474803,0.0435480363667011,-0.0781646817922592,-0.2729514539241791
4.165112060546878,0.0570128403479233,-0.0584581803180277,0.1245055005908012,0.0367245525121688,-0.0784692391753196,-0.2673835158348083
4.17507690429688,0.0548152572384104,-0.0159833126820623,0.1219791969835758,0.0260785669088363,-0.0746084600687027,-0.2631048858165741
4.185040771484378,0.0539976207125931,0.0108680154949426,0.05919511629045,0.0169885866343975,-0.0802158638834953,-0.2608888745307922
4.195004882812508,0.0497778110604733,0.0559000202678144,0.0567886396706104,0.0118311075493693,-0.0710588544607162,-0.2598440945148468
4.204969726562503,0.0762987747719511,0.0566395865887403,0.0675882661044597,0.005798633210361,-0.0621452890336513,-0.2588593959808349
4.214934082031252,0.075880768555589,0.060305854011327,0.0563005638927221,-0.0065571023151278,-0.0642598420381546,-0.2614788711071014
4.224897949218754,0.080900532946363,0.0441705656379461,0.0558878914386034,-0.0046552848070859,-0.0548444166779518,-0.2639885544776916
4.234862792968752,0.0662485784659162,0.0049421325773,0.0520253707915544,-0.0060409274883568,-0.053969569504261,-0.2623392641544342
4.244826904296879,0.0482398609034717,0.0010752280160784,0.0199526547044515,-1.46338716149e-05,-0.0526886694133281,-0.2555876076221466
4.254791992187503,0.0644942821444943,0.003871580736339,-0.0255260709226131,0.0033955443650484,-0.0521698892116546,-0.2510418593883514
4.264755859375004,0.0659021396484225,-0.0038069910675287,-0.0727004945516586,0.0147785218432545,-0.0596821755170822,-0.2470620274543762
4.274719970703128,0.0724312126236036,0.0003774550102651,-0.0683697718709707,0.0201274827122688,-0.0679598152637481,-0.24201400578022
4.284684814453129,0.0711513654135167,0.0405569051854312,-0.0322276143878698,0.0215717256069183,-0.0681734234094619,-0.237847551703453
4.294648681640627,0.0592523263704031,0.0324865575850009,0.0058399581998586,0.0225661508738994,-0.0670423731207847,-0.2337026000022888
4.304612792968758,0.0678481591496616,-0.0153523213021457,0.0121697457432746,0.0211158730089664,-0.0646791905164718,-0.2343960702419281
4.314577880859378,0.0650790597625076,-0.0238942319370806,0.0027215339183807,0.0177541635930538,-0.0656206160783767,-0.2279709279537201
4.3245419921875055,0.0712926370477303,-0.0227839326076209,0.0113438163131475,0.0196768976747989,-0.0720256194472312,-0.2261368632316589
4.334507080078129,0.0501828116647899,-0.0064165890440344,0.0366109440386295,0.026751585304737,-0.0773969516158104,-0.2247653305530548
4.344470703125005,0.0388106825726106,-0.0220892283417284,0.0639466947317123,0.0311380140483379,-0.0738103464245796,-0.2256596833467483
4.354434814453128,0.0404968090286478,0.0024146599262952,0.0306464826762676,0.0218094922602176,-0.0744865238666534,-0.2300602942705154
4.364401123046878,0.0463808255659416,0.064067544632405,-0.0011205284625291,0.0049758637323975,-0.0699853748083114,-0.2432451844215393
4.37436499023438,0.0139857821892946,0.122994365375489,0.10373159263134,-0.0102148065343499,-0.0476036332547664,-0.2489510178565979
4.3843288574218775,-0.014432977967523,0.1414357387341558,0.149668583419919,-0.015539888292551,-0.0324160382151603,-0.2552533447742462
4.3942939453125085,-0.0113496980646625,0.1078508645184338,0.037516368445754,-0.0076404195278882,-0.035582534968853,-0.2553175389766693
4.404258056640629,0.0095360362388193,0.0642230274550616,-0.1014805988341569,0.0060096243396401,-0.0535828582942485,-0.2553572654724121
4.41422290039063,0.0431638728134334,0.0356657721430063,-0.1790238572418689,0.0152350794523954,-0.0717693194746971,-0.2598324418067932
4.424186767578128,0.0403792105309665,0.0374010715030133,-0.1290390523672104,0.0203465372323989,-0.0800574868917465,-0.2601937055587768
4.434150878906255,0.0302555105973035,0.029613486366719,-0.0337111309438943,0.018895111978054,-0.08293317258358,-0.2650252282619476
4.444115722656253,0.0028366847306489,0.0076107672646641,0.0250409177541732,0.0123309539631009,-0.0743836238980293,-0.2721766233444214
4.454080078124999,-0.0472166918681934,-0.0236176069527864,0.0767202515870332,0.0064990324899554,-0.0676375478506088,-0.2769381999969482
4.464043945312508,-0.0750207907253876,-0.0363620838440954,0.0806932468712329,0.0069681573659181,-0.0680823624134063,-0.2820689678192138
4.474009033203128,-0.0886812864830717,-0.0381023516401648,0.0608639262855052,0.0065124901011586,-0.0725836381316185,-0.2796822190284729
4.483972900390629,-0.0811118376094847,-0.0430611430913209,0.0298445186436176,0.0058785323053598,-0.0769399926066398,-0.2834553122520447
4.493937988281253,-0.089988642754592,-0.0372305372416973,0.0140957453697919,0.0050422996282577,-0.0791706591844558,-0.2852553427219391
4.503901855468758,-0.0863857959570363,0.005876490817964,0.0298041866332292,0.0044437646865844,-0.0788603574037551,-0.2876422107219696
4.513865966796878,-0.0746304762335494,0.0160736213140189,0.0286275440692901,0.0063692294061183,-0.0743178054690361,-0.2881540656089782
4.52383081054688,-0.0668267436800524,-0.0105877372488379,0.0260328514009714,0.0080888336524367,-0.0745324566960334,-0.2922316491603851
4.533794677734377,-0.0592022766835987,-0.0023928864859044,-0.0023690672188997,0.0124923689290881,-0.0761833488941192,-0.2949081063270569
4.543759765625005,-0.055228258486092,-0.0027028292179107,-0.0246972188830375,0.0149842360988259,-0.0806735232472419,-0.2965958416461944
4.5537238769531285,-0.0413687695575878,-0.0234172620750963,-0.0119476274251937,0.0203510373830795,-0.0816501006484031,-0.3018254935741424
4.563687988281252,-0.0553142928017303,-0.0304047828748822,0.0225134451031684,0.027758315205574,-0.0818014740943908,-0.3021889328956604
4.573652832031254,-0.0408810956384986,-0.0346487040549516,-0.0079319620430469,0.0300976336002349,-0.0854779630899429,-0.3052904605865478
4.583616943359377,-0.0396026732005178,-0.0169391521021723,-0.023243512943387,0.0256676785647869,-0.0896914303302764,-0.3102796971797943
4.593580810546879,-0.0263115587444975,0.0209722070105373,0.0274222599327564,0.0192846134305,-0.0845201089978218,-0.3171005845069885
4.603545898437503,-0.0330183994393795,0.0522160710580646,0.0914998875677585,0.0132299587130546,-0.0755523815751075,-0.321587324142456
4.613509765625004,-0.0210543323360383,0.0317028598614037,0.1093289742469787,0.0083470530807971,-0.0679045841097831,-0.3255535960197449
4.623474853515628,-0.0035583500687032,-0.0250751122847199,0.1180915418952703,0.005178996361792,-0.0636303722858429,-0.3231930732727051
4.633438964843755,0.0268473095890134,-0.0796489985153078,0.0647702860742807,0.0079377647489309,-0.0718321129679679,-0.3226412534713745
4.643403076171879,0.0378814754310995,-0.1066202998101711,0.010488660788536,0.0095040500164031,-0.0754791870713234,-0.3209765255451202
4.653367675781251,0.0370556921314448,-0.0993067619264125,-0.002926116579771,0.0123978424817323,-0.0811176300048828,-0.3171634078025818
4.663331787109378,0.0277064106363803,-0.0228679576292634,0.0082809216111898,0.0120746390894055,-0.0783192068338394,-0.3153447806835174
4.673295898437505,0.0430828069338575,0.0230925601653754,0.0143307231694459,0.0059019643813371,-0.0704924389719963,-0.3132866621017456
4.683260986328129,0.0535860077043995,0.0455634813010692,-0.0063899932980537,0.0063395891338586,-0.0627478212118148,-0.3091655969619751
4.693224853515627,0.0774608408212661,-0.0047270285218954,-0.0510030420064926,0.0154832862317562,-0.0694304928183555,-0.3032211661338806
4.703189941406251,0.0912045578829944,-0.0491793337106704,-0.0952349824428558,0.030891615897417,-0.0742661356925964,-0.2954074442386627
4.713154052734378,0.0956892655489966,-0.0268538123950362,-0.158051796361804,0.0439996942877769,-0.0868050977587699,-0.286790519952774
4.723117919921879,0.0916848156806081,-0.021235826382786,-0.1860685150563716,0.0532342605292797,-0.092194952070713,-0.2806107997894287
4.733082763671877,0.0864446865374222,0.0263635446600615,-0.13646248036623,0.0613861978054046,-0.0906037092208862,-0.2734828591346741
4.7430468750000045,0.0915819763606414,0.0531667959116399,-0.087903324380517,0.0670352280139923,-0.0882802009582519,-0.2663072943687439
4.753010986328128,0.1142116682546213,0.0492108978927135,-0.0700467651724815,0.0729613006114959,-0.0804582312703132,-0.2592925429344177
4.762975585937504,0.1465987109879031,0.0255025439165532,-0.0478162286639213,0.0757914707064628,-0.0794735997915268,-0.2550305426120758
4.7729396972656275,0.1462948692031204,-0.027743746972084,-0.0076297642260789,0.0832784175872802,-0.0715373829007148,-0.247293010354042
4.782905029296877,0.1561721931602805,-0.0556473606809973,0.0076946461558341,0.0898684114217758,-0.070763774216175,-0.2432114481925964
4.792869140625005,0.1535498087674379,-0.0757207191556692,-0.0098380879253149,0.0898138135671615,-0.0725624710321426,-0.2349780201911926
4.80283276367188,0.1609342199303209,-0.0989760686673223,-0.0043102644145488,0.0851545110344886,-0.0716191232204437,-0.2306774854660034
4.812797851562504,0.1515628727339208,-0.0955658218324184,0.0389075305432081,0.0802249982953071,-0.0718907639384269,-0.2241021543741226
4.8227619628906275,0.1481289162298664,-0.0922314167127013,0.0687058719575405,0.069518469274044,-0.0665217041969299,-0.2181598097085952
4.832726074218755,0.1244908144783228,-0.0797388687558472,0.04947860891819,0.0584381185472011,-0.0723337903618812,-0.2106800526380539
4.842690673828127,0.1119097845204174,-0.0797181182287633,0.0375683908939361,0.0460653752088546,-0.0779593884944915,-0.2063669264316558
4.852654785156254,0.0886911868225783,-0.0445581036508083,0.0448223075449466,0.0314560756087303,-0.0802001729607582,-0.2070468366146087
4.862619873046878,0.0480664770979434,-0.011432371379435,0.0966430956751108,0.0221058744937181,-0.0767142996191978,-0.20633465051651
4.872583984375002,0.0397697003304958,0.010054068763554,0.1328565648287534,0.0089839473366737,-0.0629753172397613,-0.207342654466629
4.882547851562503,0.0634762094094417,0.0409821448601782,0.1069622451156377,-0.004224160220474,-0.0585382841527462,-0.2057823687791824
4.892512939453127,0.0854336463313549,0.0330772169545292,0.0735702631235122,-0.0032670199871063,-0.0626645907759666,-0.2049831449985504
4.902477050781254,0.0740154496077448,-0.0096858199730515,0.0442757795780897,0.0043387338519096,-0.067178301513195,-0.2012718319892883
4.912440673828129,0.0716980943097733,-0.0379353245101869,0.0076665891051292,0.0101912971585989,-0.066376157104969,-0.1945734322071075
4.922405761718753,0.0768713139628991,-0.0507489211149513,-0.0208329446703195,0.0138325253501534,-0.0659103468060493,-0.192080944776535
4.932369873046877,0.0996705902701243,-0.0407898371584713,-0.0443897613465785,0.0202068015933036,-0.0698275938630104,-0.1855082660913467
4.9423347167968785,0.1149959505001083,-0.0322545023947954,-0.0576204143196344,0.0167580619454383,-0.0741061419248581,-0.1820876151323318
4.952298828124999,0.0931261005301028,-0.0078455989338457,-0.0272995103359222,0.0185237377882003,-0.075163684785366,-0.1823083907365799
4.9622629394531295,0.0659742185039445,0.0056603638492524,0.0571738395959138,0.0176635235548019,-0.07064800709486,-0.1793596744537353
4.972228027343753,0.0538071761744096,0.0251185130350291,0.0829477477997541,0.0119446525350213,-0.0683409124612808,-0.179404154419899
4.982191894531251,0.0318324410578235,0.055572395748645,0.0672884063750505,0.0175750628113746,-0.0673284605145454,-0.1751996278762817
