time,ax,ay,az,gx,gy,gz
0.0,0.0748882047211285,0.2689465586207807,1.0968366212964058,-0.1872004568576812,0.0841810926795005,0.0048500285483896
0.009964111328130798,0.0732643846452701,0.2668630303449928,0.7069786410540342,-0.1907813400030136,0.2329623103141784,0.0337093733251094
0.019929199218751137,0.1027835072594229,0.2676686476394534,0.2413210312008857,-0.192288652062416,0.291278600692749,0.0456586629152298
0.029893310546867724,0.0984816636133473,0.1730262242622673,-0.0042594110101461,-0.1783318221569061,0.2944222092628479,0.0485082454979419
0.03985839843748806,0.042044070436689,-0.0372527490735054,-0.1082639753639698,-0.1628332883119583,0.2621988654136657,0.0441882312297821
0.04982299804686363,-0.0521845982075668,-0.1221843641668558,-0.1837076311439275,-0.1456322073936462,0.2094288766384124,0.0394965410232543
0.05978710937500864,-0.1067750976462382,-0.1470189456939697,-0.1706318764716386,-0.1374861001968383,0.1525835245847702,0.0381666906177997
0.06975244140623715,-0.1115588795903604,-0.1228445816412568,-0.1087538047075271,-0.1386168897151947,0.0922141745686531,0.0463298112154006
0.07971630859374557,-0.05016839498037,-0.1299465226009488,-0.082632690501213,-0.1428129225969314,0.0354820452630519,0.0518240332603454
0.08968115234374352,-0.005796921063264,-0.0585727466084063,-0.0798065271645784,-0.1562320590019226,-0.0110138189047575,0.0746800750494003
0.09964599609374147,0.069181024321774,0.1305975338555872,-0.0567488921821117,-0.1804067194461822,-0.0360425598919391,0.0951294973492622
0.10961010742188648,0.0820380582094658,0.3158877580158412,0.0604138444304466,-0.2015908360481262,0.1074128746986389,0.0778557062149047
0.1195751953124784,0.060855852576904,0.036044834588468,0.5931622922599316,-0.1808277368545532,0.2898666858673095,0.0798614993691444
0.12954028320312716,0.1241361740880645,-0.2568780812948942,0.3997843309730291,-0.1496466547250747,0.3752886652946472,0.1014253795146942
0.13950415039062136,0.1132628613634966,-0.2842714073941111,0.0524386277675628,-0.1229736804962158,0.3811951279640198,0.0894725546240806
0.1494692382812417,0.0123563269570935,-0.0952750221922993,-0.1295610304147005,-0.1002792865037918,0.3537435233592987,0.0827049240469932
0.1594333496093583,-0.0014974446166772,-0.1189139641940593,-0.2226560782194137,-0.0612709634006023,0.3100619316101074,0.0662350803613662
0.16939819335937045,0.0587298185999505,-0.1850926557615399,-0.3398410266637802,-0.0285609532147645,0.2451638877391815,0.0861510038375854
0.179363281250005,-0.01973517602887,0.0694235187076032,-0.5149702145546674,0.0019550784491002,0.114720694720745,0.0144821172580122
0.1893271484374992,-0.0712092878795228,-0.0068625792458653,-0.6529232257395983,0.0243895463645458,0.0214456059038639,0.0069150114431977
0.19929223632811954,0.0795507075062953,-0.1716920530490577,-0.3720651339203119,0.035103403031826,-0.0090948045253753,-0.0062338970601558
0.20925634765625034,-0.0466381065289489,-0.117944826900959,-0.0025403321325778,0.0298457909375429,0.0619298368692398,0.0038206009194254
0.2192211914062483,-0.1083357436922378,0.040804304075241,0.2694248436570167,0.0198830571025609,0.0468944050371646,0.0078375386074185
0.22918627929686863,-0.053227494856622,0.2391888414777815,-0.0292857157170772,-0.0063786408863961,0.038165096193552,0.0256919041275978
0.23915014648436284,0.0245668887679465,0.204487530452758,0.1240770460456609,-0.0322068631649017,0.0500301495194435,0.0174614377319812
0.2491149902343608,0.0263584300935268,0.0798592802651226,0.1321171446382999,-0.0540120303630828,0.1033327803015708,0.0249318704009056
0.2590803222656035,0.0579246396969072,-0.0918710589677095,0.4275701635211706,-0.0624517872929573,0.3600653409957886,0.0768208280205726
0.2690444335937485,0.097133235545922,-0.3552075226217508,1.0939964294344189,-0.0507099069654941,0.7442326545715332,0.1227017641067504
0.2790090332031241,-0.2001524969231337,-0.0379141355916857,0.8039718653410672,-0.0908805504441261,0.5660841464996338,0.1314924657344818
0.2889731445312407,0.0733021137066185,-0.0130180331356823,-0.688757924708724,-0.1299768090248108,0.3079178631305694,0.0692575871944427
0.29893823242188944,-0.0959233665658161,0.2203375721439719,-0.5846721118122339,-0.1269653141498565,0.010717605240643,0.0172039791941642
0.30890332031248136,-0.0945139746919274,0.0918430019170045,-0.6237614286631346,-0.1162492930889129,-0.1117321401834487,0.0023478008806705
0.31886743164059794,-0.0102711821129545,-0.068528615694493,-0.0918967779308557,-0.0907934233546257,-0.1096297651529312,-0.0069329682737588
0.3288322753906243,-0.0542046875920146,-0.1390675482980906,-0.089919340378046,-0.0574756860733032,-0.1132311597466468,0.0154977720230817
0.3387961425781185,0.117698414391838,-0.1517103183805942,-0.2871095534294843,-0.0297548919916152,-0.0973771512508392,0.0229392945766448
0.34876123046873886,0.1806247165672481,-0.0077433076031506,-0.2050689836025238,-0.017235105857253,-0.087186299264431,0.0230040084570646
0.358726074218751,0.1639780446056276,0.0330197876788675,-0.1717728632003068,-0.020482487976551,-0.125940129160881,0.0160199608653783
0.3686899414062452,0.1590632018940523,-0.0200027774564921,-0.097834351286292,-0.0448626615107059,-0.1310930848121643,-0.0013031028211116
0.37865527343748795,0.0554412801822647,-0.0690754359222948,0.2300724919557571,-0.0766472369432449,-0.1022038981318473,-0.0159513540565967
0.38861938476560454,-0.0332455227261409,-0.1046656586110591,0.4264145637452602,-0.1070456206798553,-0.0351241901516914,-0.0480973087251186
0.3985842285156025,-0.1614826475933194,0.1099568968869745,0.5227046081990003,-0.1134140715003013,0.0183958038687706,-0.039389219135046
0.40854931640625125,-0.0935298224927857,0.2051321119666099,0.2863736403703689,-0.0963591858744621,0.023309601470828,-0.0460109040141105
0.41851318359374545,-0.0835432294748723,0.3254724557019769,-0.1054986023038625,-0.0895526483654975,0.0226219296455383,-0.0552604123950004
0.4284780273437434,-0.0290348827611654,0.2999458002574742,-0.2036667155891657,-0.0611886456608772,0.0356434546411037,-0.0605553090572357
0.43844335937500034,0.0055532867455855,0.1597752591535449,-0.2805330976486206,-0.0203189980238676,0.035033144056797,-0.0667981654405593
0.44840722656248033,0.0113133115770295,0.0902072174087166,-0.3826046481132507,0.0109795350581407,0.0215703304857015,-0.058565005660057
0.45836718749998795,0.050474341957271,-0.0050210430324077,-0.3437240055769682,0.0323405973613262,0.0030615292489528,-0.0619123205542564
0.46833105468748215,-0.0054925330016762,-0.0441879551641643,-0.2122971812903881,0.0309453625231981,-0.0286407396197319,-0.062489166855812
0.4782963867187391,-0.0480760121112689,0.0073572308950126,-0.0158680157393217,0.0143772270530462,-0.0389976240694522,-0.0708227530121803
0.48826123046875125,-0.1015221364209428,0.0707956838436424,0.2366927868783473,-0.0309316646307706,-0.0264402870088815,-0.0858922526240348
0.49822534179686784,-0.1398965830007568,0.1080035708621144,0.4626940838724374,-0.0645326003432273,0.0217513367533683,-0.0964113771915435
0.5081904296874882,-0.0955465326100587,0.060823302014172,0.503932103189826,-0.0860855653882026,0.048337671905756,-0.1028820574283599
0.5181542968750108,-0.0176996881458908,-0.0298477335140109,0.2831576009333134,-0.0993115082383155,0.036938052624464,-0.1188199073076248
0.5281191406250088,0.037389161869511,-0.0552918252415955,0.0737917969197034,-0.1016146093606948,0.0166833810508251,-0.1256682276725769
0.5380844726562373,0.0725275126049295,-0.0924658099904656,0.0095464115023612,-0.0923228934407234,0.0010017894674092,-0.1211466267704963
0.5480483398437457,0.0998023999562486,-0.1253498424604535,-0.0541553685575723,-0.0741116628050804,-0.0246124938130378,-0.1085621193051338
0.5580131835937436,0.1440506339402869,-0.1423418937936425,-0.2025058551162481,-0.0642755851149559,-0.0648813992738723,-0.0950015634298324
0.567978271484364,0.1445920473406091,-0.1337184423550963,-0.2510544897079467,-0.0499014370143413,-0.0992726609110832,-0.0765626281499862
0.5779421386718866,0.1853773179218173,-0.1480405438266694,-0.2165934171795845,-0.0498038902878761,-0.1121919453144073,-0.0631978586316108
0.5879072265624785,0.1576138433359563,-0.0845389625139534,-0.014899462968111,-0.0586695522069931,-0.0914027765393257,-0.0474692247807979
0.5978715820312459,0.1318727779557928,-0.0579576834499835,0.1769838758468628,-0.0712988972663879,-0.0597392618656158,-0.0423561334609985
0.6078361816406215,0.1172240748783573,-0.047680619585514,0.2146867067754268,-0.0787964910268783,-0.0336685143411159,-0.0337693020701408
0.6178012695312418,0.0891805412421002,-0.0629832565270364,0.1981499979943037,-0.0708346217870712,-0.0197945032268762,-0.0217543821781873
0.6277653808593584,0.0798028008375316,-0.0964573638446629,0.0724853904962539,-0.0594136491417884,-0.022449942305684,-0.0107302274554967
0.6377302246093706,0.0681141896747052,-0.0792392486706376,-0.0191390002340078,-0.0475519709289073,-0.0273202639073133,0.0021333908662199
0.6476955566405991,0.0560403055213391,-0.0313970087826252,-0.0472667780876159,-0.0466113425791263,-0.0340844243764877,0.0112970620393753
0.6576594238281217,0.0283747748846188,0.0357848684780299,0.0092038816750049,-0.0541286505758762,-0.0316593497991561,0.0173642747104167
0.6676242675781197,-0.0068121824991889,0.069260583230853,0.0928501331329345,-0.05695266649127,-0.021110838279128,0.0189789496362209
0.6775883789062505,-0.018987627330888,0.0575841739624738,0.1262730947852134,-0.0636685863137245,-0.0045008026063442,0.022029485553503
0.6875532226562484,0.0155097220872528,0.0065706105619668,0.1001993268519639,-0.0683749243617057,-0.0080750314518809,0.0172938518226146
0.6975183105468687,0.0418122390087693,-0.0264898013882339,0.0598246463656425,-0.068222552537918,-0.0138150081038475,0.0150043154135346
0.707482177734363,0.049066210458707,-0.0326152985312044,0.0315787950903177,-0.0693080574274063,-0.0214039515703916,0.0133672691881656
0.7174472656249975,0.0559345070593059,0.0084352353900671,0.0007587094128131,-0.0804434791207313,-0.0300390217453241,0.005493183620274
0.7274123535156036,0.0233636869906447,0.0709101040035486,0.0505401006698608,-0.0965279042720794,-0.0170827433466911,-0.006797038950026
0.7373764648437486,-0.026656883317139,0.1326144266359508,0.157447400727868,-0.10267373919487,0.0103143919259309,-0.0091555528342723
0.7473410644531242,-0.0339962680282071,0.1296482703067362,0.1014548798710107,-0.0960057154297828,0.0165464542806148,-0.0169149376451969
0.7573051757812408,-0.0328361930065788,0.0906042539022862,-0.0722983434915542,-0.0842965617775917,0.002024742309004,-0.0245426855981349
0.7672702636718896,-0.0194287038955837,0.0098724285863339,-0.2024105780482292,-0.0657641589641571,-0.0147254755720496,-0.023335475474596
0.7772353515624815,0.006711041945964,-0.0438001248903572,-0.2165443173408508,-0.0481979176402092,-0.0304269045591354,-0.0209790654480457
0.7871994628905981,0.0029705585096962,-0.0789554632931947,-0.2108428908288478,-0.0318921841681003,-0.0412025898694992,-0.0195335038006305
0.7971643066406244,-0.0309418854262679,-0.0814611625038087,-0.1421118844300508,-0.0292046274989843,-0.0434478409588336,-0.0174741838127374
0.8071291503906224,-0.0182265798305161,-0.0028618191719055,-0.0354284562557935,-0.0319191850721836,-0.0353036299347877,-0.0094199851155281
0.817093261718739,0.0038139687975868,0.0655968000262975,-0.0003302548676729,-0.020057737827301,-0.0270272810012102,-0.0104611860588192
0.8270583496093593,0.0448599909405224,-0.0113319797448813,-0.0562397736161947,-0.0104671623557806,-0.0296100154519081,-0.0091280080378055
0.8370222167968677,0.0946820795341394,-0.1255880351305008,-0.1327384914070367,0.0086514204740524,-0.0462743155658245,-0.004236641805619
0.8469873046874881,0.1042869249591603,-0.1565093892253935,-0.1798889496386051,0.0281926319003105,-0.0648253634572029,-0.0002360409125685
0.8569521484375002,0.1004339210591278,-0.1242643853113055,-0.1696779367476701,0.0418904982507228,-0.0800605416297912,0.0008399728685617
0.8669162597656026,0.0780674101459793,-0.1000214860670268,-0.142497668877244,0.044777363538742,-0.0871144533157348,-0.0001302165910601
0.8768813476562372,0.0460967296612448,-0.1093969249166548,-0.0569657498031854,0.0465060733258724,-0.0910030454397201,-0.0005846633575856
0.8868464355468859,0.0554463399498723,-0.0959324631877243,0.0258510650932788,0.041750468313694,-0.0937162712216377,-0.0059674447402358
0.8968103027343659,0.037252639475651,-0.0217510824285447,0.0696072047114372,0.0281660798937082,-0.0854711458086967,-0.0179459284991025
0.9067753906250005,0.014672102219332,0.0021292671136558,0.1531172625690698,0.0059992601163685,-0.0625546500086784,-0.0260248929262161
0.9167395019531313,-0.0001165573180653,0.0063825406439602,0.2398375146448612,-0.0189640205353498,-0.0252364594489336,-0.0327681005001068
0.9267043457031292,0.0049562341678887,0.0020936112783849,0.2121206556797027,-0.027318624779582,0.0032074323389679,-0.033905804157257
0.9366691894531272,0.0497117235543206,-0.007185819850862,0.0254611889928579,-0.0192607399076223,0.0024212880525738,-0.0327257104218006
0.9466330566406214,0.1223400296526029,-0.0003716097913682,-0.237875859183073,-0.0002249963581562,-0.0239277612417936,-0.0327456854283809
0.9565983886718641,0.1750773846384137,-0.0292645267985761,-0.3769382929146289,0.017093064263463,-0.0577788352966308,-0.0286644697189331
0.9665634765624844,0.2075661341805011,-0.0885604731149971,-0.3170926037609577,0.0346004217863082,-0.0700067356228828,-0.0282684564590454
0.9765270996093705,0.192894031961169,-0.1148271332718431,-0.197132929906249,0.042351059615612,-0.0733206123113632,-0.0226652808487415
0.986492187500005,0.1478642922106199,-0.0890253141477704,-0.0385509721904993,0.0511850304901599,-0.0669497996568679,-0.0259087439626455
0.9964562988281216,0.0755649258057586,-0.0397917660318315,0.1186690495222806,0.0555821061134338,-0.0609110444784164,-0.0201643332839012
1.0064211425781195,0.0622157427532598,-0.0043901977829635,0.2089659910410642,0.0551930144429206,-0.0526147671043872,-0.0235966145992279
1.0163864746093623,0.0111956948130391,0.0250150526605546,0.2440022331088781,0.0413979552686214,-0.0359746403992176,-0.0310744941234588
1.026350341796885,-0.0201928018695674,0.0589740208856761,0.2887000374913215,0.0217049438506364,-0.0100990999490022,-0.0377606265246868
1.0363151855468686,-0.0192546259703114,0.0005265080921351,0.2817792983174323,-0.0013039386831223,0.0179352276027202,-0.0425529405474662
1.046280273437489,-0.0197966421588324,-0.1005896413438022,0.2488970194131135,-0.00986014213413,0.0326984599232673,-0.0483724810183048
1.0562443847656198,-0.0412557376371696,-0.1660435257680714,0.1946305916965007,-0.021421005949378,0.03111108019948,-0.0451452247798442
1.0662092285156035,-0.0730174698126502,-0.1092218606106936,0.1735568240076303,-0.0249947011470794,0.0314554274082183,-0.0404673814773559
1.0761733398437485,-0.0755297266282141,-0.0242135270193219,0.1548807651102542,-0.0363395065069198,0.0294005759060382,-0.0353020876646041
1.0861381835937465,-0.0524138221198692,0.0195260998554527,0.1055073701322078,-0.0605058297514915,0.035698153078556,-0.0338671766221523
1.0961032714843668,-0.0762912673189304,0.0520915678955614,0.1361719729870557,-0.0923499315977096,0.0560424290597438,-0.0399624407291412
1.1060673828124834,-0.1218533969131298,0.0810728938385844,0.1998556328684091,-0.1168193221092224,0.0860722362995147,-0.0415331721305847
1.1160322265624814,-0.1564110616837628,0.1107432249590754,0.1838286271750926,-0.1390107274055481,0.1047491580247879,-0.0369689166545867
1.1259973144531301,-0.1520505466530099,0.1548949397660791,0.0266091899842023,-0.1494295448064804,0.1028236895799636,-0.0397460609674453
1.1359614257812467,-0.1559154419202357,0.177440387442708,-0.149150112503767,-0.1602550148963928,0.0762600228190422,-0.0417596325278282
1.1459262695312447,-0.1752828623489476,0.1868003364622592,-0.2385240939587354,-0.1708748936653137,0.045930877327919,-0.0415226109325885
1.155891357421865,-0.1928963517824187,0.1764307720087468,-0.19608663572371,-0.1863006949424743,0.0231574214994907,-0.0395291894674301
1.1658552246093592,-0.2024036368507892,0.1052573408938944,-0.0468447532832622,-0.2062823921442031,0.0102091319859027,-0.0435212664306163
1.1758200683593572,-0.2093982632447965,-0.0117217097148299,0.0627671295583248,-0.2301530987024307,0.0041911867447197,-0.0491133742034435
1.185784179687488,-0.2268968575943261,-0.1038077266074717,0.1796907967180013,-0.2422004491090774,0.0047970558516681,-0.0548402331769466
1.1957495117187449,-0.2029936751658096,-0.1346919635623693,0.198326523604989,-0.2389173358678817,-0.0131427310407161,-0.059171050786972
1.2057143554687428,-0.137494234566763,-0.1236225802764296,0.0126619131743907,-0.212161898612976,-0.0584620088338851,-0.0629577934741973
1.2156782226562513,-0.05044138953574,-0.0915261910527944,-0.314039061409235,-0.1989945769309997,-0.1500436514616012,-0.0752143636345863
1.2256433105468858,0.0554745431310497,-0.0913918971486389,-0.4383510852545499,-0.2027163356542587,-0.2136340737342834,-0.0933036133646965
1.2356081542968838,0.0816095031996257,0.0370965355984866,-0.1900017628520727,-0.2263521701097488,-0.2093380838632583,-0.1290712356567382
1.2455722656250003,0.0667980107759125,0.1484662218928337,0.2623538823574781,-0.2548093795776367,-0.1346838176250457,-0.1645988672971725
1.2555373535156207,0.0484693040114827,0.2945905568346381,0.5652238994985819,-0.2816534340381622,-0.0446081757545471,-0.1946819424629211
1.265501220703129,0.0727590928710997,0.3173012780755758,0.5364046322494745,-0.2727131843566894,0.021777506917715,-0.2212296575307846
1.2754663085937494,0.1150518819384276,0.2536211253255606,0.2515530868798494,-0.2416393309831619,0.0471164211630821,-0.2465724796056747
1.2854311523437474,0.1754519901044666,0.1638233655005693,-0.0935574046194553,-0.1983491033315658,0.0351335257291793,-0.2554461359977722
1.295395263671864,0.2518493846789933,0.0483588111080229,-0.3543675646662712,-0.133840724825859,0.0079304696992039,-0.2547678351402282
1.3053603515624843,0.2906173058221116,-0.0078021981835365,-0.5154121131032705,-0.0694851875305175,-0.0239406432956457,-0.2534183859825134
1.3153251953124823,0.307631678584963,-0.0404560751594603,-0.5573229171156883,-0.0115561438724398,-0.0526276156306266,-0.2447196990251541
1.3252893066405989,0.3010533413742668,-0.0362862421289086,-0.4351157565951347,0.0330153182148933,-0.0552028939127922,-0.2379560768604278
1.3352543945312476,0.2675705392935313,-0.0460885280884802,-0.2183925755560398,0.0659755393862724,-0.0324496813118457,-0.226298987865448
1.3452182617187418,0.2575154110840522,-0.0805440476588904,-0.0585462969928979,0.097865030169487,-0.006365081295371,-0.2009784579277038
1.3551831054687398,0.2498511418001726,-0.0858801479898393,-0.0179161804407835,0.1176737770438194,0.014660277403891,-0.1737890839576721
1.36514819335936,0.2641380988931283,-0.096110157842189,-0.0454138436973094,0.1245314255356788,0.0171980038285255,-0.1453217566013336
1.375112304687491,0.2449273120645433,-0.1007803416103124,-0.0132107792288064,0.1137072518467903,0.0295770987868309,-0.1130853965878486
1.3850773925781255,0.2025856058215722,-0.1125236786350607,0.1061854155242443,0.1022790968418121,0.0550571605563163,-0.0755058005452156
1.3950422363281234,0.1799240026856772,-0.1649352722652256,0.1623725821703672,0.0916418507695198,0.0674172639846801,-0.0347209684550762
1.4050061035156034,0.1590827651110477,-0.2349006427645683,0.1012123032867908,0.0821703150868415,0.0651628971099853,0.0065889209508895
1.414971191406238,0.1041060884995385,-0.282929783526808,0.0321089564442634,0.0726485922932624,0.0501436665654182,0.0450783111155033
1.4249362792968867,0.0313243088725954,-0.2802057653903961,0.0347778833925724,0.068213365972042,0.0397714562714099,0.08506940305233
1.434900390624989,-0.0122644565557129,-0.3008659838423133,0.0640086540520191,0.0659509226679802,0.0321110039949417,0.1177522838115692
1.4448654785156236,-0.064378784272354,-0.2837422689534724,0.1432423497647047,0.0615111738443374,0.0344756245613098,0.1459144055843353
1.4548293457031178,-0.104921733997669,-0.1855693333625793,0.1839747576475143,0.0561124794185161,0.0255004707723855,0.1632279157638549
1.4647944335937382,-0.1666779329477809,-0.0681774641692638,0.1691308242589235,0.0471805073320865,0.0222143959254026,0.1699854135513305
1.4747595214843585,-0.2124997363914735,-0.0131869599618017,0.1496019479244947,0.0431551374495029,0.0120999766513705,0.1719966381788253
1.484723388671867,-0.2379945536592975,0.039406566106528,0.1104185230493545,0.0379081778228282,0.0072253262624144,0.164793312549591
1.4946884765624873,-0.2775121241259388,0.100067663296312,0.1081704518616199,0.0249985046684741,-0.0008531066123396,0.1546184420585632
1.5046533203124994,-0.2943921664520166,0.1215738310530781,0.165261873871088,0.0087505597621202,-0.0010576373897492,0.1370085626840591
1.5146171875000078,-0.299138612060435,0.1373098909758031,0.2057446909070014,-0.0014937366358935,0.0017969066975638,0.1209263280034065
1.5245825195312506,-0.2822119906462729,0.1445294669657945,0.1983271081268787,-0.007817412726581,0.0052728643640875,0.0956484004855156
1.5345466308593672,-0.2833562287779524,0.1454329916767776,0.1267956573545932,-0.0134824085980653,0.0058141215704381,0.0671950578689575
1.5445112304687427,-0.2691369118274189,0.1493527954690158,0.0458148257136344,-0.0258852820843458,-0.0062454706057906,0.0351034291088581
1.554476318359363,-0.2290423086578026,0.2054579829201102,-0.0093979429423809,-0.034659344702959,-0.0112664625048637,-0.0027662934735417
1.5644404296874797,-0.20264966576742,0.2709837635368108,-0.0024164134919643,-0.0395185463130474,-0.0201691444963216,-0.0379977822303772
1.5744055175781284,-0.1823661716734059,0.3482645716160535,0.0843693050354719,-0.0428083650767803,-0.0172209218144416,-0.0728169530630111
1.5843706054687487,-0.1676836028589867,0.414718426863104,0.1520750600397586,-0.0535845831036567,0.0013202707050368,-0.1108474284410476
1.594334472656243,-0.1395894898129627,0.331124343983829,0.1779664571434259,-0.061948612332344,0.0181054323911666,-0.1494399309158325
1.604299316406241,-0.1250801038746722,0.1927022539824247,0.1638198583692312,-0.0678850635886192,0.0279274377971887,-0.1747751235961914
1.6142634277343575,-0.0910968597248196,0.0890080707520246,0.0770312172323465,-0.0721710100769996,0.022222289815545,-0.2016276866197586
1.6242282714843697,-0.0719149884634651,0.0041392917618155,-0.0112006084501743,-0.0728852674365043,0.0079091312363743,-0.2201398462057113
1.6341936035155982,-0.0711867472541518,-0.0651335664287209,-0.0466506920158863,-0.0634251907467842,-0.0072799418121576,-0.2292856723070144
1.6441574707031208,-0.0657825135904364,-0.0894281958602368,-0.0803776050508022,-0.0604336559772491,-0.0251550786197185,-0.2336039990186691
1.6541223144531187,-0.0718856527711264,-0.0643364247016608,-0.01930266636312,-0.0649385303258895,-0.0290128700435161,-0.2338543683290481
1.664087402343739,-0.0589035677316598,-0.0526259670332074,0.0833212572872638,-0.0766452550888061,-0.0066383210942149,-0.2328559607267379
1.674051513671884,-0.022855700935889,-0.0188363640256226,0.0744487995237112,-0.0711511597037315,0.000610803021118,-0.2245064079761505
1.6840163574218678,0.0653005387597717,0.0124900637388229,-0.0686047496706247,-0.0637758001685142,-0.0155639061704278,-0.2194525301456451
1.693980224609362,0.1333098432878963,0.043472208110243,-0.1768424215495586,-0.0569118075072765,-0.0306770484894514,-0.2173684239387512
1.7039455566406048,0.165015114302095,-0.0082815061330795,-0.1718716473996639,-0.045744638890028,-0.0396806634962558,-0.2168501764535904
1.7139104003906027,0.162044647123944,-0.1135872162133455,-0.0846539671957492,-0.0281116981059312,-0.0331837460398674,-0.2162594050168991
1.7238745117187477,0.1375542759246192,-0.1943215257473289,-0.0318365692436695,-0.0064359628595411,-0.0302864927798509,-0.2115844935178756
1.7338393554687457,0.123855950640887,-0.1917114893794059,-0.0558633415192365,0.0111850220710039,-0.0364326871931552,-0.2087830156087875
1.7438032226562399,0.0886204231413081,-0.129902245067805,-0.0984539444893598,0.0190416127443313,-0.0375767797231674,-0.2050646990537643
1.7537683105468886,0.0385801982849836,-0.0650596244096756,-0.064094578769803,0.027175735682249,-0.0307888630777597,-0.2094831615686416
1.7637333984374806,0.0103516269380226,-0.0160315357379615,-0.0094558106094598,0.0262777172029018,-0.0230137649923563,-0.2115436494350433
1.7736975097656256,-0.0153008651095442,0.0273252292990684,0.0047346273064613,0.0305805634707212,-0.0147876003757119,-0.2114742994308471
1.7836623535156235,-0.0260004287024028,0.1316401747763156,-0.0243599497526884,0.0324375852942466,-0.0138680106028914,-0.2141917794942855
1.7936271972656215,-0.0248546562007628,0.1954877930477261,-0.0450508556038141,0.0272249951958656,-0.0181126184761524,-0.216936394572258
1.803591308593738,-0.0135089767240919,0.1139624792665243,0.0043757308661937,0.0207559093832969,-0.0173589438199996,-0.2170011103153228
1.8135566406250092,-0.0225708743788301,0.0128023445583879,0.0505640660673379,0.0148611832410097,-0.0134871415793895,-0.2170808166265487
1.8235205078124892,-0.0381473232930526,-0.0345297538504004,0.0412999786376953,0.0123466271907091,-0.0153862424194812,-0.2180917412042617
1.8334853515624872,-0.0358829402913339,-0.0601692220196127,0.0104056586802005,0.0043638539500534,-0.0293799825012683,-0.2172774225473404
1.8434504394531217,-0.0129354694187641,-0.0836709475077688,0.0342933147460222,-0.0075687058269977,-0.0335829854011535,-0.2204838693141937
1.8534145507812383,-0.0251925281193107,-0.0789636465996503,0.1150344924122095,-0.0183128863573074,-0.026921359822154,-0.220605194568634
1.8633793945312505,-0.0308419869820587,-0.074573156555742,0.1610439639151096,-0.0291394367814064,-0.0174839161336421,-0.224881961941719
1.873344726562479,-0.0341251003059558,-0.0441012997940182,0.1657937887907028,-0.050413642078638,-0.0121543919667601,-0.2332278937101364
1.883308349609365,-0.0677269621890969,0.0243196177423,0.1502770707070827,-0.0696243494749069,-0.0093844383955001,-0.2390354573726654
1.8932734374999995,-0.0414510775461792,0.0426424792878329,0.1631464891523122,-0.0896186530590057,0.0010499584022909,-0.2472611218690872
1.9032375488281303,-0.0282301422495394,0.0042823534943163,0.1542109030246734,-0.1058223843574523,0.0079747103154659,-0.2528497576713562
1.9132023925781283,-0.0426306244532577,-0.0208807293348014,0.1677355705082416,-0.1254597753286361,0.02363140322268,-0.2629895210266113
1.9231672363281263,-0.0586678775459527,-0.0227639127328991,0.1540934141248464,-0.126685619354248,0.0399882718920707,-0.2652969062328338
1.9331313476562428,-0.0280415243422612,-0.0566888325579464,0.0313122531086206,-0.1198662146925926,0.0342085771262645,-0.263985276222229
1.9430964355468632,-0.0144987184138037,-0.096197836125642,-0.1204687924206256,-0.1061762347817421,0.0144282160326838,-0.264500617980957
1.9530615234374835,-0.0013829057257622,-0.1173809094078838,-0.2069803701817989,-0.0861067548394203,-0.0093082729727029,-0.2576329112052917
1.9630256347656,-0.0070626318626105,-0.098230803257972,-0.2178466321110725,-0.0643093138933181,-0.0244675166904926,-0.2527742385864258
1.972990234375004,5.04515456035e-05,-0.0405978217177093,-0.2124514950692653,-0.0443601496517658,-0.0369267836213111,-0.252238392829895
1.9829543457031207,0.0180187640324234,0.0523299066960811,-0.1787631604790687,-0.0162150636315345,-0.045725867152214,-0.252425342798233
1.992919433593741,0.0248751509995199,0.1647930873155594,-0.1858434741288423,-0.0019175796769559,-0.0527861155569553,-0.2559243142604828
2.0028845214843614,0.0440805310006253,0.207536323564127,-0.1399392165660858,0.0064668501727283,-0.054836481809616,-0.2653811872005462
2.012848388671884,0.0436085478410124,0.1647700717661529,-0.0037134675651788,0.0091393329203128,-0.0366638712584972,-0.2732284665107727
2.0228132324218677,0.0178391696818172,0.1150925062097609,0.1029676225215196,0.0075928349979221,-0.01839698292315,-0.2806360423564911
2.032778320312488,0.0056921472270041,0.0192318661492317,0.1211865853011608,0.0053346888162195,-0.0049833990633487,-0.2864847183227539
2.0427424316406047,0.0191781266679987,-0.0725881202183663,0.0671399378150701,0.0039258762262761,-0.0034384990576654,-0.2921700179576874
2.0527072753906026,0.0175516945099458,-0.0877449189484119,0.0034913492470979,0.0087602753192186,-0.0064280675724148,-0.2895866334438324
2.0626713867187476,0.0265366727372631,-0.0474914536889642,-0.0693190354198217,0.0129196010529994,-0.0097732646390795,-0.2863793969154358
2.072636474609368,0.0496176885953173,-0.0122328741073608,-0.150032156035304,0.0088353734463453,-0.0273283198475837,-0.2881736755371094
2.082601318359366,0.0451834690075367,0.0297088364999741,-0.1351993285626173,0.0060869907028973,-0.0320210754871368,-0.2938968241214752
2.0925654296874825,0.0036343379143625,0.0831798029899597,-0.0504652818679809,0.0046994010917842,-0.0216287579387426,-0.2976845800876617
2.1025305175781313,-0.0187608145713806,0.0494228601429611,0.0053752632975578,-0.0051859868690371,-0.0033903652802109,-0.2985418438911438
2.112495361328129,-0.022611389052309,0.0017168869204819,-0.0307750774919986,-0.0057694595307111,0.0031237967777997,-0.2906041741371155
2.122459472656246,0.0342143677582964,0.0378619670130312,-0.1217196692645549,0.0042064753361046,-0.015928192064166,-0.2846525311470032
2.132424560546866,0.0597444938015192,0.0803354464095085,-0.1723082852512598,0.0131966359913349,-0.0323828756809234,-0.2823581099510193
2.1423884277343603,0.0520532086465507,0.0097001407593488,-0.1174964986115694,0.0265569165349006,-0.0334486737847328,-0.274904191493988
2.1523532714843583,0.0724830889413133,-0.0662247957315295,-0.0537590627163648,0.0419441685080528,-0.0202824939042329,-0.2716487348079681
2.162318359375007,0.1081628165444359,-0.1109100328933447,-0.0859977830201387,0.0556165724992752,-0.0260274652391672,-0.264257937669754
2.1722822265625013,0.1417837119216099,-0.141632284219563,-0.1351426299393177,0.0708108842372894,-0.0358823239803314,-0.2600569427013397
2.182247558593744,0.1381467436587438,-0.1741780246458947,-0.0885059664487838,0.0849687829613685,-0.0382157862186431,-0.2548643052577972
2.192212402343742,0.106476434360072,-0.1543418359279632,-0.0170686237007379,0.0985587164759635,-0.0414308905601501,-0.249864786863327
2.2021762695312503,0.0873546775218099,-0.0829785082641988,0.0059340662240982,0.1054547056555748,-0.0513293296098709,-0.2510714828968048
2.212141357421885,0.0628573651250451,-0.0127598205909132,0.0567027149528265,0.1058714538812637,-0.0461450144648551,-0.2535347938537597
2.2221054687499873,0.0401643622038885,0.0429154510103166,0.1339209791898727,0.1071641519665718,-0.0366385951638221,-0.2609341144561767
2.2320703124999994,0.0350836614061146,0.148847914686799,0.1312140583187341,0.1057719811797142,-0.0312080774456262,-0.2662375867366791
2.242035644531242,0.0513289129599928,0.2015904938369989,0.0453349332422018,0.1017980128526687,-0.0411350093781948,-0.271733820438385
2.251999267578128,0.0659529930528253,0.1631290996260941,-0.0238391407489776,0.0953184440732002,-0.0510148406028747,-0.2825147211551666
2.2619643554687485,0.0488031938746571,0.1368431502468884,0.0023924480944871,0.0888485610485076,-0.0513506680727005,-0.296796441078186
2.271929443359369,0.0211020074026659,0.1380119017653167,0.0399064784526824,0.0833997875452041,-0.0522592328488826,-0.3041937351226806
2.281893310546863,0.0060833385016769,0.0903628463618457,0.0415998383671045,0.0751514434814453,-0.0509244576096534,-0.3116529881954193
2.2918583984374834,-0.0071083707004785,0.0342420229502022,0.058919221958518,0.0721434876322746,-0.051745057106018,-0.3147889077663421
2.3018225097656,-0.0106784477395936,-0.0033591011695563,0.0430862775325775,0.0652070194482803,-0.0534886270761489,-0.3151484429836273
2.311787353515598,-0.0056159401856362,-0.0118830377563834,0.0108615857541561,0.0644381791353225,-0.0657393559813499,-0.3150101006031036
2.3217524414062467,0.000960698258318,0.000911854147911,-0.0037935470640659,0.0581390038132667,-0.0747328549623489,-0.3106305301189422
2.3317165527343633,0.0182360235122963,0.0344236631274223,0.0027858313262462,0.0494395792484283,-0.0805781260132789,-0.3115672171115875
2.341681152343739,0.0335922355382703,0.1177438975013792,0.0607926146149635,0.0403472818434238,-0.07463900744915,-0.3074435889720917
2.35164648437501,0.0553894403971731,0.1365291158616542,0.0657242257982492,0.0389771535992622,-0.071931667625904,-0.3043569922447204
2.3616105957031266,0.0757544204958714,0.104770288029313,0.0479430699139833,0.033709954470396,-0.0708528235554695,-0.3015038967132568
2.3715754394531245,0.0878544437374919,0.0730836486503481,0.0293219560742378,0.033071931451559,-0.0720507502555847,-0.2923551499843597
2.381539550781241,0.0922097711364738,-0.004805938977003,-0.0111842418372631,0.0376645512878894,-0.0791605859994888,-0.2848839163780212
2.391504394531239,0.0770454466870985,-0.07391469264701,-0.0142757781118154,0.0381826795637607,-0.0813377946615219,-0.2797096073627472
2.4014692382812513,0.0363804780173115,-0.0649129094153642,0.0462871194005012,0.0457860045135021,-0.0749555230140686,-0.2755747735500335
2.411433349609368,-0.0014540529995225,0.0175879713997244,0.0847422300010919,0.0516855530440807,-0.0671573281288147,-0.2644122838973999
2.421398437499988,0.0185282296582125,0.0764133775949478,0.0454717113643884,0.0522525385022163,-0.0679341703653335,-0.2578071057796478
2.4313635253906227,0.0517225701863877,0.1127536879986524,0.006301730492711,0.0568638257682323,-0.0743941664695739,-0.2456934005022049
2.441327392578131,0.0935100948790088,0.0988628175511956,-0.0025298107385635,0.0624607317149639,-0.0773771703243255,-0.2427074760198593
2.451292236328129,0.1220521526219323,0.0369033511139452,-0.0259784908652305,0.0715134739875793,-0.0888833254575729,-0.2362697124481201
2.4612590332031203,0.1411336505150422,-0.0303397548146545,-0.0459960274994373,0.0723718106746673,-0.0989612564444542,-0.2347485125064849
2.4712241210937407,0.1157179446317255,-0.0387701678991317,0.0018067571610212,0.0641420930624008,-0.103295974433422,-0.228188931941986
2.481189208984361,0.1035805485217832,-0.0412264750100672,0.0601712678462266,0.0552351512014865,-0.0901354327797889,-0.2298629879951477
2.4911530761718836,0.0925721381754614,-0.0342272637724876,0.0915688611507415,0.0452070347964763,-0.0847241133451461,-0.2309303432703018
2.5011184082031264,0.0945366614477708,-0.0203612355053424,0.0861374837517738,0.0328337214887142,-0.0815173983573913,-0.2322579324245453
2.5110830078124877,0.1079296653756871,0.0118736854061484,0.0904465791225433,0.0192478280514478,-0.0756199210882186,-0.2362664937973022
2.5210471191406043,0.1123497468402609,0.0566560993321239,0.1135293485462665,0.0014416682533919,-0.0684067457914352,-0.2382113933563232
2.531012207031239,0.110484537490271,0.0961501975916326,0.1237678339660167,-0.0081076165661215,-0.0543738529086113,-0.2378071993589401
2.5409763183593697,0.1552835920237936,0.1010840007320046,0.1017436336845159,-0.0144251678138971,-0.0470019541680812,-0.2363643050193786
2.5509409179687452,0.2119417371825314,0.0714326665729284,0.0258458043962717,-0.0073259049095213,-0.0467934347689151,-0.2313925772905349
2.560906249999988,0.2469527352112345,0.0261132231608033,-0.0488496633648872,0.0055880290456116,-0.0574077293276786,-0.2200256735086441
2.570870117187482,0.2752084137608297,-0.0082397128179669,-0.1042144077122211,0.0182962790131568,-0.07132089138031,-0.2090889513492584
2.580835205078131,0.2782505031367763,-0.0418888844415545,-0.1131552545368671,0.0241104904562234,-0.0871898680925369,-0.1968541145324707
2.5908002929687513,0.2681362286185845,-0.0797976132057607,-0.0634714784353971,0.0240207053720951,-0.0836673602461814,-0.188588872551918
2.600763916015623,0.234184530384466,-0.1133196513183414,0.0493774866312742,0.0180975683033466,-0.07129617780447,-0.1809562593698501
2.6107290039062434,0.1838862391138449,-0.0960296399518847,0.1449544143795967,0.004809942562133,-0.0549825206398963,-0.1742560863494873
2.62069311523436,0.1707121021009981,-0.0490839105121791,0.1516419293195009,-0.0077998591586947,-0.0502788461744785,-0.1615671962499618
2.6306582031250088,0.1972419067060574,-0.0046444648049771,0.1248152971923351,-0.0149772688746452,-0.0408985577523708,-0.1534494906663894
2.6406232910156007,0.1999064132075756,-0.0112217973686754,0.0895376475840806,-0.019512366503477,-0.04004368185997,-0.143113762140274
2.6505871582031233,0.2091770582421682,-0.0284083483606576,0.0381423913896083,-0.0263524372130632,-0.0460061021149158,-0.1383582651615142
2.6605520019531212,0.2059512463297694,-0.044851533639431,0.0166010061889886,-0.0238884817808866,-0.0471975989639759,-0.1289256066083908
2.6705170898437416,0.1670998116216622,-0.088406889988482,0.0226999075859785,-0.0238486863672733,-0.0399961248040199,-0.1146437004208564
2.6804812011718866,0.179333379848767,-0.0963211702443659,0.0187789347499609,-0.0283153411000967,-0.0364088453352451,-0.1027263179421424
2.6904462890624785,0.1973689671518281,-0.065710635664314,-0.0124655138194561,-0.0308985635638237,-0.0419108644127845,-0.0927356481552124
2.700410156250001,0.1908448808790184,-0.0600583089910447,0.0323047712773084,-0.0277680177241563,-0.0396375879645347,-0.0852034240961074
2.7103752441406215,0.1579988423318602,-0.0579759497590363,0.0473825134217739,-0.0207715388387441,-0.0416273698210716,-0.0748834460973739
2.7203400878906194,0.133043575300835,-0.0661459583416581,0.0323491949409246,-0.0235465541481971,-0.0371314212679863,-0.0671581476926803
2.7303041992187502,0.1188475844269618,-0.0517070986226201,0.0566565377235412,-0.0246741808950901,-0.0273437052965164,-0.0590581260621547
2.740268798828126,0.1325946442232467,-0.0466137210063636,0.0475894341707229,-0.0236414074897766,-0.0218634512275457,-0.0535365976393222
2.7502331542968648,0.1265000171425752,-0.0640931174650788,0.0382125340163707,-0.0244336202740669,-0.0181535631418228,-0.0488831251859664
2.7601982421874993,0.1104883186162449,-0.09037336775586,-0.0024807108998298,-0.0179690644145011,-0.0227682888507843,-0.0384147725999355
2.770163085937483,0.1064186762908473,-0.0893785114996135,-0.0499590859115123,-0.0134558603167533,-0.0332687012851238,-0.0271990559995174
2.7801271972655996,0.0826583546654321,-0.0901806216627359,-0.0367553209453821,-0.0059430822730064,-0.0367547795176506,-0.0215062834322452
2.790092041015626,0.0609701814052648,-0.0765023710526525,-0.0100350718021392,0.0033253640867769,-0.0326459966599941,-0.0126704424619674
2.8000571289062464,0.0859598621625453,-0.0065307169429957,-0.0155529584407806,0.0033173742704093,-0.0394993759691715,-0.0053486130200326
2.810021240234363,0.1334807246090844,0.0463426489800214,-0.0110129769235849,-0.003284084610641,-0.0387257486581802,-0.0068837627768516
2.8199863281249975,0.152731779515976,0.0890846431195735,0.0575344896018505,-0.0130887785926461,-0.0299943089485168,-0.0079378420487046
2.8299499511718835,0.1519889800583478,0.1174592353411018,0.1275315704137087,-0.0239243824034929,-0.0138305183500051,-0.0083863176405429
2.8399150390624897,0.13975334773832,0.1190662321463227,0.1173398467451334,-0.0394117273390293,-0.0050484789535403,-0.0071053374558687
2.849880126953124,0.1469081148637924,0.0953679611727595,0.0999748704463243,-0.0471093244850635,-0.0015624435618519,-0.0006885454058647
2.859843994140604,0.1816996523223817,0.0212586227364838,0.091679920309782,-0.0548617877066135,0.0073221279308199,0.0085089476779103
2.8698093261718896,0.2001308878795243,-0.0616935089774429,0.0720493371665477,-0.0595534555613994,0.0075552305206656,0.0219676382839679
2.8797741699218875,0.1970193499965593,-0.1075542196594178,0.0528863715350627,-0.0556921400129795,0.0120394602417945,0.0366230122745037
2.8897380371093675,0.2118221841897815,-0.1223474457740783,0.0279641117244958,-0.047574009746313,0.0095410495996475,0.0533052571117877
2.899703124999988,0.2170747892220504,-0.0851832517668604,-0.0233598327994346,-0.0445233583450317,0.0076898857951164,0.0659294426441192
2.9096672363281186,0.2198728224427439,-0.0092810385644435,-0.0423100324630737,-0.0366687849164009,0.0109348483383655,0.0762721002101898
2.919632080078131,0.2366165433043613,0.0659974897816777,-0.059564534124732,-0.0294955614954233,0.0143937617540359,0.0928694531321525
2.9295974121093593,0.2653329347008839,0.0745304864577949,-0.0341103593945503,-0.0223798174411058,0.0237597655504941,0.0990924462676048
2.9395612792968677,0.2787191800944507,0.0055693245649337,-0.011036942321062,-0.01120918802917,0.0301122032105922,0.116896741092205
2.9495261230468657,0.3094778909735381,-0.0449411116190254,-0.0506359622597694,0.0001788497902452,0.0279739536345005,0.1304768025875091
2.9594912109375002,0.3165799049984663,-0.06523308128044,-0.0914069485872983,0.0034348308108747,0.0140900947153568,0.1454155296087265
2.9694553222656026,0.326810937764123,-0.0719670657105743,-0.0500707295924425,0.0071635819040238,0.0161333326250314,0.1593820452690124
2.9794199218750066,0.3214296465845778,-0.0791480632558465,0.0423959571808576,0.0120278466492891,0.0265191290527582,0.1673595458269119
2.9893842773437456,0.2804359756833873,-0.0612403583824634,0.0912888751655816,0.0102247726172208,0.035246405750513,0.1795584112405777
2.9993491210937435,0.2577278665246442,-0.0338768428996205,0.0871989755034446,0.0116253290325403,0.0391370207071304,0.1869745254516601
3.009314208984364,0.2370592821031808,0.0266859084822237,0.0524082326292991,0.0139351319521665,0.0485232658684253,0.1960958242416381
3.0192780761718865,0.2196254600855521,0.0775336137965321,-0.0042529812693595,0.0136203449219465,0.0446752645075321,0.2039244472980499
3.0292429199218844,0.2040745109387673,0.0931353798151016,-0.015876783567667,0.0126255974173545,0.0462616458535194,0.2109204828739166
3.039208251953127,0.1867578490274027,0.0820024297736585,-0.006096563309431,0.0125502292066812,0.0501125752925872,0.217207133769989
3.0491723632812437,0.1827172683997079,0.052971711730957,-0.0130827689349651,0.0147106293588876,0.0461531914770603,0.2249257564544677
3.0591372070312417,0.1776059898005798,0.0311084010995924,0.0029606033712625,0.0147268734872341,0.0481851808726787,0.2277369946241378
3.0691022949218905,0.1482428614657372,0.0431244175858795,0.0150771576225757,0.0215535517781972,0.0556772165000438,0.2367648184299469
3.0790661621093705,0.136045223068539,0.0347565483435988,-0.022861235627532,0.0263011679053306,0.0488187782466411,0.2412810027599334
3.0890310058593684,0.1204851407672278,0.0345877676479518,-0.0454956767618656,0.0364490188658237,0.0439092181622982,0.242520198225975
3.098995117187499,0.1151744306058622,0.0307030351690948,-0.0486076713025569,0.0353842861950397,0.0413651019334793,0.2484145760536193
3.108960449218742,0.108543066299986,-0.0031530572034418,0.0021305822879076,0.0399750731885433,0.0471132583916187,0.2538690567016601
3.1189250488281175,0.0954839705015532,-0.038285745383054,0.0448936192154884,0.0410832129418849,0.0568180829286575,0.261233776807785
3.1288891601562483,0.0680009568248875,-0.0701611853323876,0.0559895982474088,0.0329817272722721,0.062342207878828,0.2713331282138824
3.1388540039062462,0.0617408369841985,-0.0793295573025941,0.0514642297774553,0.0240241847932338,0.0552680529654026,0.2781170010566711
3.1488190917968666,0.0587277362407185,-0.0331333310559391,0.057139937326312,0.0127149727195501,0.0535603612661361,0.2889867126941681
3.1587832031249974,0.0636375374509952,0.0601044862203299,0.0882002615004777,0.0053942096419632,0.0576733499765396,0.2945007681846618
3.1687480468750095,0.0682703848834149,0.136523124512285,0.0443891768246889,-0.0028051924891769,0.045294914394617,0.2946213185787201
3.178712158203126,0.0788971937673166,0.1207769815869629,-0.0054173488736152,-0.0150472111999988,0.0388521961867809,0.2922655045986175
3.1886772460937465,0.0543312365811318,0.0885480520248413,0.0643745647549629,-0.0277804918587207,0.0477265454828739,0.2860446870326996
3.1986420898437444,0.0158314465885981,0.0691644293799996,0.1444891349554062,-0.0406859032809734,0.0616247840225696,0.2881461679935455
3.2086059570312386,-0.0005838460362516,0.0537182923145592,0.1693055963039398,-0.0632455497980117,0.0759253948926925,0.2878153026103973
3.2185710449218874,-0.0013812252253293,0.0256046891167759,0.1829652883440256,-0.0777541846036911,0.084757775068283,0.2867652177810669
3.2285361328124793,0.0099361049396917,-0.0180453597784042,0.1664911234050989,-0.0770837888121604,0.0941653847694397,0.2871184945106506
3.2385002441406243,0.0229850629366002,-0.0030452129147946,0.0513777205377817,-0.0809906423091888,0.0863865539431572,0.2898985743522644
3.2484653320312447,0.0576830860259942,-0.0256537889555096,-0.0595534282088279,-0.0755360722541809,0.080485500395298,0.2913985550403595
3.2584289550781307,0.089103165156953,-0.0454565137952566,-0.0996656583666801,-0.0619922913610935,0.0761754438281059,0.2947751581668854
3.268394042968751,0.1054834595336578,0.0088081603556871,-0.1075882680594921,-0.0539174079895019,0.0659506320953369,0.2941645383834839
3.278359130859357,0.1004902726225554,0.0750571406804025,-0.091055066409707,-0.0454714596271514,0.0573555454611778,0.2980998754501343
3.288323242187488,0.1171358851382508,0.0821415459834039,-0.0262590613722801,-0.0426369160413742,0.0635015144944191,0.3012808263301849
3.2982883300781225,0.1518779665650799,0.0764972564861178,-0.0152361475765705,-0.0419849716126918,0.0705210790038108,0.2996954321861267
3.308252929687484,0.1670944047941826,0.053351212567836,-0.0146352590739727,-0.0291029829531908,0.0759634152054786,0.3034829199314117
3.3182170410156004,0.1732224409541115,-0.000809270556271,-0.0432686483621597,-0.0129477158188819,0.0774071142077446,0.3081253468990326
3.328182128906249,0.178372316264268,-0.0436614470720291,-0.11307517503798,0.0026280167512595,0.0620422884821891,0.3138145804405212
3.338146240234366,0.170922785709612,-0.0545465598322451,-0.1498041924983263,0.013111550360918,0.0509198643267154,0.3190029561519623
3.3481113281250003,0.1596542996549979,-0.0162232589177787,-0.125555886426568,0.0157941058278083,0.0453300327062606,0.3225624561309814
3.3580761718749983,0.1444572237134911,0.016272943278402,-0.0471411058813333,0.0135666392743587,0.0532747767865657,0.3289663195610046
3.368040283203129,0.1404743280897848,0.0188115218453109,0.0236573544412851,0.007260185200721,0.0735032185912132,0.3313437700271606
3.378005126953127,0.1681204964389093,0.014734481664747,-0.0017208324432373,0.005854036193341,0.0712608322501182,0.3390757143497467
3.3879692382812436,0.1898234288767911,0.0325882643938064,-0.0734603730082511,0.0057066730223596,0.0605421401560306,0.3432589173316955
3.397933837890619,0.2201149058366194,0.0144923434719443,-0.088628716045618,0.008643340319395,0.0546890459954738,0.3516668081283569
3.4078991699218903,0.2337259546956978,-0.0122115390583872,-0.0831190127134323,0.0222280174493789,0.0523377135396003,0.3678328096866607
3.417863281250007,0.2354116792929358,-0.0385657313682138,-0.103772509163618,0.0329821296036243,0.0404482968151569,0.3757376074790954
3.427828125000005,0.226873275789339,-0.0412988095939159,-0.0801391201198101,0.044237308204174,0.0327853821218013,0.3922323882579803
3.4377932128906252,0.2305932644268497,-0.0494340391241013,-0.0410316830903291,0.0497151650488376,0.0349614508450031,0.4053247570991516
3.4477570800781194,0.2098998560913838,-0.0335211613297462,0.0467874701380729,0.0517052710056304,0.0452031716704368,0.4081502258777618
3.4577189941406203,0.1581636409721337,-0.008812982661277,0.0728121382325887,0.0455315299332141,0.0516751855611801,0.4105342924594879
3.4676828613281288,0.0976775898220017,0.0517402702398598,0.1089145482271909,0.0407704040408134,0.0649137273430824,0.4141719341278076
3.477647949218749,0.063979848082643,0.1047070135347545,0.1138262856662273,0.0271416753530502,0.0755384042859077,0.41436368227005
3.4876130371093694,0.0726349002358503,0.0904259747259318,0.0855091227203607,0.0189488679170608,0.075480580329895,0.4155153632164001
3.4975771484375002,0.0679430160925723,0.0736262310944497,0.0705938776612281,0.0178873315453529,0.0697278827428817,0.4177343249320984
3.507541992187484,0.0464393325538374,0.0609777619235217,0.0338701208978891,0.0118708796799182,0.06214514747262,0.4184270799160003
3.517506835937482,0.0294231514263898,0.0714116237848997,-0.0204231948256492,0.0060769054107367,0.0591243244707584,0.419946938753128
3.5274709472655985,0.0391322244108654,0.1208800035700202,-0.009615969607234,-0.0078744040802121,0.0609290599822998,0.4215641021728515
3.5374360351562473,0.0589369768109172,0.1355934424467384,0.0174795425891876,-0.0160471126437187,0.0580182261765003,0.4146523773670196
3.547400146484364,0.0511026116571389,0.1098196803733706,0.0632785862118005,-0.0302895344793796,0.0663377866148948,0.4088734984397888
3.557364990234362,0.0265131822638213,0.1174123274594545,0.0901765300095081,-0.035750612616539,0.0756543278694152,0.4098847508430481
3.5673298339843598,0.0213053662213496,0.117641606170684,0.0660936436325311,-0.0390799678862094,0.0811133161187172,0.4128642976284027
3.5772939453124906,0.0515959846646524,0.0653781888395547,0.0285936417996883,-0.0425814911723136,0.084713377058506,0.4172451794147491
3.5872592773437475,0.0958122343415394,-0.0058193538032472,0.0470119265437126,-0.0329655036330223,0.0923198238015174,0.412337452173233
3.5972241210937455,0.0868301969899796,-0.0041617958545684,-0.0050619595646858,-0.023950170725584,0.0768593698740005,0.4241272807121277
3.6071879882812397,0.1048089760718867,-0.0652929947741329,-0.1168541090548038,-0.0225488431751728,0.0566022656857967,0.43173748254776
3.6171530761718884,0.1117031377661041,-0.0946430078990757,-0.0293728094786405,-0.0130160581320524,0.0566235706210136,0.4342991709709167
3.6271169433593684,0.0472391228957101,-0.1181916412688791,0.0954798971146345,-0.0156331025063991,0.0740943700075149,0.4414494633674621
3.6370820312499887,-0.0029543380272574,-0.1095111989460885,0.1131102463513612,-0.0093286018818616,0.0805088579654693,0.4446812272071838
3.6470471191406233,-0.0605052673072554,-0.0586503418892621,0.0029214404046535,-0.0112145198509097,0.0704943761229515,0.4469038248062134
3.6570109863281175,-0.0732237877734005,0.0433224243760108,-0.056492871594429,-0.0136118978261947,0.0682778283953666,0.4426339864730835
3.666976074218738,-0.0827702540746889,0.1270681906856596,-0.041693946391344,-0.0113757904618978,0.0724433213472366,0.4370238780975342
3.6769401855468686,-0.0796284854502417,0.1534738209217786,-0.0460778605639934,-0.0101174470037221,0.0737040564417839,0.4281515777111053
3.6869050292968666,-0.0530410689064301,0.1722242602296173,-0.1088198556810617,-0.0077893622219562,0.0591876246035099,0.4202094078063965
3.696870117187501,-0.0330304917359724,0.1615555666990578,-0.1220242051690816,-0.0066812206059694,0.0551127232611179,0.4024029672145843
3.7068339843750095,-0.0211988371069543,0.1123547518089413,-0.0414917018175125,0.0035174186341464,0.0648936554789543,0.395456850528717
3.7167990722656015,-0.0119096883012913,0.0869338948264718,-0.0116740711808204,0.0101928990334272,0.0673900991678237,0.3816395699977875
3.7267641601562502,-0.0092422226577065,0.0780002083949744,-0.0214373403042554,0.0149983055889606,0.0538143664598465,0.3659186661243438
3.7367280273437444,-0.0348651598172262,0.0842658446609973,0.0278980607509613,0.0186732821166515,0.0578248016536235,0.3574737012386322
3.7466928710937424,-0.0331568945946171,0.1113306694582104,0.1044289272457361,0.0157771296799182,0.0658789575099945,0.3481504321098327
3.7566569824218874,-0.0256373127447441,0.0983427391998469,0.1134936927109956,0.0136599168181419,0.0659380778670311,0.3421809375286102
3.7666218261718853,-0.013288959031552,0.1293355510957539,0.0648597179234027,0.006313785444945,0.0644544586539268,0.335252970457077
3.776587158203128,0.0242722897355444,0.1558697761476039,0.0534399137645959,-0.0008344049565494,0.0630459114909172,0.3324382603168487
3.7865512695312447,0.040784539928846,0.1187760170280933,0.0692974081099033,-0.00228863209486,0.0677523985505104,0.3332266509532928
3.7965158691406202,0.0532301434714347,0.0099547000423073,0.0676496409028768,-0.0026995576918125,0.0750265568494796,0.3403340876102447
3.806479980468751,0.089929752174206,-0.0542715422831475,0.0197381351709365,-0.0007277661934494,0.0763630792498588,0.345552384853363
3.816445068359357,0.1272075443574227,-0.055627486936748,-0.0447048186451196,0.0097499080002307,0.0672974064946174,0.3531090915203094
3.826410156250006,0.1368700199875049,-0.0714656920596957,-0.0554442393243312,0.0260778460651636,0.0561187267303466,0.360351413488388
3.8363740234375,0.1177004784847609,-0.0803888570971786,-0.0566156211912632,0.0354572348296642,0.0479092672467231,0.3676519393920898
3.8463391113281205,0.1088055166284553,-0.0712824444472789,-0.0392009605318307,0.0429453030228614,0.0570294223725795,0.3777848780155182
3.8563029785156004,0.1150587135380133,-0.0556700109042227,-0.0253156430423259,0.0489874817430973,0.0584651343524456,0.3834928572177887
3.866268066406249,0.1233517822447232,-0.0640010552674531,-0.0294254164487123,0.0484207309782505,0.055749163031578,0.3852850496768951
3.8762331542968838,0.1022929198640398,-0.0646229865580797,0.0163046535909175,0.0471903495490551,0.0560927093029022,0.3864203691482544
3.8861967773437414,0.0444856229364871,0.0029969898588955,0.0359054261177778,0.0393522754311561,0.0579545088112354,0.3885033130645752
3.8961621093749983,0.018712792444881,0.0171273681506514,0.0376601608306169,0.029036521911621,0.0578706189990043,0.3898314237594604
3.906126220703129,0.0179556356683373,-0.0207113641172647,0.0992459716498851,0.0223023872822523,0.0654859617352485,0.3854100108146667
3.916091064453127,0.0003813457340933,-0.0286032864108681,0.1490478211730718,0.0166149418801069,0.0752810686826706,0.3824121057987213
3.9260561523437474,-0.0282155840012244,0.0241537596561014,0.133577280318737,0.0015884810127317,0.0804147496819496,0.3851478397846222
3.9360200195312416,-0.0333598880871199,0.0700704383090138,0.1046750109612941,-0.0123704774305224,0.0904881581664085,0.3796739876270294
3.9459848632812395,-0.0286397459637373,0.1001097488723695,0.0890887347728014,-0.0221973247826099,0.0982267558574676,0.3753672838211059
3.9559501953124823,-0.0175968122933059,0.1015747068583965,0.0275327345699071,-0.0291388556361198,0.0946197733283042,0.3747587502002716
3.965914306640599,-0.0135000627652741,0.0765248751454055,-0.0490232663661241,-0.0384618788957595,0.0808186903595924,0.3709138035774231
3.9758789062499886,-0.0168347784122452,0.0114976917006075,-0.0277794028073549,-0.0364631749689579,0.0835598781704902,0.3636388480663299
3.9858430175781194,-0.0538878584614954,-0.0248924491941928,0.0509258851170539,-0.0409549698233604,0.0848332419991493,0.3626156747341156
3.9958078613281174,-0.0728477940678596,-0.0275043852582573,0.0599117401272058,-0.0419704355299472,0.0862076953053474,0.3553076982498169
4.005772949218738,-0.0816557352278381,-0.0126847095280885,0.0566296497166156,-0.0386390276253223,0.0861378908157348,0.3461286127567291
4.015737304687491,-0.0821265310773625,0.0075585986860096,0.0400859266728162,-0.0302095878869295,0.0912298560142517,0.3411263823509216
4.0257019042968665,-0.0587704246049746,0.0283975347056984,-0.0250952782899141,-0.0188690349459648,0.0813722088932991,0.3341718316078186
4.035666015624997,-0.0515867601785808,0.0550409192204475,-0.0966518635034561,-0.0097192116081714,0.0671021938323974,0.3233372867107391
4.045631103515603,-0.050416108964011,0.1015158162780106,-0.1164215628564357,4.68860380351e-05,0.0646777600049972,0.3123785555362701
4.055595947265601,-0.0657303267454728,0.1194970247790217,-0.1057540383696556,0.0076779085211455,0.0586236007511615,0.3019616305828094
4.065559814453124,-0.0985154654182493,0.0664022711902856,-0.0629945085734128,0.0112614836543798,0.0604000091552734,0.2911846935749054
4.075525146484367,-0.1365557846728712,0.0261862883970141,0.0002624503284692,0.0117922518402338,0.0574380420148372,0.2784161567687988
4.085489013671889,-0.1879981679446995,0.0280344004817306,0.0203916306436061,0.0115346387028694,0.0586300194263458,0.2661181092262268
4.095454101562481,-0.1996138234691694,0.0980981167890131,0.0050537762582302,0.0160660073161125,0.0582992546260356,0.255786120891571
4.10541918945313,-0.190376514448598,0.2065947318650782,0.0192857152283191,0.0172502920031547,0.0663900822401046,0.2412053942680359
4.115382812499988,-0.1828978856636211,0.2628371358297765,0.0072667761325836,0.0216026958078145,0.065367966890335,0.226323127746582
4.125347900390622,-0.1600935313224792,0.2342547460764646,-0.0414221437126398,0.0219362173229455,0.0540350154042243,0.2106938064098358
4.135312011718739,-0.1567080536026507,0.1675683972477912,-0.033064649733901,0.0213244892656803,0.0489015057682991,0.1936745941638946
4.145277099609359,-0.1854765405125916,0.121452835021913,0.0271323370754718,0.0128294304013252,0.0531650558114051,0.1757440567016601
4.155242187500008,-0.1946290938591584,0.0855496008612215,0.0681400547683239,-0.0013308636844158,0.0625950470566749,0.1589483022689819
4.165206054687488,-0.1791658960610628,0.0194122642174363,0.1008271033614873,-0.0174269322305917,0.0661919489502906,0.1449476927518844
4.1751708984375,-0.1546274844689294,-0.0762298377215862,0.1225818390518426,-0.0271216370165348,0.0747769176959991,0.1312510520219802
4.185135009765602,-0.1377946057528257,-0.1224224107064306,0.0939993031680583,-0.0318278931081295,0.0774843469262123,0.1204829216003418
4.195100097656251,-0.1217232859937474,-0.1074384843252599,0.0121095399886369,-0.0434986650943756,0.0738163739442825,0.1136689633131027
4.205065185546886,-0.1179284968206658,-0.0622347762472927,-0.0394599037289619,-0.0466699562966823,0.0683643519878387,0.1042807847261428
4.215029052734366,-0.1131234711591154,-0.0236897954061627,-0.0631160891264677,-0.050413828343153,0.0670966878533363,0.0964758619666099
4.224994140625,-0.1287144235227257,0.0326641061089932,-0.089772040861845,-0.0500101298093795,0.0650618597865104,0.0911520421504974
4.23495800781248,-0.1264267509769648,0.1334599375493824,-0.1535153219759464,-0.051254890859127,0.0535660572350025,0.0818272531032562
4.244923095703129,-0.1165926451070234,0.1813575608864426,-0.1425900233358144,-0.0475896708667278,0.0513524003326892,0.0714910998940467
4.254887939453127,-0.1095593489367514,0.0984140508703887,-0.1018909332007169,-0.0308042950928211,0.0545489937067031,0.063961274921894
4.2648520507812435,-0.1056962437678128,-0.0098690675854682,-0.0909147811561822,-0.0074884383939206,0.0464711487293243,0.0607835464179515
4.274817138671864,-0.1112408722829073,-0.1008861400723457,-0.135395727917552,0.0124115012586116,0.0327766388654708,0.0546116717159748
4.284781250000009,-0.1118492865048348,-0.1069447094589471,-0.1314928752601146,0.0298184044659137,0.0269063040614128,0.0497154667973518
4.29474584960937,-0.1233313787775114,-0.089734631460905,-0.0794242498487234,0.0429579094052314,0.0238327495753765,0.0455803759396076
4.304709960937501,-0.1503492226278409,-0.0503203204393386,-0.0450058474183082,0.0477749072015285,0.0262191761285066,0.0311539117246866
4.314675048828121,-0.1649760061344131,0.0217440681658685,-0.028693010520935,0.0449817813932895,0.0270359683781862,0.0191150940954685
4.324640136718742,-0.1712584474047646,0.0296668239891529,0.0105196404486894,0.0458592996001243,0.0369107462465763,0.0087365247309207
4.334604248046887,-0.1541683059919625,-0.0174386260569095,0.0199520701825618,0.0420264787971973,0.0375554971396923,-0.0039129583165049
4.344568847656248,-0.1396428639680147,-0.0082597326926887,-0.0555821864902973,0.0434047654271125,0.029229249805212,-0.017556894570589
4.354532958984365,-0.1537835079254582,0.0408006508134305,-0.1323006845116615,0.0473371893167495,0.0130018107593059,-0.0267437323927879
4.364498046874999,-0.1840442426871508,0.0673436436936259,-0.0963303764641285,0.0467988178133964,0.006071189418435,-0.036144345998764
4.374462890624997,-0.2329482300551608,0.0597540653474628,-0.0199327809602022,0.044543121010065,0.0081921312958002,-0.048788234591484
4.384426757812477,-0.2380995118711143,0.0408108799465,0.0256692787855863,0.0417037084698677,0.0103572104126214,-0.0607359893620014
4.394392089843748,-0.2419307240644469,0.0523456887871027,0.0138280343443155,0.0407170094549655,0.0035416488535702,-0.0715609416365623
4.404356201171865,-0.229338076733984,0.0611518033161759,-0.0181797998130321,0.04213822260499,-0.0069080530665814,-0.0832230001688003
4.414321044921863,-0.2200561613867059,0.0695661420486867,-0.041457215026021,0.0415030568838119,-0.020714147016406,-0.0900497436523437
4.424286132812483,-0.2299936180332675,0.0608477058030664,-0.0372825596898794,0.0358496457338333,-0.0282664038240909,-0.1045502200722694
4.434250000000006,-0.2236110408566892,0.077299658910185,0.0157633863210678,0.0315350592136383,-0.026217633858323,-0.117385596036911
4.444214843750004,-0.2188692896896973,0.0601835428059101,0.0903273366570472,0.0219920985400676,-0.0210903529077768,-0.1307447254657745
4.454179199218743,-0.1992907289946451,0.0513625229686498,0.161925422924757,0.018964884802699,-0.0079553760588169,-0.1455172747373581
4.464144042968741,-0.1726715290730819,0.1003039562702178,0.1539583895683288,0.0091061275452375,-0.0055565377697348,-0.164522498846054
4.474107910156249,-0.1537306086944416,0.1068286818638444,0.0730892016083002,0.0023078774102032,-0.0030656831804662,-0.1765701174736023
4.484072998046884,-0.1316871557231992,0.0932572526291012,0.043482583373785,-0.002389283850789,-0.0011019646190106,-0.1946082711219787
4.494037841796867,-0.1352892353357747,0.0561472730271518,0.0221335058748722,-0.0025272355414927,-0.0028394111432135,-0.2101345062255859
4.504001953124998,-0.1546313203938305,0.0535720157116651,-0.0396299995988607,-0.0027874447405338,-0.006825806107372,-0.2164466083049774
4.513967285156241,-0.1600940427791327,0.0653426791347563,-0.0787426973253488,-0.0040593706071376,-0.0164038650691509,-0.2279948741197586
4.523930908203127,-0.160882270547375,0.0370206938832998,-0.0733703566372394,-0.0029371143318712,-0.0171644631773233,-0.2298835963010788
4.533895996093747,-0.1629385089574381,-0.0039598435416817,-0.0144558108538389,0.0007958388887345,-0.0197554528713226,-0.2346850037574768
4.543861083984368,-0.1600786625469103,-0.0396757384367287,-0.0102098438471555,0.0061719086952507,-0.0268298480659723,-0.2359569519758224
4.55382495117189,-0.1639281045166775,-0.0515000317431986,0.0003127192109823,0.0087075047194957,-0.03271996229887,-0.2353848963975906
4.563790039062482,-0.1638433123100549,-0.0766208828657865,0.0104465752124786,0.0180011373013257,-0.0341155007481575,-0.2349612116813659
4.573753906250005,-0.1486162613553926,-0.0912260390624404,-0.0191682263284921,0.0244095008820295,-0.0410951152443885,-0.2346794605255127
4.583718994140625,-0.1249015872363001,-0.0701208533219993,-0.0886509278774261,0.0317806005477905,-0.0568559691309928,-0.2370693832635879
4.593683105468742,-0.1192041427796706,-0.0671070584587752,-0.0841027630537748,0.0397184193134307,-0.0646768733859062,-0.2408777028322219
4.603648193359362,-0.1283276526948437,-0.1025757005944848,-0.025278233641386,0.0378770567476749,-0.0595160834491252,-0.2451600283384323
4.613612792968738,-0.1574954411206766,-0.0993833342939615,0.0222042330235242,0.0335813760757446,-0.0563091039657592,-0.2507332265377044
4.623576904296868,-0.1623909215446561,-0.0541628212116658,0.0256003052026033,0.0251805931329727,-0.05772265791893,-0.259206622838974
4.633541992187489,-0.1620307099301368,0.0215953073449432,0.016992051333189,0.0199088659137487,-0.0587136186659336,-0.2704566419124603
4.6435061035156195,-0.162366627353616,0.0719181120023131,0.0360328518897294,0.0098839811980724,-0.0540523156523704,-0.2841162085533142
4.65347119140624,-0.1763543823042884,0.1185005610875785,0.0814940418601036,0.0062756645493209,-0.043530698865652,-0.3004858791828155
4.663436035156238,-0.1938227093797176,0.1682042109332978,0.0894178205966949,-0.0020137964747846,-0.035399705171585,-0.3100886940956116
4.673399902343746,-0.1701458830529823,0.207821204920113,0.0238806418031454,0.0003143385984003,-0.0362399332225322,-0.3245589733123779
4.683364990234367,-0.1373173436298966,0.2057313930340111,-0.0660240855276584,0.0014775632880628,-0.0390781313180923,-0.3401846289634704
4.693329101562483,-0.1363176650680601,0.2169943991959095,-0.0871878695875406,0.0103695914149284,-0.0455874279141426,-0.352397620677948
4.703293945312481,-0.1281948566280305,0.2083481514036655,-0.1078524719536304,0.0189237650483846,-0.0462095960974693,-0.3674836158752441
4.713258056640626,-0.1125356613337993,0.1592139720089733,-0.130887895104289,0.0316315740346908,-0.0543900281190872,-0.3774304986000061
4.7232231445312465,-0.0973610346861183,0.1260758186474442,-0.1467109026581048,0.0426515154540538,-0.0599054545164108,-0.387230634689331
4.733187988281244,-0.0914323752894997,0.0883681654132902,-0.1125870992600917,0.0542154945433139,-0.0677929446101188,-0.3848761618137359
4.743152099609361,-0.0325189254846423,0.0229081435091793,-0.0809703102469444,0.0640928894281387,-0.0782796218991279,-0.3904266655445099
4.753116943359359,-0.0247659367376938,-0.0113370943114161,-0.0526812043517827,0.064222052693367,-0.0877740606665611,-0.3910003304481506
4.763080810546867,-0.0434436761355027,-0.0588204377591609,0.0602829115271568,0.0509788654744625,-0.0847189724445343,-0.3914484083652496
4.773046142578124,-0.0459025770623236,-0.0893240048334002,0.1611193672388792,0.0374058000743389,-0.073426105082035,-0.3886217474937439
4.783010253906241,-0.0610365063734352,-0.1006989469371736,0.2247241166651248,0.0232724025845527,-0.0634717419743537,-0.3935994505882263
4.792974853515602,-0.0555227844532579,-0.1050851991973817,0.219680861800909,0.0074604176916182,-0.0559693500399589,-0.3974977731704712
4.802939941406251,-0.0491474042024463,-0.0767659904249012,0.1594084716677665,0.000979125034064,-0.0538870021700859,-0.4005997776985168
4.812904052734368,-0.0329338994937017,-0.0324767668433487,0.1004044940352439,-0.0022986931726336,-0.0563288554549217,-0.4026354849338531
4.822868896484366,-0.0319846724774688,0.0151435008570551,0.0297387201815843,-0.0012913192622363,-0.0544478148221969,-0.4043511748313904
4.832833251953119,-0.0157420512720942,0.0548465656921267,-0.0388712901860475,0.0031577576883137,-0.0603704191744327,-0.4045889973640442
4.842798095703131,-0.0301295095974579,0.0563777207821607,-0.0769610746055841,0.0055109201930463,-0.061887577176094,-0.4133003950119018
4.852761962890625,-0.0650659810852259,0.0526614767380058,-0.0687976418942213,0.0179319027811288,-0.0598904713988304,-0.4160455763339996
4.8627270507812455,-0.0724572238476947,0.0105247550152242,-0.0826210000634193,0.0266164671629667,-0.0625517219305038,-0.4176557064056396
4.872692138671866,-0.0682573975376784,-0.0208154090136289,-0.1302051735371351,0.0335870273411273,-0.0732602924108505,-0.4206309914588928
4.882655761718738,-0.0546255798852071,-0.0195911279156804,-0.153573774164915,0.0362947173416614,-0.0791368931531906,-0.4218177199363708
4.892621093750009,-0.0263882041772827,-0.0020896657556295,-0.1306090781629085,0.0445603691041469,-0.0877436995506286,-0.4204919934272766
4.902585205078125,-0.0236701043250039,-0.0186744514621794,-0.0823024356335401,0.0498365871608257,-0.0894295498728752,-0.4217866361141205
4.912550048828123,-0.0028597368126735,-0.0246583481773734,-0.024888357540965,0.0480908825993537,-0.0888883993029594,-0.4207213819026947
4.922513916015603,0.0109387061109766,-0.0183927119113504,0.0080424366801977,0.0431017093360424,-0.0850496664643287,-0.4186182618141174
4.932479003906238,0.0357019394349306,0.0117354459792375,0.0189010998249053,0.0342285893857479,-0.083113819360733,-0.4198611378669739
4.94244384765625,0.0427755310829728,0.0127501759797334,0.0484153636008501,0.0304142404347658,-0.0799297392368316,-0.4177691340446472
4.952407958984367,0.0406616076689213,-0.002000087776035,0.0532616345882415,0.0292725432664155,-0.0820533484220504,-0.4126731753349304
4.9623732910156235,0.0505235148612409,-0.0424332204513251,0.0430430229127407,0.0248098336160182,-0.0892078578472137,-0.4110675156116485
4.972336914062481,0.0482690504653379,-0.0574761835433542,0.0445738857418298,0.0198992304503917,-0.0888920053839683,-0.40102419257164
4.98230200195313,0.0498051739914342,-0.0637443040274083,0.0667190820544958,0.0289568156003952,-0.0879258587956428,-0.3954554200172424
4.9922661132812465,0.0552052064040675,-0.0656260261207818,0.0585310994237661,0.0357390865683555,-0.082954004406929,-0.3826333582401275
