time,ax,ay,az,gx,gy,gz
0.0,-0.0480675365438684,-0.0452753120094537,0.1091559557676315,-0.0166924633085727,0.0376612618565559,0.1177174374461174
0.009964843750001506,-0.0272569133032113,-0.0736316379219293,0.0514022704571485,-0.0212360806763172,0.0356646887958049,0.1150036752223968
0.0199289550781252,-0.0063064797330647,-0.0891683758802712,0.0578974776953458,-0.0226002279669046,0.0362607352435588,0.1101162955164909
0.02989428710937503,-0.0191165692064911,-0.0762334909833967,0.0512730911195278,-0.0265395753085613,0.0378461182117462,0.1046589389443397
0.0398579101562504,-0.0448108363028615,-0.0607009908087551,0.0569949758976697,-0.0333812497556209,0.0308168604969978,0.100496806204319
0.049822998046876066,-0.0387959599275141,-0.0747014591105282,0.0709989513307809,-0.0452517569065094,0.0341735072433948,0.0982608124613761
0.05978710937499976,-0.053804874619469,-0.0687678312778472,0.1131575926244258,-0.0551168620586395,0.0399744473397731,0.0885191559791565
0.06975097656250107,-0.0730868635207414,-0.0433837991744279,0.1341302380263805,-0.0583339594304561,0.0490073561668396,0.0903375595808029
0.0797158203125008,-0.067977557682991,-0.0336002179153263,0.0708989980876445,-0.0641498863697052,0.0464997850358486,0.0873546078801155
0.08967993164062626,-0.0546226207431405,-0.0222863583490252,-0.0066331544041633,-0.0636665225028991,0.0405287109315395,0.0847678780555725
0.09964501953125016,-0.0523664393141865,-0.0220117791913449,-0.0395429058372974,-0.0510010011494159,0.0352692902088165,0.086874321103096
0.10960864257812375,-0.0267452009214088,-0.0365747036814689,-0.1120598605155944,-0.0457324683666229,0.0219289846718311,0.0916203409433364
0.11957299804687693,-0.016971958393231,-0.0314024156101047,-0.1073766711354255,-0.0400252602994442,0.0173668693751096,0.0852261558175087
0.12953808593750082,-0.0701981928745284,-0.0056808221153914,-0.0791156222909688,-0.0380731672048568,0.0135713322088122,0.0928092449903488
0.1395021972656263,-0.0217348254134878,-0.0884744022667407,-0.0206803844571113,-0.0357910059392452,0.0188938435167074,0.0851739421486854
0.14946704101562425,-0.0710830494176596,-0.0711721159406006,0.0017979893326759,-0.0347529053688049,0.0176765117794275,0.084251157939434
0.15943090820312378,-0.0604768997292965,-0.0959632967174053,0.0025976152777671,-0.0336648821830749,0.0147474342957139,0.0834695398807525
0.16939501953125102,-0.0388797292208299,-0.113322281666845,0.0232587105125188,-0.0294083505868911,0.0167181752622127,0.0798364505171775
0.17935986328125075,-0.0402543420422822,-0.103073128722608,0.0058171618461608,-0.0248426645994186,0.0152908600866794,0.0774038136005401
0.18932373046875028,-0.0377497388102114,-0.0814852740317583,-0.0477004933297634,-0.02634122595191,0.0116244852542877,0.0749174803495407
0.1992890625000001,-0.0288070653546601,-0.0454347403548657,-0.0256277777314186,-0.0237405523657798,0.008967101573944,0.0728484690189361
0.2092531738281238,-0.0306208733109757,-0.0221411046594381,0.0550590393990278,-0.0225961916148662,0.0115144150331616,0.0797708183526992
0.2192170410156251,-0.033005393827334,-0.0487117161989212,0.097071550220251,-0.0181843247264623,0.0157468765974044,0.0732559561729431
0.22918188476562484,-0.0417478320030495,-0.1274172963842749,0.0709399146199226,-0.0191454589366912,0.0187988579273223,0.0724466145038604
0.2391459960937503,-0.020958215017803,-0.1770801758281886,0.0235346048444509,-0.0166064612567424,0.00998480245471,0.0660469010472297
0.24911083984375004,-0.0393695585643872,-0.1631210624501109,-0.0022644378006458,-0.0151105634868144,0.0071442741900682,0.0638077110052108
0.2590749511718773,-0.0696065836569294,-0.1036078201211988,0.0175461780846118,-0.0128747802227735,0.0087717901915311,0.0685994178056716
0.26903881835937504,-0.0902043313318863,-0.0132784376375377,-0.0150555303126573,-0.0115985935553908,0.0033932700753211,0.0725632607936859
0.2790039062500007,-0.0912047405460849,0.0107014267563819,-0.0166904380381107,-0.0103636980056762,0.0066494094207882,0.0754587724804878
0.2889680175781262,-0.0501055086448788,-0.019387568167597,-0.0010655834048986,0.0023819245398044,0.0054240887984633,0.0785901173949241
0.29893310546875007,0.0006704466074705,-0.0603176905795931,-0.0341629663646221,0.0168082974851131,-0.0016517157200723,0.0718259811401367
0.3088969726562514,-0.0135562316656112,-0.0221653623178601,-0.1102174475193023,0.0281445737928152,-0.0141805568709969,0.0674935579299926
0.31886108398437507,-0.0179668146494776,-0.0029220249265432,-0.1205360124379396,0.0364471524953842,-0.0230174623429775,0.068365566432476
0.3288259277343748,-0.0204937027785927,-0.0062434244342148,-0.0698608872115612,0.0378580950200557,-0.021078148856759,0.0657306313514709
0.33879003906250027,-0.0245910550948232,-0.0226123754329979,-0.0165524908721447,0.0401130802929401,-0.0174636300653219,0.0602992214262485
0.34875463867187584,-0.0672210402272641,-0.0575057018987834,0.0391354940801858,0.0362895801663398,-0.0121202655136585,0.0582512505352497
0.35872021484374983,-0.0987563980346545,-0.1061338314674794,0.0816974554777145,0.0338236950337886,-0.0071540586650371,0.0477571859955787
0.3686853027343773,-0.1207261647151783,-0.1201033201090991,0.0972206033021211,0.0228256378322839,-0.0057732090353965,0.0488133952021598
0.37864941406250097,-0.0934376141646876,-0.1058180435165762,0.093489015558362,0.0116105554625391,0.0003270460292696,0.0514237880706787
0.38861352539062644,-0.056298116207309,-0.1104942186340689,0.1096615672022104,0.0025930916890501,0.0030706347897648,0.0496594421565532
0.39857836914062617,-0.0281161970136687,-0.1399190505608916,0.0977694693565368,0.00169129204005,0.0045898216776549,0.0472239144146442
0.4085422363281239,-0.0154927526861429,-0.1152849600419402,0.0507458523750305,0.0032977107912302,-0.0003199819475412,0.0444973707199096
0.41850732421875136,0.0140209265679121,-0.0842092921681702,-0.0056856444209814,-0.0007467656396329,-0.0067688394337892,0.0427596047520637
0.42847143554687506,-0.0003925064489245,-0.0916106544658541,0.0288952550947666,-0.0003632702864706,-0.0007170720491558,0.0403385236859321
0.43843530273437636,0.0112986619971692,-0.1042217142358422,0.0657353317141532,-0.0046850480139255,0.0050787655636668,0.0304534044116735
0.4484001464843761,-0.010161839986965,-0.0973651263393461,0.0577156913876533,-0.0044767893850803,0.0048478692770004,0.0266871619969606
0.45836450195312395,-0.0312475538419559,-0.0132354752786457,0.0530260722666978,-0.011463364586234,0.0074848923832178,0.0249244980514049
0.4683295898437514,-0.0054583750037476,0.0704079997003078,0.0524421348989009,-0.013251943513751,0.0094388537108898,0.0174356885254383
0.478293212890625,-0.010298727707006,0.0560595947436988,0.009364040672779,-0.0144635289907455,0.0140480492264032,0.0131384674459695
0.48825732421875045,-0.0013800196489319,0.0282068344391882,0.007525134807825,-0.0058306260034441,0.0119883604347705,0.0129890646785497
0.4982224121093761,0.0100757691387087,0.0164149820975959,-0.0104044896364212,-0.0040594511665403,0.0095824562013149,0.0103779230266809
0.5081865234374998,0.0186150128925219,-0.0488913105495274,-0.0437947180628776,0.0074685737490653,-0.0018488962668925,0.0135492142289876
0.5181511230468772,0.0326299481110647,-0.1332933488108217,-0.0326221666634082,0.0197368413209915,-0.0090790493413805,0.0158941820263862
0.5281152343750009,0.0350157838016748,-0.152432495175302,-0.0087093761563301,0.0261321552097797,-0.0134197352454066,0.0175751708447933
0.5380793457031263,0.0214637533871456,-0.132857441611588,0.0065530749052762,0.0317927673459053,-0.0107005899772048,0.0164448022842407
0.5480444335937502,0.0099740257972851,-0.0513316894389688,0.0184235454410314,0.0255857370793819,-0.0114068603143095,0.0108918454498052
0.5580083007812497,-0.0346546223390847,0.0325255744211375,0.0352840793490409,0.0235601179301738,-0.0110505493357777,0.005973826162517
0.5679733886718772,-0.0458806940240785,0.0504047838523983,0.0265232652664184,0.0100584235042333,-0.0091298772022128,-0.0024683941155672
0.5779375000000009,-0.0552569731239229,0.075337711187452,0.0365033920109272,0.0006752293556928,-0.0013671061024069,-0.0118090007454156
0.5879011230468763,-0.0442202499985694,0.0643412470072507,0.0875391672432422,-0.0067464681342244,0.0101025961339473,-0.0125863775610923
0.5978662109375001,-0.0126573831297457,0.0153049750290811,0.1053717610538005,-0.0048201088793575,0.0169138144701719,-0.0133706927299499
0.6078303222656238,0.0401122666904702,-0.057000967247039,0.0475368272006511,0.0035712458193302,0.0134823303669691,-0.0100577212870121
0.6177954101562513,0.0682209014521911,-0.1113093344092369,-0.0138555068731307,0.0103871878236532,0.0096665602177381,-0.0059669623151421
0.627759521484375,0.0639164822565391,-0.1646069170936942,-0.0300531929582357,0.0255778580904006,0.0024499264545738,-0.0051203435286879
0.6377233886718763,0.0618331731764599,-0.1671089630424976,-0.033603578916192,0.0403360873460769,-0.0024661924690008,-0.0024860729463398
0.6476884765625002,0.0662302390916273,-0.1398953774243593,-0.063947279253602,0.0486539416015148,-0.0055024623870849,0.000495069194585
0.6576523437500015,0.0348058673780411,-0.0850756997391581,-0.0754752199620008,0.058580495417118,-0.0082671148702502,-0.0044633410871028
0.6676174316406254,-0.0020009280262514,-0.0499022411577403,-0.0519055438041686,0.0602782592177391,-0.0060447063297033,-0.0013383883051574
0.6775812988281249,-0.0167406338553875,-0.0299548471502959,-0.0200403329879045,0.0500948093831539,-0.0061883963644504,-0.0041827112436294
0.6875454101562504,-0.0136169488769024,-0.0183947577379643,0.0622702859520912,0.0391505472362041,-0.00119070825167,-0.0082980943843722
0.697510498046876,-0.0235483776414766,0.0009865268193185,0.1164466972976922,0.0259322486817836,0.0023530200123786,-0.0092021292075514
0.7074743652343773,-0.02082965673469,-0.0340808410391211,0.1197188508361578,0.0079564442858099,0.0064992951229214,-0.0118988454341888
0.7174392089843771,-0.0249508648505434,-0.0745182114981114,0.143879478624463,-0.0048548961058259,0.0131388800218701,-0.0152002219110727
0.7274033203125008,-0.03638725481797,-0.0850102332875132,0.1531786373674869,-0.0089979758486151,0.0178590677678585,-0.0130851399153471
0.7373674316406262,-0.0318625804677605,-0.1061798625662922,0.0839969645917415,-0.0101093556731939,0.0191265139728784,-0.0177451334893703
0.7473325195312501,-0.0288284004036337,-0.1139865907944738,0.0225233819752931,0.0006689904257655,0.0099607119336724,-0.0182713717222213
0.7572963867187514,-0.0277828368734568,-0.0800024881280958,-0.0147895728528499,0.0044536078348755,0.0069928858429193,-0.0230299085378646
0.7672612304687512,-0.0328056700041517,0.0114784024782478,-0.0317395386099815,0.0148774869740009,0.0050439843907952,-0.0254704318940639
0.7772255859375008,-0.0060092503521591,0.0896728182710707,-0.0663794748365879,0.0091404868289828,-0.0014465118292719,-0.026790177449584
0.7871894531250003,0.0214705119214951,0.1052111636646091,-0.0430751716166734,-0.0028274934738874,0.0006509937811642,-0.0313199460506439
0.7971542968750001,0.0039435499940067,0.0927222689695656,0.0600245528519153,-0.0032552904449403,0.0150383580476045,-0.0314145497977733
0.8071184082031237,0.0191412287237122,0.0189496151417493,0.037810967478156,-0.0152975721284747,0.0158375725150108,-0.0296592600643634
0.8170834960937512,0.0044660394981503,-0.0414141065366566,-0.0002682955473661,-0.0210990794003009,0.0169614404439926,-0.034463558346033
0.8270471191406248,-0.0140575322512537,-0.0840367120802402,0.0618599515855312,-0.0270882621407508,0.01289639249444,-0.0351469218730926
0.8370112304687503,-0.0494700602855533,-0.0740406571142375,0.1594043800145387,-0.0352117195725441,0.0231301896274089,-0.0401230715215206
0.8469763183593759,-0.0524808594740927,-0.0650358051426708,0.1427519358992576,-0.0465961992740631,0.0280301384627819,-0.0418125800788402
0.8569404296875014,-0.0071458166340366,-0.0502815958641469,0.079764441588521,-0.0570155158638954,0.0325852483510971,-0.0436148270964622
0.8669052734375011,0.0471391331199556,-0.0506591970048844,-0.009871405673027,-0.0598914623260498,0.0244884397834539,-0.0420534163713455
0.8768693847656248,0.0826948324846103,-0.0698120796337723,-0.1188303775638341,-0.0546161979436874,0.0119085432961583,-0.0350116491317749
0.8868334960937503,0.0853318664573132,-0.0963631096899509,-0.1993453452587127,-0.0381131209433078,-0.0079290773719549,-0.0231792256236076
0.89679833984375,0.072616761790961,-0.1430541337162256,-0.2117711115896701,-0.0272478200495243,-0.0226048287004232,-0.0084343422204256
0.9067622070312513,0.057765850672312,-0.1289092885076999,-0.1288467446655035,-0.0168175511062145,-0.019403975456953,0.0024942052550613
0.916727294921877,0.0653123570617288,-0.1134689966611564,-0.0553396099060773,-0.0170573834329843,-0.0130331330001354,0.0090794973075389
0.9266914062500007,0.0602215001961216,-0.1033779568880796,-0.0112426940262317,-0.0227943658828735,-0.0115265827625989,0.0160844102501869
0.936655029296876,0.0520459021229296,-0.1250476446434855,0.0340559988588094,-0.0211121812462806,-0.0024782754480838,0.018537662923336
0.9466203613281241,0.0375987860321998,-0.1331206225924193,0.0390495693624019,-0.0184692591428756,0.0028922553174197,0.023906061425805
0.9565844726562514,0.046623219487071,-0.1736275511562824,0.0176063838392496,-0.0132302716374397,0.0031713743228465,0.0345269739627838
0.9665493164062511,0.0239430760474875,-0.1950593385025859,-0.0096235683917999,-0.0035781771875917,0.0016586987767368,0.0459905490279197
0.9765134277343748,-0.0004915098439902,-0.1788257043212652,-0.0426028779298067,0.0111259007826447,-0.0040998943150043,0.0585692785680294
0.9864772949218761,-0.0066352367633953,-0.152976977315545,-0.1233949090003967,0.0290817320346832,-0.0160273928195238,0.0736108049750328
0.9964423828125,0.0215393759066238,-0.1070737426660954,-0.1588748031824827,0.03952407091856,-0.0326872318983078,0.0805345475673675
1.0064062500000013,0.012067271749489,-0.0832730342313647,-0.1297907475173473,0.0472307279706001,-0.0384777411818504,0.074862815439701
1.016371582031251,-0.0334902912674471,-0.0603375643238425,-0.0305979673594236,0.0458230972290039,-0.033613808453083,0.069898635149002
1.0263354492187506,-0.0690404742067679,-0.0194656018398702,0.0492582441657781,0.0428787022829055,-0.0192646961659193,0.0616588108241558
1.036299560546876,-0.084665657633543,0.0251411632582545,0.083716394084692,0.0446616932749748,-0.0106606427580118,0.0562510713934898
1.0462644042968758,-0.090858557456918,0.0609723550960421,0.0443961910873651,0.0474976934492588,-0.0153917474672198,0.0451179891824722
1.0562285156250013,-0.0823031662859022,0.0477849567428231,0.0017284312278032,0.0531869530677795,-0.0176577195525169,0.03702063113451
1.0661923828125008,-0.0558437965685501,0.0380832085482776,-0.0183270993292331,0.0627069622278213,-0.0227526128292083,0.0267802458256483
1.0761572265625006,-0.0458569843549281,0.019449965879321,-0.0605307488083839,0.0727837905287742,-0.0295510552823543,0.0167317874729633
1.0861213378906243,-0.0640195407722145,0.0253548060089349,-0.047787002569437,0.0816220268607139,-0.0315111391246318,0.0123825799673795
1.09608642578125,-0.0437843793319538,0.0203007374897599,-0.0299158303141593,0.1000908017158508,-0.027197778224945,0.0121241398155689
1.1060502929687512,-0.012949315281026,0.0013080138586461,-0.0912690014213323,0.1202788949012756,-0.0357174985110759,0.0136181730777025
1.116014404296875,0.0145674910673871,-0.0041739246837794,-0.1817366233319044,0.136691004037857,-0.0566446781158447,0.0139637952670454
1.1259794921875006,0.0221051565632224,0.0188673436857759,-0.2110527341872453,0.1447268426418304,-0.0733261853456497,0.0191921144723892
1.1359433593750001,0.0258712676310911,0.0288172214224934,-0.1476362008094787,0.1455729901790619,-0.0800534337759018,0.0053783245384693
1.1459082031249999,-0.0673790803331881,0.1021045759513974,-0.0431663570314645,0.1381702125072479,-0.0776033252477645,0.0010333769023418
1.1558723144531253,-0.0771458565879613,0.1327921212904155,0.0357522813826799,0.116384632885456,-0.0676536932587623,-0.0014651450328528
1.1658364257812508,-0.075256608775258,0.1603814083531498,0.1079617775470018,0.0994969978928566,-0.0556084848940372,-0.008409870788455
1.1758010253906264,-0.0963459393594414,0.1243523558557033,0.132393038970232,0.0818168967962265,-0.0496183186769485,-0.0128938490524888
1.18576513671875,-0.0789557920867577,0.0451116458803415,0.1392792913526296,0.0669828206300735,-0.0406485237181186,-0.0115659972652792
1.1957304687499999,0.0013996376648545,0.0049574762769043,0.1567927362114191,0.06370609998703,-0.0445169284939765,-0.0184112302958965
1.2056945800781254,-0.0289195492858067,-0.0106625560507178,0.1019838721811771,0.059185117483139,-0.0508435294032096,-0.0137525629252195
1.2156582031250007,0.011901961652562,-0.1035179498806595,0.0898860226303338,0.0543236024677753,-0.0456393510103225,-0.0129421073943376
1.2256232910156264,0.0098304526081308,-0.0985195570714771,0.1374766258448362,0.0429665520787239,-0.0397372506558895,-0.0087889079004526
1.23558740234375,0.0338352322475984,-0.0862698779597878,0.1652998677939176,0.0354316122829914,-0.0377528108656406,-0.0105882082134485
1.2455522460937498,0.023986915189214,-0.0527289890162646,0.1224836393743753,0.0260911062359809,-0.0324185006320476,-0.0054483073763549
1.2555161132812511,0.0264763939173892,-0.0470355996802449,0.1186485912561416,0.0130687458440661,-0.0254791397601366,-0.0034908014349639
1.2654802246093748,0.0293552738219499,-0.0029237784922122,0.1311889238774776,-0.0022537517361342,-0.0215267427265644,-0.0050631309859454
1.2754455566406264,0.0166757519256323,-0.0083289985366165,0.1428653331458568,-0.0081604728475213,-0.0120990695431828,7.73160718381e-05
1.2854094238281242,0.0205543469246476,-0.0386044559434056,0.0932300723612308,-0.0124721303582191,-0.0093373712152242,0.004546632990241
1.295374267578124,0.0169349143184721,-0.0475350736349821,0.0421370139837265,-0.0123239066451787,-0.0090023698285222,0.0069228336215019
1.3053383789062512,-0.0066653031080961,-0.04933861592561,0.0131797995686531,-0.0115779554471373,-0.012193901464343,0.0055712792091071
1.3153024902343748,-0.0363222267577424,-0.0488001251347363,0.0100882632941007,-0.0041361274197697,-0.0089108748361468,0.0029160922858864
1.3252673339843764,-0.0636500133400782,-0.0516096295975148,0.0164835172891616,-0.0049928659573197,-0.0065566403791308,0.0029933238402009
1.3352312011718759,-0.0414288291817531,-0.0407793157644569,-0.0144137252777814,-0.0033442755229771,-0.0067013315856456,0.0064759249798953
1.3451953125000014,-0.0059955140877515,-0.0394109500207006,-0.0112087917566299,-0.0006044153124094,-0.0099109737202525,0.0132568664848804
1.355158935546875,0.0105074750868603,-0.0480658195108175,-0.0065811319559812,0.0067307641729712,-0.012066762894392,0.0128383990377187
1.3651228027343763,0.0397341175604611,-0.0619483605213463,-0.0329909999758005,0.0087864594534039,-0.0229375194758176,0.0138016641139984
1.375087646484376,0.0290078120911493,-0.0653613838352263,-0.0197585934370756,0.0084061780944466,-0.0283082984387874,0.0108545683324337
1.3850517578125014,0.0057636780932545,-0.0815760210551321,0.0463654453337192,0.0006992556154727,-0.0212274845689535,0.0075016487389802
1.395015625000001,-0.0288099514314904,-0.0670673109702765,0.1123006835341453,-0.003708345349878,-0.0137416832149028,-0.0005912627093493
1.4049804687500007,-0.0681081252600997,-0.0297834361061453,0.1061620346486568,-0.0086098937317729,-0.0055644479580223,-0.0036022327840328
1.4149445800781262,-0.0645494829304516,-0.0244736392602324,0.0434890131145715,-0.010847108438611,-0.0060562160797417,-0.0093557108193635
1.424909912109376,-0.0541040767617523,-0.0222574245154857,-0.0147954180717468,-0.0108194118365645,-0.0084072556346654,-0.0092284120619297
1.4348740234375015,-0.0052923342544585,-0.0068440206758677,-0.0652811582058668,-0.0082201277837157,-0.0169076714664697,-0.0072674159891903
1.444837646484375,0.0276241391804069,0.0166840082973241,-0.0504676199555397,-0.001197637990117,-0.0240159146487712,-0.0018377625383436
1.4548027343750007,0.0378284300696104,-0.0174149529203772,0.01234627135396,-0.0011839335784316,-0.0292486734688282,-0.0028376607224345
1.4647668457031262,0.007644340740703,-0.0717686205290257,0.0813297912091016,-0.0035956921055912,-0.0215244442224502,-0.014065814204514
1.4747314453125,-0.0464438443321734,-0.0802495947569608,0.1489332548826933,-0.0053850789554417,-0.0082026608288288,-0.020049313083291
1.4846955566406255,-0.0764668978804722,-0.0770617585010826,0.1449491536825895,-0.001068627461791,-0.0048649213276803,-0.0232008974999189
1.494659667968751,-0.0689262001773342,-0.0617792875647544,0.0499906500935554,-0.0016077044419944,-0.0104677388444542,-0.0219458900392055
1.5046250000000008,-0.0640996568037196,-0.0609415215663611,0.0051098903596401,0.0060179913416504,-0.0155943240970373,-0.0246854834258556
1.5145886230468761,-0.0591818549500778,-0.0899666866511106,0.0236935947984457,0.0105954008176922,-0.0105750411748886,-0.0208994708955287
1.5245537109375,-0.0606273775832727,-0.0754544694349169,0.0427431631833314,0.0142995910719037,0.0006560422480106,-0.0190946459770202
1.5345178222656255,-0.0367023486491292,-0.0342965296164155,-0.0034983635097742,0.0179027523845434,-0.0004635320510715,-0.0142439296469092
1.544481933593751,0.0073646104838699,-0.0085262746743857,-0.0662204848825931,0.0211968161165714,-0.0077326302416622,-0.0119914272800087
1.5544465332031248,0.0383521982153877,-0.0096264910012483,-0.0913344678729772,0.0267316326498985,-0.0174906440079212,-0.0162091590464115
1.5644106445312502,0.0110936409443616,-0.0224742821365594,-0.0841997936874628,0.0311319753527641,-0.0227937959134578,-0.0158099494874477
1.5743747558593775,-0.0186353615608066,-0.004436813403666,-0.0480693266421556,0.0330908298492431,-0.023298991844058,-0.0125774927437305
1.5843398437500014,-0.0406397611632943,0.0012890168972313,0.0036328035444021,0.0315163657069206,-0.0232318807393312,-0.0066104135476052
1.594303710937501,-0.0660897346423938,-0.0211906720668077,0.0833247644186019,0.0293474216014146,-0.0171010978519916,-0.0113157844170928
1.6042687988281248,-0.0974553253734484,0.0112792266443371,0.1184825870394706,0.0234080385416746,-0.0133329909294843,-0.0093125542625784
1.6142329101562503,-0.0913768457099795,0.0377855407759547,0.0823912829607725,0.0139380721375346,-0.007136920467019,-0.0075220251455903
1.6241965332031238,-0.0576366713346913,0.0166148885838687,0.0681213500678539,0.010278888978064,-0.006475125439465,-0.0097609451040625
1.6341616210937513,-0.0325934885581955,-0.0151397014647722,0.0686819065600633,0.0123270479962229,-0.0060915285721421,-0.0109319649636745
1.644125732421875,-0.0263453879488632,-0.0394620956860482,0.0451034625738859,0.0142679596319794,-0.0052465070039033,-0.0120555534958839
1.6540905761718765,-0.0240359054300934,-0.0636634938761591,0.032398879301548,0.0205876119434833,-0.0107082221657037,-0.016064565628767
1.6640546875000002,-0.0185500944301486,-0.0757571056433022,0.0490676900297403,0.0261970311403274,-0.0118211572989821,-0.0174275711178779
1.6740187988281239,-0.019534502357617,-0.0612156623326241,0.0629576836943626,0.0268826652318239,-0.0156366247683763,-0.0216411277651786
1.6839836425781254,-0.0050002194400876,0.005442921706289,0.0572936665832996,0.022528663277626,-0.0128544215112924,-0.0244377106428146
1.6939477539062509,0.0063174760511145,0.0395493355780839,0.0628343495756387,0.015954915434122,-0.0129729323089122,-0.0297395326197147
1.7039128417968747,-0.0066583984432742,0.0685188249528408,0.1205354279160499,0.0111478483304381,-0.0078269867226481,-0.0400367379188537
1.713876708984376,-0.043533875169605,0.0993358418904244,0.1365378836899995,0.0059064170345664,-0.0031524838414043,-0.0431812033057212
1.7238408203124997,-0.025695509205386,0.1258684595070779,0.0509171172887086,-0.0018982426263391,-0.0055176373571157,-0.0460116118192672
1.7338056640625013,0.0149730396609753,0.08484832072407,0.0020972645401954,-0.0081846192479133,-0.003553801914677,-0.0432257242500782
1.7437695312500008,0.0405036406282335,0.0091918989762663,0.0434258847504854,-0.0080679729580879,-0.0047170706093311,-0.0458020642399787
1.7537336425781263,0.0162127740563824,-0.0601999094188213,0.0480681575983762,-0.008220006711781,-0.0039556329138576,-0.0480101779103279
1.7636987304687501,-0.0050957887690514,-0.1044413483358919,0.0614560469597578,-0.0118863806128501,-0.007225461769849,-0.0401799529790878
1.7736628417968774,-0.008408895372413,-0.1242804596632718,0.1026139867782592,-0.0203553903847932,-0.0060965465381741,-0.0415329188108444
1.7836279296875013,-0.0094108389565721,-0.1250185646794736,0.1632446888297796,-0.0262271277606487,0.0034130690619349,-0.0450493544340133
1.7935915527343749,-0.0420620490513741,-0.1096684353344142,0.1717313621461391,-0.0345371291041374,0.0076157618314027,-0.0444246791303157
1.8035556640625003,-0.0461785079268738,-0.0680459467440843,0.1076508119016885,-0.0424230173230171,0.0080703636631369,-0.0448846071958541
1.8135207519531242,-0.0376086863717064,-0.0070608782969415,0.066148004168272,-0.0480489581823349,0.0035682693123817,-0.0395169593393802
1.8234846191406238,0.0093593644976615,0.0006654781714081,0.0609878449261188,-0.0584278292953968,0.0006742121186107,-0.03654221072793
1.8334497070312512,0.0302775032334029,0.0039222880102694,0.0602764817863702,-0.0625908374786377,0.0033166611101478,-0.0402108430862426
1.843413818359375,0.0110943350641056,0.0084361121729016,0.0810492207020521,-0.0678697526454925,0.010726373642683,-0.0391035005450248
1.8533779296875004,-0.0043537747627124,-0.0305843772254884,0.0850596253871917,-0.0629739686846733,0.0149604519829154,-0.0373253226280212
1.863342529296876,0.0110297088626772,-0.0440859560944139,0.0116968675345182,-0.0510523319244384,0.0105553166940808,-0.0317579843103885
1.8733066406250014,0.0305899667160585,-0.0860955443061888,-0.0757177965462207,-0.0465260073542594,6.70095905661e-05,-0.0388782545924186
1.883270751953125,-0.0132977999251335,-0.0678738050475716,-0.0675865125387907,-0.0404896810650825,-0.0053381421603262,-0.0371607802808284
1.8932358398437508,-0.0298939838085323,-0.0666220514208078,0.0055582186490297,-0.0391496457159519,0.0010688110487535,-0.0350071787834167
1.9031994628906261,-0.0325826383706182,-0.0555269491717219,0.0579687893658876,-0.0349881909787654,0.0090218093246221,-0.039308451116085
1.913164794921876,-0.0705710447749123,-0.0348474414974451,0.0305652341336011,-0.0337649062275886,0.0166849736124277,-0.0366367809474468
1.9231289062500014,-0.0568253914844244,-0.046240942171216,-0.0082557871699333,-0.0283634848892688,0.0097314594313502,-0.0324462987482547
1.9330930175781251,-0.0327784166710451,-0.0561737226426601,-0.0404880777329206,-0.0190439857542514,0.0064068092033267,-0.0284721478819847
1.9430576171875007,-0.0135344947578385,-0.0517430467188358,-0.0865396348118782,0.000151545740664,-0.0032466172706335,-0.0285658910870552
1.9530217285156262,-0.0055810150027275,-0.0646012131176888,-0.1556605173110961,0.0175830349326133,-0.0112043693661689,-0.0282147042453289
1.9629858398437499,-0.0194192054148763,-0.0561450810700654,-0.2012140617400407,0.0282567180693149,-0.0248104594647884,-0.028557188808918
1.9729506835937514,0.0008907382946461,-0.0197664844825863,-0.1617278545260429,0.0317178815603256,-0.0303420890122652,-0.0281176250427961
1.982914550781251,0.0010658026006072,-0.0376863181851804,-0.0830681593090295,0.0322891324758529,-0.0273753274232149,-0.029615918174386
1.9928798828125007,-0.0101553737135604,-0.0749146634697914,-0.0109112701147794,0.0387558192014694,-0.027713282033801,-0.0365513227880001
2.002843994140626,-0.0152443674156442,-0.1041467493034899,0.0037070378243923,0.0382255837321281,-0.0274067521095275,-0.0393191464245319
2.0128076171875,-0.0404418639710172,-0.1443752993173897,0.0548193854242563,0.0414807200431823,-0.0243240017443895,-0.046791024506092
2.0227727050781255,-0.05730696445629,-0.1448060919500887,0.0849012199550867,0.0294054150581359,-0.0177667662501335,-0.0544595941901207
2.032736816406251,-0.0497907070746645,-0.1051943586602806,0.0639648149102926,0.0222122967243194,-0.013203808106482,-0.0642853006720542
2.0427016601562507,-0.0663237991265952,-0.0207609023474156,0.0637976416498422,0.0200364924967288,-0.0207898244261741,-0.0740740150213241
2.05266552734375,-0.0805314804382622,0.0159165310561656,0.1168207913070917,0.0152669111266732,-0.0185212995857,-0.0824144035577774
2.0626296386718774,-0.0730798857906833,-0.0174893333308398,0.1829571050375699,0.0080460151657462,-0.0040483511984348,-0.0923264250159263
2.0725947265625013,-0.0556239798054099,-0.076911828636378,0.1754442451894283,-0.0060629402287304,0.0031431051902472,-0.0970261767506599
2.082558837890625,-0.0163290939124301,-0.1129230532161891,0.091954061076045,-0.009635305032134,-0.0041853813454508,-0.1063275337219238
2.0925239257812507,-0.012127587101981,-0.1058368943475186,0.0459194551318883,-0.0239671189337968,-0.0120097063481807,-0.1098253056406974
2.10248779296875,-0.0194099991951137,-0.1010461529396474,0.0703156452417373,-0.0374232716858387,-0.0148742021992802,-0.1176355555653572
2.1124519042968775,-0.0385177640406414,-0.135349989079684,0.1447241127550602,-0.0567103512585163,-0.0153158763423562,-0.1256694346666336
2.122416748046877,-0.0930582959908992,-0.1387146432071924,0.2304255431771278,-0.0824996009469032,-0.0005422574467957,-0.1378099918365478
2.132380615234375,-0.0999616456385701,-0.1077314759224653,0.3277916924297809,-0.1099155396223068,0.02509031817317,-0.1520919352769851
2.1423447265625004,-0.1271909402824938,0.0265174200475215,0.2930336827814578,-0.1124932169914245,0.0394112020730972,-0.1532711833715438
2.1523095703125,-0.0693450831765308,0.1206324585497379,0.0683621730864048,-0.124862790107727,0.0302547197788953,-0.1574904173612594
2.162273681640624,-0.0125236372148618,0.1570617624111473,-0.0887485430330038,-0.1339513659477234,0.0172560978680849,-0.1763016581535339
2.172239013671877,-0.0349601811569184,0.1591220559418201,-0.0809375770211219,-0.1277968436479568,0.027589039877057,-0.1785140633583068
2.182202636718751,-0.0020629604117944,0.0810251091741025,-0.0752016637176275,-0.1102647185325622,0.035253882408142,-0.175473541021347
2.1921667480468763,0.028227548433654,0.0248917185418307,-0.151126965534687,-0.0847546011209487,0.0204847492277622,-0.1702547222375869
2.2021318359375,0.0538808624651283,-0.0374156845502555,-0.252588859668374,-0.0581134036183357,-0.0002884385176002,-0.1628008037805557
2.2120957031250015,0.0935145153257995,-0.1143554241068661,-0.2590869895160198,-0.0325031168758869,-0.0196994207799434,-0.1560235917568206
2.222059814453125,0.0928910496652126,-0.1634492714911699,-0.1738105065077543,-0.009961056523025,-0.0190599951893091,-0.1509097814559936
2.232024658203125,0.0653203211724758,-0.2106511676490306,-0.0959276408821344,0.0054173758253455,-0.0081953015178442,-0.1433496177196502
2.2419887695312504,0.0612483590258285,-0.2104569602511823,-0.0537473722785711,0.0153195410966873,-0.0019485910888761,-0.1371183693408966
2.25195361328125,0.061142487498559,-0.1612121600888669,-0.0471767617166042,0.0213669575750827,0.0034187843557447,-0.1301462054252624
2.2619177246093773,0.0999166374530643,-0.1095572300449013,-0.0184527715355157,0.0296403355896472,0.0136972544714808,-0.1187830418348312
2.271881835937501,0.1690362047780305,-0.0977658160947263,-0.022381927677989,0.0374280624091625,0.0116918319836258,-0.1127140149474144
2.281846923828125,0.2050748288214206,-0.0745927380390465,-0.0658475599169731,0.0534395202994346,0.0073737828060984,-0.1085147410631179
2.2918105468750003,0.2035092600051313,-0.0564760665901005,-0.1126069730043411,0.0741913691163063,-0.00466347951442,-0.1009651273488998
2.301775634765624,0.2005340070540085,-0.0652357116289436,-0.1635743591755628,0.0915298834443092,-0.0173510462045669,-0.0971802398562431
2.3117397460937514,0.1519260800231248,-0.057996992547065,-0.1060854622811078,0.1007186844944953,-0.0234156139194965,-0.0956553518772125
2.321703613281251,0.1029945835936814,-0.0411208226785063,0.0010731821894645,0.1096892803907394,-0.0178003385663032,-0.0953189954161644
2.331668701171875,0.063592401401326,-0.0445078347682952,0.0739718296617269,0.1093712300062179,-0.0109886499121785,-0.0947763174772262
2.3416328125000003,0.0263221532037481,-0.0210807819515466,0.1224181729227304,0.0995716005563736,0.0007564229890704,-0.0958666130900383
2.351596923828124,0.0032910774346441,-0.0058012336246669,0.1265191785007715,0.0926012098789215,0.0039535672403872,-0.0936686694622039
2.3615617675781237,-0.0011886252626776,-0.0148513860426843,0.0925783304542303,0.0846223756670951,0.001079750014469,-0.0925882309675216
2.371525634765625,-0.0066837886128574,0.0118804074078798,0.0406879842191934,0.0779342278838157,-0.0077014900743961,-0.0866968631744384
2.3814907226562507,0.0223436049615964,0.0104923140503466,0.0139858552545309,0.0676237940788269,-0.01661535538733,-0.0880369618535041
2.391454833984376,0.0307600625859573,-0.0232122410222887,0.0129027361929416,0.0548178181052207,-0.0132468678057193,-0.0883892849087715
2.40141845703125,0.0177537198880687,-0.0675173928253352,0.0796755942612886,0.0448189750313758,-0.0155563615262508,-0.0843639224767685
2.4113835449218772,0.0009277458367869,-0.0963742156058549,0.1352940211087465,0.0326450429856777,-0.0101241674274206,-0.0765219926834106
2.421347656250001,0.0083225322632119,-0.0937162484429776,0.1402344001203775,0.0191252380609512,-0.006440483033657,-0.0741325989365577
2.4313125000000007,0.0406867421101778,-0.1008933004654943,0.1259650517493486,0.0053019290789961,-0.0051691718399524,-0.0711887553334236
2.4412763671875,0.0447077412545681,-0.0816699829488992,0.1352355689197778,-0.0007716761901974,0.0044674761593341,-0.0682132095098495
2.45124072265625,0.0592305529300123,-0.0660017275653779,0.0800222157418727,-0.0027166623622179,0.0039007943123579,-0.062923640012741
2.4612058105468773,0.0750646298671141,-0.0503489620119333,-0.0061304655790328,-0.0020002722740173,0.000569712370634,-0.0612037703394889
2.471169677734375,0.0716571960438042,-0.0381909067064523,-0.0365337871491909,-0.0095550930127501,-0.0007306693587452,-0.0609599091112613
2.4811335449218763,0.0437828814946115,-0.0319429522275924,-0.0024520693272352,-0.0198926851153373,0.0083483131602406,-0.0578581281006336
2.4910986328125,0.0383938088674098,-0.0209742528371512,0.0580564676493406,-0.0250069890171289,0.0185158979147672,-0.0505603998899459
2.501062744140624,0.0430540922960266,-0.0178211956337094,0.060416767039895,-0.0286099798977375,0.0220954529941082,-0.0507646650075912
2.5110275878906254,0.0470341018429026,-0.0504749264791607,0.0213712893307209,-0.0293707363307476,0.0174135528504848,-0.042741946876049
2.520991455078125,0.04898304395359,-0.1059193119339644,0.0191156193584203,-0.0237639844417572,0.0108134411275386,-0.0395288430154323
2.5309555664062504,0.0529565506944432,-0.1357860424093902,0.0124877256512641,-0.0218139104545116,0.0065473020076751,-0.0361317470669746
2.540920654296876,0.037620669070445,-0.1348104753755032,0.0204886612772941,-0.0223199129104614,0.0020185967441648,-0.0277742147445678
2.5508847656249998,0.036203203487955,-0.1145809034258127,0.0325941096127033,-0.022380992770195,-0.0036487942561507,-0.0284511744976043
2.560848632812501,0.0256842571590095,-0.0758002141326665,0.034239538732171,-0.0265823937952518,-0.0070240846835076,-0.02879099547863
2.570813720703125,0.0136170219421386,-0.0492044681519269,0.0492336942464113,-0.0256388038396835,-0.0012423624284565,-0.0319224521517753
2.5807775878906263,0.0187775099778547,-0.0235061094023287,0.038504794961214,-0.0281275287270545,0.0005976157262921,-0.0341802835464477
2.59074267578125,0.021586904842779,-0.0018903437912464,0.0008574936121702,-0.0261913277208805,-0.007019723765552,-0.0353637374937534
2.6007065429687515,0.0366959554409608,-0.0178651809059083,-0.0071919573307037,-0.0232591871172189,-0.008245843462646,-0.032234787940979
2.610670654296877,0.052125397099927,-0.0702719522304832,-0.0061976855963468,-0.019528305158019,-0.0035249798092991,-0.0372579731047153
2.620635742187501,0.0308569105565547,-0.0712691465742886,-0.0211462484031915,-0.0175296030938625,-0.0035132619086652,-0.0426071994006633
2.6305996093750004,0.0140257123408839,0.0055852527864277,0.0019593173742294,-0.0198258236050605,-0.003377970540896,-0.0403609797358512
2.640563720703124,0.0142465520173311,0.0572685321420431,0.053685997480154,-0.0240003280341625,-0.0050416477024555,-0.0452105961740016
2.650528564453124,-0.0279011294908821,0.0749126176431775,0.1111398230612277,-0.0251803621649742,0.007089071907103,-0.048655442893505
2.660492675781251,-0.0100573201665654,0.0462989559687674,0.0862771844834089,-0.0263356398791074,0.0160250421613454,-0.0504144579172134
2.670457763671875,0.0298406461860984,0.0202878780081868,0.027566636839509,-0.0248734727501869,0.0131239788606762,-0.0539974868297576
2.6804216308593762,0.0516220141550526,-0.0173756438232958,-0.0365717810720205,-0.0209109541028738,0.0048314277082681,-0.0505391061305999
2.6903854980468758,0.0661876785915344,-0.0464278430454432,-0.0598263999313116,-0.0089560095220804,-0.0008421498350799,-0.0468325652182102
2.700350830078124,0.0533756894219666,-0.0753279204457998,-0.0266658886075019,0.0018849205225706,-0.005327446386218,-0.0341247580945491
2.710314697265625,0.0443626176113262,-0.0897378463312983,0.0052729719668626,0.0074051199480891,-0.0052377609536051,-0.0244904831051826
2.7202788085937506,0.0475529380852356,-0.0370864525958895,0.0364630600005388,0.006601377390325,0.0003388982731848,-0.0165007337927818
2.7302436523437503,0.0610154270527884,0.0351034620851278,0.0619347703874111,0.003233840689063,0.0051862215623259,-0.0095611792057752
2.740207763671876,0.1000358433859422,0.037652562046051,0.02672550984025,-0.0013585137203335,0.0017984146252274,-0.0044234092347323
2.7501726074218773,0.1172013150572776,0.0074890405811369,0.0077846625268459,-0.0044473726302385,0.0009533719858154,0.0013059736229479
2.760136474609375,0.0904429989259689,-0.0246323369532823,0.0066220484882593,-0.0003860522992908,0.0023552600760012,0.0067846286110579
2.7701005859375005,0.0895186871552839,-0.0802650845870375,0.0058247606307268,0.0037585776299238,0.0070511512458324,0.0150570664554834
2.7800659179687504,0.0725041682619601,-0.1035742101125419,-0.0012374328404664,0.0113355377689003,0.0026830343995243,0.023698491975665
2.79002978515625,0.049429764807783,-0.1007367947295308,-0.0290302796512842,0.0156314373016357,0.000232333317399,0.0358495637774467
2.7999946289062514,0.054195116046071,-0.0819862092912197,-0.0114852706104516,0.0107828872278332,8.4794126451e-05,0.0368690192699432
2.809958740234375,0.0245168573474511,-0.0598443739794194,0.014401450318098,0.0038581797853112,-0.0024065326433628,0.0432210639119148
2.8199228515625006,0.0339422728186473,-0.0741071464791894,0.0794739342093467,-9.18204896152e-05,0.0045816022902727,0.0473548211157321
2.829887451171876,0.0196639739561826,-0.0526319583825767,0.1046586443483829,-0.0081579685211181,0.0105320066213607,0.0473041161894798
2.8398515625,0.0077228128043934,-0.0560708467900753,0.0641910248816013,-0.0072463685646653,0.0054722665809094,0.0453589409589767
2.8498156738281253,0.0265295854093506,-0.0281589036442339,0.0204559280514717,-0.009299399331212,0.0093583511188626,0.0495355725288391
2.859780761718751,0.0646150955125689,-0.0141853233493864,0.0032031799554824,-0.0076900511048734,0.0082211811095476,0.0480735003948211
2.8697446289062505,0.0709343251293525,-0.0285411809600889,0.0032931963264942,-0.0068314615637063,0.0080840084701776,0.0463624633848667
2.879709716796876,0.0654070861404761,-0.0622198709391057,0.0169552264541387,-0.0051339631900191,0.009433964267373,0.0439722761511802
2.8896738281250016,0.0582217777462676,-0.073572601211071,0.0072463178664445,-0.0004508201964199,0.0096214096993207,0.0389680191874504
2.899637451171877,0.0540617354573681,-0.0559274927966296,0.0027191958308219,0.0013095289468765,0.0100848004221916,0.0396788157522678
2.909602539062501,0.058846448983252,-0.0401058004170656,0.0140226801335811,0.0002430025488138,0.0122758848592638,0.0325919240713119
2.9195666503906246,0.046523412374407,-0.0213946702063083,0.0191875155508518,-0.0008488940075039,0.0179353673011064,0.0320462435483932
2.929530761718752,0.037129232291691,0.0049405251421034,-0.0231254395216703,0.00464928150177,0.0223473254591226,0.0341999717056751
2.9394953613281274,0.0466782741425558,0.0076908467635512,-0.0611965192407369,0.0071811489760875,0.0185075793415308,0.0369603373110294
2.949459472656251,0.0518575764765962,-0.0030503274813294,-0.0608791238546371,0.013510525226593,0.0191506706178188,0.0425103046000003
2.959424804687501,0.0764171769872307,-0.0312703136630356,-0.064750996851921,0.0261104740202426,0.0127992983907461,0.0486899055540561
2.969388671875002,0.0928891499690711,-0.0725828595213592,-0.0579839869350194,0.0304598677903413,0.0089348871260881,0.0544729307293891
2.9793525390625,0.0775087716162204,-0.1262063131593167,-0.0142120652258396,0.0365784838795661,0.0129264332354068,0.0590748712420463
2.989317626953124,0.0586878243554383,-0.1441692553512752,0.0128840314924716,0.0399683602154254,0.0143255768343806,0.0648919269442558
2.999281738281251,0.0475234927950426,-0.1440058814831078,0.0361357277423143,0.0439934618771076,0.0157258659601211,0.0711836442351341
3.009245605468749,0.0453319375675171,-0.131524877833575,0.0045446576923131,0.048626460134983,0.0108012109994888,0.0774253532290458
3.0192104492187504,0.0251687819175422,-0.0957166284799575,-0.0283089796394109,0.0537336021661758,0.0096922703087329,0.0814307481050491
3.029174560546874,0.0159246047647669,-0.0431559817679226,-0.0199643451422452,0.0577593147754669,0.0080894771963357,0.0878782868385315
3.0391396484375015,0.0492638701889663,-0.0048692134715616,-0.0205161338061094,0.0647253468632698,0.0041565215215086,0.0951244831085205
3.049103759765625,0.071605137063004,0.0283086873784661,-0.0265600901454687,0.0694735422730445,0.007599517237395,0.0965704470872879
3.0590676269531265,0.0688257354775443,0.0447225004322826,-0.031197686818242,0.0726072788238525,0.0043296883814036,0.1017830520868301
3.0690327148437504,0.084791475970298,0.0212200442917644,-0.0219593183517456,0.0748728662729263,0.0078121405094861,0.1027653887867927
3.0789965820312517,0.1093914815565571,-0.0134026485390961,-0.0246796832263469,0.0815984159708023,0.0056533813476562,0.1114939004182815
3.0889604492187495,0.1348672835966572,-0.064718409756571,-0.0568412466406822,0.090208001434803,-0.0025513253640383,0.1183932423591613
3.098925537109377,0.1333363477023318,-0.1026287459559738,-0.0378811101049184,0.0911265239119529,-0.0077077383175492,0.1203277632594108
3.1088896484375006,0.1092480544978752,-0.0936168797217309,0.0181394678026437,0.078083761036396,-0.0052998308092355,0.1186974495649337
3.1188547363281245,0.0552502145895734,-0.0180542737372219,0.1035895538121461,0.0587428212165832,0.0138733312487602,0.1170255243778228
3.1288188476562517,0.0047618806395679,0.042610622844845,0.2017863086700439,0.0250413194298744,0.0328411646187305,0.1198455393314361
3.1387827148437495,0.0094414898231625,0.0591061228327453,0.2364256603747606,0.000208138488233,0.047627568244934,0.1217571571469307
3.148747558593751,0.0197990350453183,0.0313256971120834,0.181140411004424,-0.0159020368009805,0.0553934685885906,0.1249087527394294
3.1587116699218747,0.0649816272700205,-0.0529056607574224,0.0785802002400159,-0.0154631473124027,0.0457030236721038,0.1301027089357376
3.168675537109376,0.1086986404541879,-0.104857966312766,-0.0259083482384681,-0.0129753947257995,0.0282150264829397,0.1326268464326858
3.178640625,0.1340483684292063,-0.094851389952749,-0.054791912895441,-0.01293864287436,0.0169117711484432,0.1351536512374878
3.188604492187501,0.1101527847852557,-0.0667854252889752,0.0268739784002304,-0.0239387564361095,0.0192520953714847,0.1374994218349456
3.198569824218751,0.0806455718046054,-0.0544508443728089,0.1033773723661899,-0.0392319560050964,0.0252343546599149,0.1345558166503906
3.2085336914062523,0.0448202617183327,-0.0120648240640759,0.1123679035514593,-0.0526455417275428,0.0297363270074129,0.1324669420719146
3.218497802734376,0.0049687283232808,0.0468009141415357,0.1176625028282403,-0.0607351586222648,0.0290665421634912,0.1367583721876144
3.228462646484374,0.0042937882037833,0.0362529243811965,0.1201046352833509,-0.070326067507267,0.0306166261434555,0.134474903345108
3.2384267578125012,0.019734847235307,0.026104455332458,0.092824998691678,-0.0688887611031532,0.0344728827476501,0.1390198469161987
3.248390624999999,0.0481152481431141,0.0262377263233065,0.0339297421306371,-0.0683319866657257,0.0341667011380195,0.1384768486022949
3.2583554687500005,0.0487249044740572,0.0205678639933466,-0.0199918176710605,-0.068179115653038,0.0268248990178108,0.1389804482460022
3.268319580078124,0.0309777969898655,-0.0006467734709382,-0.003064063745737,-0.059061549603939,0.0275202095508575,0.1441649198532104
3.2782846679687516,0.0148636975349858,-0.0358374754481017,-0.0008685995280742,-0.0458599925041198,0.0268972963094711,0.1463095545768737
3.2882487792968753,-1.388239488e-06,-0.0590169832445681,-0.0196621473252773,-0.0355441458523273,0.0199796520173549,0.1544423103332519
3.2982126464843766,0.0248847773443907,-0.0509185785934329,-0.0226741886228322,-0.0376160852611064,0.0132961831986904,0.1630477756261825
3.3081777343750005,0.0458954532017931,-0.0480582207262516,0.024478023174405,-0.0375952050089836,0.018520176410675,0.1638959348201751
3.318141845703124,0.0725740186277777,-0.0536063563726842,0.0505015222251415,-0.0365219488739967,0.0253759548068046,0.1634764820337295
3.3281057128906255,0.0869594311265274,-0.0498711153671145,0.0098345807939767,-0.0421961471438407,0.0243510659784078,0.1602715849876403
3.338070556640627,0.0869659704651683,-0.1132902790933847,0.0035410336077213,-0.0473126135766506,0.0273886676877737,0.1597107201814651
3.3480346679687507,0.0654548342723399,-0.1332866268090903,0.0452776500970125,-0.0456475391983985,0.031522262841463,0.1618815213441848
3.358003173828127,0.0469363770894706,-0.1120095916330814,0.0237941325634717,-0.0431529581546783,0.0351076759397983,0.1622242629528045
3.3679672851562508,0.0514941499916836,-0.099975454968214,-0.0430447764784097,-0.0464459806680679,0.028831098228693,0.1678047478199005
3.3779313964843745,0.0823170486807823,-0.0918975085832178,-0.0246551333069801,-0.0486582703888416,0.0247916169464588,0.1671517342329025
3.387896484375002,0.0807732898375019,-0.0898990282423794,0.0370095879673957,-0.0477076880633831,0.0339533798396587,0.1619527339935302
3.3978601074218773,0.0622911460770294,-0.0839339823581278,0.0579565144062042,-0.0490054488182067,0.0397697240114212,0.1615806818008422
3.407824218750001,0.0503338375080376,-0.0709983668088913,0.0385825363725423,-0.0485729798674583,0.0430890060961246,0.1647698730230331
3.417789550781251,0.0728808195546269,-0.0972543594412505,0.0079781392723321,-0.0453295186161994,0.0421933867037296,0.1614704728126526
3.427753417968752,0.0800298145264387,-0.0557769784100353,-0.00512859506011,-0.0297789070755243,0.0443819724023342,0.1619752347469329
3.43771826171875,0.074247723993659,0.0100482235446572,-0.0729454092234373,-0.0209947358816862,0.038018349558115,0.1619645804166793
3.4476823730468773,0.0775678083270788,-0.0019883973382413,-0.1090519108712673,-0.008411287330091,0.0330297760665416,0.1628226190805435
3.457646484375001,0.0848109478557482,0.0102621585562825,-0.1131914948940277,0.0023670578375458,0.0246669165790081,0.1640761792659759
3.4676110839843766,0.1001087624916806,0.019804478405416,-0.1104039100021123,0.009734321385622,0.0184849426150321,0.1677524447441101
3.4775751953125003,0.1051892440937459,-0.0023369185149669,-0.0505634815454483,0.0150198973715305,0.0183504540473222,0.1679833382368087
3.487539306640624,0.0884710412658751,-0.017202771474421,0.038875966361165,0.0123341800644993,0.0238974895328283,0.1663050651550293
3.4975046386718773,0.0543860355082899,-0.0182777072295546,0.0867184985101223,0.0099562434479594,0.0291284695267677,0.1669551432132721
3.507468261718749,0.0296045724079012,-0.0054326925732195,0.0846194804042577,0.0087938318029046,0.0314687117934227,0.1693305522203445
3.5174323730468764,0.0427313631476834,-0.0119514268174767,0.0950315688252449,-0.00159382680431,0.0327140055596828,0.1682543605566024
3.5273974609375003,0.0521493624974042,-0.0334099560402333,0.1103787755608558,-0.0090702204033732,0.0390771403908729,0.1662130355834961
3.537361572265624,0.0415578989215195,-0.0127681500278413,0.1148176347911357,-0.0073274476453661,0.0484765022993087,0.1668242216110229
3.5473261718749995,0.0411773751713335,0.0170011114224791,0.0604068301677703,-0.0199781563133001,0.0426907204091548,0.1748176515102386
3.557290283203127,0.0946398295613005,0.0022121230915188,0.0263584300935268,-0.0230280086398124,0.0405639223754406,0.1791096031665802
3.5672543945312505,0.1202221241831779,-0.018799100755155,0.0354319633871316,-0.0229175835847854,0.035869400948286,0.1844192296266555
3.5772194824218744,0.0941656361782923,-0.0213068457923829,0.0026303485035896,-0.0258196294307708,0.0356773845851421,0.1874722838401794
3.5871833496093757,0.0590184080166742,-0.0536719689548015,0.0316734876364469,-0.0274398811161518,0.0413459278643131,0.1940645426511764
3.5971474609374994,0.0272874180393293,-0.0698946433506906,0.088423548862338,-0.0288542844355106,0.05037297680974,0.201639637351036
3.607112548828127,0.0321681027529761,-0.0776603089161217,0.0820031604260206,-0.0324583537876606,0.0504320785403251,0.2109000384807586
3.617076171875002,0.0369968380836769,-0.069461220369488,0.0304325476646423,-0.0321861803531646,0.0514621920883655,0.2187172025442123
3.627041259765626,0.0523926332013681,-0.0553827183954417,0.0038256957679986,-0.0266854595392942,0.0482996255159378,0.2258308976888656
3.6370053710937498,0.0511448616299778,-0.0545078352570533,-0.0159001644432544,-0.0282210372388362,0.0463326163589954,0.2320179492235183
3.646969482421877,0.0597599836315959,-0.0509744004338979,-0.0230728325515985,-0.0300900414586067,0.044547189027071,0.2388292402029037
3.656934082031249,0.0656435617774724,-0.0595737403444945,-0.0061678749799728,-0.0248699821531772,0.0456811636686325,0.243404820561409
3.666898437500002,0.0623846695793792,-0.0944315571054816,0.0006745382606983,-0.0224289037287235,0.042060412466526,0.2443751990795135
3.676862548828126,0.031131124388054,-0.1222033611282706,0.0360451268494129,-0.0224917531013488,0.0422769263386726,0.2438090145587921
3.686827392578124,-0.01006166754812,-0.0780525231041014,0.0529892473876476,-0.02273965254426,0.0421765893697738,0.24704010784626
3.696791259765625,-0.024616299133934,-0.0309347980983555,0.0727080933362245,-0.0261277258396148,0.0460051484405994,0.2448411285877227
3.706756347656249,-0.0300867299016565,-0.0052164194740355,0.1013105029642581,-0.0312302820384502,0.052703958004713,0.2388161420822143
3.7167204589843763,-0.047254320464842,0.047304918140918,0.0992822120070457,-0.0341640189290046,0.0575924552977085,0.2366288900375366
3.726684326171874,-0.0286048573134467,0.0728052701003849,0.049137248134613,-0.0404410921037197,0.0535604320466518,0.2318586409091949
3.7366491699218756,-0.0050468350607901,0.0467152816846966,0.0121054483354091,-0.0414751954376697,0.0475550033152103,0.2234505116939544
3.7466132812499993,-0.0064911886502057,0.0426987395197153,0.0219429517388343,-0.041428692638874,0.0419272556900978,0.2175483703613281
3.756577636718749,-0.0138766957916319,-0.0073274202786386,0.0552460864037275,-0.042418323457241,0.0499534904956817,0.211686760187149
3.7665424804687504,-0.0303868088267743,-0.0398512411341071,0.0563631077349185,-0.0429212488234043,0.0562314018607139,0.2051493376493454
3.7765063476562517,-0.0500187436768785,-0.0064350014835596,0.0416816714316606,-0.0350239090621471,0.0542031377553939,0.198247492313385
3.7864704589843754,-0.0607284633375704,0.0535598868824541,0.0160603234410285,-0.0220585092902183,0.0465317368507385,0.1952980905771255
3.796435302734377,-0.054066192436777,0.0962055810406804,0.0226017079085111,-0.0148418759927153,0.0437236987054348,0.1950448304414749
3.8063991699218747,-0.022442243030481,0.0501737515754997,0.0502764812976121,-0.0076786768622696,0.0512545481324195,0.1836640834808349
3.816364257812502,-0.0110345311682671,0.0228929459400475,0.068995794814825,-0.0017329035326838,0.0542367547750473,0.1762122809886932
3.826328369140626,-0.0042645255766808,-0.0002761865928769,0.0036374797195196,0.0029237857088446,0.0496750622987747,0.1743620336055755
3.836292236328127,-0.0067632470572367,0.0033997254408895,-0.0504810639590024,0.0015173703432083,0.0466204173862934,0.1683656573295593
3.846257568359377,-0.0320605141926556,-0.0231771697089076,-0.0159241298407316,0.0071994820609688,0.0498963333666324,0.1646662354469299
3.8562214355468747,-0.0654300651572644,-0.0789464032039046,0.0393026673406362,0.0139085175469517,0.0541057251393795,0.1666218042373657
3.866185546875002,-0.0699082334846258,-0.0834944218970835,0.0472878208756446,0.0188259929418563,0.0541607737541198,0.1702574491500854
3.876150390625,-0.0278281738525256,-0.0695982907526195,0.0102186116755008,0.0180046744644641,0.0526877790689468,0.1738021075725555
3.886114257812501,0.0277131326381117,-0.056618689931184,-0.0234270528167486,0.0200456008315086,0.0482727885246276,0.1718234717845916
3.896079345703125,0.069282758530043,-0.0572933743223547,-0.0300929404467344,0.01578214392066,0.0443491525948047,0.172597125172615
3.9060432128906264,0.0676468644239008,-0.0372423738099634,-0.0200847566515207,0.0141970058903098,0.0448726899921894,0.1713124811649322
3.91600732421875,0.0491952619321644,-0.0389822032146155,-0.0186199447959661,0.0160633474588394,0.0396976359188556,0.1727905422449112
3.925972412109374,0.0143181194161996,-0.0371446125239133,-0.0235994867742061,0.0166476443409919,0.0385729819536209,0.1760273426771164
3.9359362792968753,-0.0125321858474984,-0.0520620495401322,-0.0039864392876625,0.0109857646748423,0.0432731956243515,0.1828250586986541
3.945900390624999,-0.0228762870661914,-0.0731765876308083,0.0504325486421585,0.0058820713311433,0.0431394837796688,0.1842392385005951
3.9558654785156264,-0.0383796342115849,-0.0827215378284454,0.0934866774708032,0.0043747220188379,0.0485811233520507,0.1872408986091613
3.965829345703124,-0.0437077338991686,-0.1002777989156544,0.073328271061182,-0.0010193609632551,0.0527519360184669,0.187870055437088
3.9757934570312514,-0.0440644383823499,-0.1220958091005682,0.0571159719288349,-0.0061028026975691,0.0537783168256282,0.1886117458343505
3.9857583007812494,-0.0464104900518432,-0.11164382706061,0.0731599287569522,-0.0075913933105766,0.0577067099511623,0.1849162280559539
3.9957221679687507,-0.0361818684389814,-0.0583253477185964,0.0699491500169038,-0.013225576840341,0.0599416345357894,0.1876491606235504
4.005687255859375,-0.0293385784154757,-0.0280329391770064,0.0478022001385688,-0.0217582173645496,0.0612519048154354,0.1878280639648437
4.015651367187502,-0.0154278707563877,-0.0429701038070023,0.0517769489884376,-0.0196063835173845,0.0628902837634086,0.1859428137540817
4.0256154785156255,-0.0041458311004564,-0.0667700815893709,0.0274941561251878,-0.0242578610777854,0.0577048435807228,0.1900131851434707
4.035580566406249,0.0254225009502843,-0.0892336962014436,-0.0298263984650373,-0.0198119804263114,0.0504274889826774,0.1918853968381881
4.045544189453125,0.0257993349060416,-0.101117756871134,-0.0174129070937633,-0.0209098495543003,0.0460008047521114,0.1913391947746276
4.055508300781252,0.0220865249279886,-0.0547549418859183,0.0351437940955162,-0.0236260071396827,0.044093981385231,0.1915703564882278
4.065473388671876,0.0109650095960125,-0.0042734395354986,0.0862894594430923,-0.0319847203791141,0.0490544289350509,0.1913880258798599
4.075437255859377,-0.0138144076777622,0.0219037887722253,0.0781266112536192,-0.0407406650483608,0.0560817047953605,0.1957151293754577
4.085402343750001,0.0080471859205514,-0.0170740305282175,0.056934770143032,-0.0453367084264755,0.0532566905021667,0.1943424046039581
4.095366455078125,0.0146999948732554,-0.0552368801839649,0.0364414326906204,-0.0518974065780639,0.0551267638802528,0.1977022439241409
4.105330566406252,0.0095990915376693,-0.1123188037127256,0.0248263982206583,-0.0533964894711971,0.0526412725448608,0.2019369900226593
4.115295166015624,0.012641893299669,-0.1517167481213808,0.0007826748102903,-0.0492195896804332,0.0464494228363037,0.2012898474931717
4.125259277343751,-0.0082042031131684,-0.1455861364118754,-0.0275163679569959,-0.0409280657768249,0.040872823446989,0.2037552446126938
4.135223388671875,-0.01800648907274,-0.1211715338625013,-0.0236900876671075,-0.0416095703840255,0.0396831892430782,0.2066844552755355
4.145188476562499,-0.0337918680299073,-0.0807630972370505,-0.0047989247143268,-0.0387315601110458,0.0485662892460823,0.2042665034532547
4.155152099609374,-0.0412055783525109,-0.0523028725586831,-0.0260188228756189,-0.0250128209590911,0.046742558479309,0.2056420147418975
4.1651162109375015,-0.0335872123032808,-0.0500770132027566,-0.0913736308395862,-0.016348585486412,0.0339064672589302,0.2094325125217437
4.175081542968751,-0.0085207947816699,-0.0479936310574412,-0.1190665244072675,-0.0029464936815202,0.0252469331026077,0.2062127441167831
4.185045654296875,-0.0082365710128098,-0.0159650463730096,-0.1148708262830972,0.0061180656775832,0.0203628614544868,0.2014226466417312
4.195010253906251,-0.0314381079779937,0.0095735917702317,-0.0708610041648149,0.0166687108576297,0.0173215307295322,0.1952409148216247
4.204974365234374,-0.0482530857112258,0.0168713475629687,-0.0440408017784357,0.0211015976965427,0.0234131012111902,0.1911506652832031
4.2149384765625015,-0.0717545920036733,0.032379151687771,-0.0235433726727962,0.0325976647436618,0.016273433342576,0.1887077540159225
4.2249033203124995,-0.0688376816436648,0.0265492764905095,-0.0610515578120946,0.0396739766001701,0.0086579173803329,0.1841340363025665
4.234867187500001,-0.0602345788734033,0.0003996668420732,-0.0751128163903951,0.0434583276510238,-0.0013963151723146,0.1829220354557037
4.2448312988281245,-0.0611500862831249,-0.0219422210864722,-0.0477075075924396,0.0401536077260971,-0.0037878337316215,0.1799595355987548
4.254796386718752,-0.077626114385575,-0.0527886102490127,0.0248293208301067,0.0373907722532749,-0.0109446896240115,0.1788731515407562
4.26476025390625,-0.1224886808756738,-0.0637973493888974,0.0884258869498968,0.0337392538785934,-0.005458166822791,0.1744082272052765
4.274724365234377,-0.1420476600874215,-0.0633310470513999,0.0910591580629348,0.0275338254868984,-0.0002237234730273,0.1691839098930359
4.284689453125001,-0.1512000673035159,-0.0375131535753607,0.0719458767920732,0.0168899688869714,0.0001283462624996,0.1673543155193328
4.2946535644531245,-0.1543347120674326,-0.0152254800520837,0.0451519778907299,0.0148931294679641,0.0008990651695057,0.1630754172801971
4.304618408203126,-0.1416718855775892,0.0199339500039815,-0.0004383914172649,0.0133085213601589,-0.0040425118058919,0.1575997620820999
4.314582275390627,-0.1319013099305331,0.0221329213529825,-0.0257739082038402,0.0115297958254814,-0.0081017017364501,0.152508333325386
4.324546386718751,-0.1369271022032946,-0.0032860359333455,-0.0453939699530601,0.0080900099128484,-0.0114190010353922,0.146254688501358
4.334511230468749,-0.1214380758441984,-0.0067616030894219,-0.0397252766668796,0.0003948062658309,-0.0141913518309593,0.1420120000839233
4.34447509765625,-0.1244209275798872,0.0084340663462877,0.0196796829819679,0.0082650007680058,-0.0140184881165623,0.1396980732679367
4.354436035156251,-0.1349756028093397,-0.0161588153794407,0.0294254164487123,0.0161932297050952,-0.0205773189663887,0.137400820851326
4.364401123046875,-0.1225239713847637,-0.0477592377796769,0.0537134700089693,0.0185167323797941,-0.0156884957104921,0.1317549794912338
4.374365234375002,-0.1257410337351262,-0.0557856001079082,0.0489151298165321,0.0206344798207283,-0.01392681337893,0.1228728145360946
4.384329345703126,-0.1089645248487591,-0.0402444782353937,0.0448462729424238,0.0201992001384496,-0.0107328444719314,0.1166003793478012
4.39429443359375,-0.0850240426171571,-0.0292607274062931,0.0095493341118097,0.018672676756978,-0.0156679470092058,0.1110844388604164
4.404258300781251,-0.0654333530928939,-0.0106814068816602,-0.0036918402552604,0.0148178692907094,-0.0272346306592226,0.1046501398086547
4.414223144531249,-0.076018715721555,-0.0309755685001611,0.0052624505728483,0.017407527193427,-0.0317753180861473,0.0957639664411544
4.424187255859376,-0.1068143976101651,-0.0370867448568344,0.0397153397947549,0.0226933136582374,-0.0274544619023799,0.0870814099907875
4.434151123046874,-0.1248588075404986,-0.0133982646249234,0.0589320814400911,0.0315893366932868,-0.0220860615372657,0.0770016089081764
4.444116210937501,-0.1217182079598307,0.041831162904948,0.0458732779026031,0.0312413051724433,-0.0185263808816671,0.0680066794157028
4.454080322265625,-0.0896845817741006,0.0790060244366526,-0.0062713353544473,0.0335713028907775,-0.0179868228733539,0.0540469251573085
4.464044433593752,-0.0508895351620391,0.0820564980484545,-0.0515612604111433,0.0338939726352691,-0.0236417185515165,0.0453230030834674
4.474009033203124,-0.0265873800111934,0.0591426554508507,-0.070062547263503,0.0394826158881187,-0.0302250515669584,0.0354341529309749
4.483973144531252,-0.0433829223915934,0.0230710789859294,-0.0864531255722045,0.0469255074858665,-0.0334692746400833,0.0197184104472398
4.493937255859375,-0.103577388450317,0.0278406314752995,-0.0816881031274795,0.0392247103154659,-0.0357007384300231,0.011378988623619
4.503902343749999,-0.1125885605648159,0.0143846453137695,0.0213145907074213,0.0318245477974414,-0.021251305937767,0.0083893807604908
4.5138662109375005,-0.0928891865016892,-0.0185563780404627,0.08319792316854,0.0296681858599185,-0.0092833265662193,-0.0012970683164894
4.523831298828124,-0.0992346830708906,-0.060838207322359,0.0273082781642675,0.0300035998225212,-0.0143300564959645,-0.0079612005501985
4.533795410156252,-0.0669596493447199,-0.1074948906876146,-0.0351636678397655,0.0321548990905284,-0.0204385481774806,-0.0116230472922325
4.543759521484375,-0.0426410179831087,-0.0572783228836953,-0.0343874227702617,0.0374342463910579,-0.0148668894544243,-0.0112938210368156
4.553724121093751,-0.0018773016465827,-0.0351401408337056,-0.0434668012827634,0.0458415783941745,-0.0180363170802593,-0.0116368364542722
4.563688232421875,0.0155309658046811,-0.0382690865091979,-0.0869768571853637,0.0543363168835639,-0.0251423064619302,-0.0144085343927145
4.573652343750002,-0.0103754096724092,-0.023566169026494,-0.0839928729385137,0.066511757671833,-0.0305671673268079,-0.0236331913620233
4.5836171875,-0.055292373230867,0.0078049746625125,-0.020151392146945,0.0622947476804256,-0.0268009863793849,-0.0232201945036649
4.593581054687501,-0.0466006788616999,0.0275409178763628,0.0581394697576761,0.0554642714560031,-0.0213036891072988,-0.0270295813679695
4.603546142578125,-0.0340855172142386,0.0365047071851789,0.0835480517804622,0.0490969754755497,-0.0140408594161272,-0.0325659066438674
4.613510498046875,-0.014817666436173,0.0367192267186939,0.1005155531942844,0.0440106056630611,-0.0159447528421878,-0.0369880869984626
4.62347412109375,0.0025090967440977,0.027056495360285,0.0942220060080289,0.0411085970699787,-0.0142812635749578,-0.0408337451517581
4.633439208984374,0.0023315482201054,-0.014203881919384,0.1072767178922891,0.0404542610049247,-0.0075663686729967,-0.0384528785943985
4.643403320312501,0.0181951800452545,-0.0546833379544317,0.074943305042386,0.0434598624706268,-0.007357123773545,-0.0400171652436256
4.653367431640625,0.0193257915103808,-0.0456866692893207,0.0232651402533054,0.0440990217030048,-0.011805135756731,-0.040252324193716
4.66333203125,0.0207001851361244,-0.0324973712399601,0.0229191032946109,0.0430069416761398,-0.0130939418449997,-0.0416198261082172
4.673296142578124,0.0351384238006547,-0.0055560266919434,0.0652414107173681,0.0391813106834888,-0.0066216615960001,-0.0430012084543705
4.683260253906251,0.0275714226124808,0.0282686476290225,0.1063011508584022,0.0316274277865886,0.0028906988445669,-0.0494513697922229
4.693225097656249,0.03798077108711,0.0227573368616402,0.1044125606328248,0.0235165022313594,0.0058236382901668,-0.0530612841248512
4.703188964843751,0.03961034505032,-0.0091864921487867,0.1093751514762639,0.0189161412417888,0.0103216571733355,-0.0595074519515037
4.713154296875,0.0278055601619184,-0.0394352076791226,0.077985156956315,0.0205244235694408,0.0116721466183662,-0.0611540824174881
4.723118408203124,0.0296280994139611,-0.085339757502824,0.0414355877161026,0.0252620466053485,0.0089988633990287,-0.0596595928072929
4.733082275390625,0.0507129364861175,-0.1044558152526617,-0.0189829328894615,0.0294261649250984,0.0027228586841374,-0.0559479445219039
4.743047119140627,0.0696843250682577,-0.0799060420162975,-0.0724134943038225,0.0336154885590076,-0.0096048321574926,-0.0571287721395492
4.753011230468751,0.0692498791737482,-0.0540643292732536,-0.0827308901786804,0.0323448963463306,-0.0175535678863525,-0.063596524298191
4.762975341796874,0.0278346766585484,-0.0204208567380905,-0.0117383685886859,0.0297006778419017,-0.0112308952957391,-0.0616000890731811
4.772940185546876,0.0260696762800216,-0.0062858022712171,0.0658732788801193,0.0216094627976417,0.0003056516870856,-0.0652808472514152
4.782904052734377,0.0226991404009982,0.0069369596563279,0.0363794733703136,0.0249506384134292,0.0020081640686839,-0.06573336571455
4.792868164062501,0.0281539352081716,0.0497176783710718,-0.0184141930907964,0.0256654322147369,-0.0041123125702142,-0.0667440369725227
4.802833251953125,0.0611116174362599,0.0753727825008332,-0.0593470919817686,0.0303801894187927,-0.0045926813036203,-0.0621344372630119
4.812797119140626,0.0884754251800477,0.0507595886394381,-0.0545814850151538,0.0349930487573146,-0.0099408412352204,-0.069045603275299
4.82276220703125,0.0423575613992288,0.0313090382382273,-0.0102548520326614,0.0292701125144958,-0.0100600272417068,-0.0687284991145134
4.832726318359377,0.0478378925064578,-0.0465520539470016,0.0493920996785163,0.0245571173727512,-0.0035472665913403,-0.0638613030314445
4.842690185546875,0.0495559484707191,-0.0901760916180908,0.0763800598472356,0.0297473222017288,-0.0019164278637617,-0.0655315816402435
4.852655029296876,0.0221112209778279,-0.0881988001957535,0.0250970318555831,0.0276487506926059,-0.0112209804356098,-0.0602665096521377
4.862619140625,0.0277556200729683,-0.0725805214338004,0.0301958162993192,0.0220621712505817,-0.0137087823823094,-0.0584420524537563
4.872583251953127,0.0336759135000407,-0.0278488147817552,0.0753828655034303,0.0127629460766911,-0.012844587676227,-0.0597733668982982
4.882548339843751,0.0274229905851185,0.0032461423143744,0.1123708261609077,0.003865098580718,-0.0091235153377056,-0.0656662508845329
4.892512207031249,-0.0020414061671122,0.0013129822947084,0.1209416706293821,-0.0060810092836618,-0.0075525166466832,-0.0716162845492363
4.90247729492188,-0.0452204034844413,-0.0474732604451477,0.148937346535921,-0.0232527516782283,0.0051657566800713,-0.0773923248052597
4.912441162109374,-0.0367717240909114,-0.0765321816690266,0.1586924323529005,-0.0308696571737527,0.0174221564084291,-0.0783928781747818
4.9224052734375014,-0.0220884976893663,-0.0330370310746133,0.0896434460461139,-0.0298403687775135,0.0091639589518308,-0.0798500329256057
4.932370117187499,-0.0181472127176821,0.0118279465682804,0.0207458509087562,-0.0252301692962646,0.0028850245289504,-0.079098492860794
4.942334228515623,0.0057922100679948,-0.0222917651765048,-0.0233989957660436,-0.0202237851917743,0.0033034887164831,-0.0781834125518798
4.952298095703124,0.0401383144471794,-0.0407918829850852,-0.0594897153228521,-0.0112207038328051,0.0044116303324699,-0.0797091424465179
4.962263427734374,0.068767064092867,-0.0419590270683169,-0.0949386298447847,-0.0084661096334457,-0.0005057514645159,-0.0813853815197944
4.9722272949218755,0.0779800789223983,-0.0400933793269097,-0.0849222627431154,-0.0055464869365096,-0.0027752972673624,-0.0806133300065994
4.982191406249999,0.0390271748675033,-0.0619147505126893,-0.0522737925946712,0.0047273486852645,-0.0008681286126375,-0.079260841012001
4.992156250000001,0.0154105908280238,-0.119988899949193,-0.0199105691283941,0.0084840040653944,-0.0055944407358765,-0.0740836560726165
