time,ax,ay,az,gx,gy,gz
0.0,0.0455407580126076,-0.0129043436281383,-0.0476169066995382,0.0253758430480957,-0.0035004743840545,-0.0399695709347724
0.009963867187501307,0.0793701450413092,-0.0105015202701091,-0.0956850642979145,0.0228276476263999,-0.0109662599861621,-0.0407242663204669
0.019928955078121646,0.0982193320158869,-0.0286965176522731,-0.0547159250497817,0.0240574926137924,-0.0151037462055683,-0.0376597680151462
0.029893066406252444,0.1042948890699073,-0.0573037495858967,-0.0056669397205114,0.0260761231184005,-0.0209743212908506,-0.0366248041391372
0.03985815429687278,0.0946440673450008,-0.0610432283751666,0.0263490777432918,0.0219607409089803,-0.0131267830729484,-0.0357113406062126
0.04982202148437409,0.0832784410588443,-0.0830323573432862,0.0542003767430782,0.0221395753324031,-0.0102712288498878,-0.0275461040437221
0.059786865234372044,0.0873687425797805,-0.1120436400331556,0.0499836358308792,0.0251705199480056,-0.0060043120756745,-0.0172687005251646
0.06975097656250284,0.0957884150745347,-0.1191157703764736,0.0267611656755208,0.0244560427963733,-0.0129784327000379,-0.0077671338804066
0.0797158203125008,0.0901789776949211,-0.1153713231511414,0.0306985051244497,0.0199981797486543,-0.0142817832529544,0.0018181153573095
0.0896796875000021,0.0685293463468551,-0.1315802612826228,0.0520434909701347,0.0170479081571102,-0.0141333639621734,0.0115224821493029
0.09964501953125193,0.0578568899566307,-0.1420300513654947,0.0751975720643997,0.0174463167786598,-0.0093500595539808,0.0190038345754146
0.10960913085938273,0.0455578187452629,-0.0995337025500834,0.0810001208633184,0.0120972590520977,-0.0056068920530378,0.0304921735078096
0.11957397460938068,0.0342265696527436,-0.0516257039494812,0.082886373001337,0.0064175352454185,-0.0037994044832885,0.0352507084608078
0.1295378417968749,0.0250991142148152,-0.0080114570200443,0.0664969637364149,0.0018789768218994,-0.0038265688344836,0.0405285619199276
0.13950292968750233,0.0061194692609831,0.0101622053131461,0.0462526326090097,-0.0001671304926276,-0.0061046364717185,0.0472951233386993
0.14946679687499653,0.0151560315450653,0.0162748429745435,0.021249708777666,-0.012275792658329,-0.0117810871452093,0.0468543767929077
0.15943212890624636,-0.0055699456194415,0.0151277187660336,0.0409825832515955,-0.0240094140172004,-0.0076031205244362,0.0464061684906482
0.16939624023437716,-0.0186169856538996,-0.0008010872498154,0.1085480530023574,-0.0338144339621067,0.0013717681868001,0.0422942191362381
0.17936083984375273,-0.0377660323578864,-0.0256987971410155,0.1060924765437841,-0.0450790710747242,0.0142468195408582,0.0395058915019035
0.18932495117187642,-0.0375359864616766,-0.0334485344849526,0.0578255815029144,-0.04845916852355,0.0187647249549627,0.036592774093151
0.19929003906249676,-0.0412940238209441,-0.00156651866436,-0.0018915128350257,-0.0494898110628128,0.0114639336243271,0.0342878103256225
0.20925415039062756,-0.0341757162483409,0.0237000245392322,-0.0371224006921052,-0.0449730791151523,0.0100781079381704,0.0293873902410268
0.21921875000000313,-0.0204802587751299,0.046055210340768,-0.0569517212778329,-0.045449785888195,0.0045344717800617,0.0288984328508377
0.22918286132812682,-0.0158877433530986,0.0718074912346899,-0.0510579870641231,-0.0442358180880546,0.0022632996551692,0.0249818135052919
0.23914794921874716,-0.0087981504183262,0.0888105023533105,-0.020065467429161,-0.0411987490952014,-0.0028491707053035,0.0229665990918874
0.24911206054687796,-0.0201555203327909,0.0921504604309797,-0.0204798934489488,-0.0407672524452209,-0.0061295302584767,0.0177520345896482
0.2590769042968759,-0.0221034029975533,0.0562637390136718,-0.0096639004021883,-0.0409581959247589,-0.006128198467195,0.0175251327455043
0.2690410156249996,-0.00906841872707,-0.0083479954980313,-0.0050865094840526,-0.0347101166844368,-0.0087737739086151,0.0137996999546885
0.27900585937499756,-0.0241635869303718,-0.0648969811938703,-0.0229559281736612,-0.026972834020853,-0.0186684820801019,0.0048839692026376
0.28896997070312835,-0.0377982541270554,-0.1511396788857877,-0.0408218397319316,-0.0164045132696628,-0.021459836512804,0.0014998950064182
0.2989350585937487,-0.0405692532103508,-0.1367977036699652,-0.0405652346223592,-0.0139394905418157,-0.0215469226241111,-0.0051982207223773
0.30889892578125,-0.0399643095871433,-0.0472571334764361,-0.0284252994954586,-0.0078747309744358,-0.0238667670637369,-0.0153480879962444
0.31886401367187744,-0.0405373785010539,0.0452243124745786,-0.0144230776280164,0.0039363885298371,-0.0234358664602041,-0.0262651853263378
0.32882812500000114,-0.0287094501990824,0.1125776007793843,0.0181324535399675,0.0092817731201648,-0.0140230543911457,-0.0407809764146804
0.3387929687499991,-0.0276184035593643,0.1501150120131671,0.0028285014241933,0.0135936979204416,-0.0116270091384649,-0.0502200201153755
0.34875781249999704,0.008957852758374,0.1728330397777259,-0.024153613525629,0.0183020122349262,-0.0073743425309658,-0.0575498677790164
0.35872192382812784,0.0450128068820573,0.1188752396188676,-0.0289496156305074,0.0127104390412569,-0.0048459377139806,-0.0705764517188072
0.3686870117187482,0.0433273562794551,0.0466954079404473,0.0093657942384481,0.0166438333690166,-0.0041884714737534,-0.0772864371538162
0.3786511230468719,0.0175770481469109,-0.0138427935220301,0.0552332269221544,0.0182933956384658,0.0044177998788654,-0.0750709474086761
0.3886162109374993,0.0003435162080451,-0.0453571450740098,0.0527583612412214,0.015449478290975,0.000373141374439,-0.0742989480495452
0.39857983398437824,-0.0103793551951646,-0.0825698543980717,0.054859132912755,0.0149184437468647,-0.0015446008183062,-0.0679244101047515
0.4085449218749986,-0.0100929760018363,-0.0823122263751924,0.0517214194089174,0.0114121902734041,-0.0056097926571965,-0.0623893924057483
0.41850903320312227,0.0095493341118097,-0.0981428327135741,0.0273877731412649,-0.0011067972518503,-0.0101504819467663,-0.0579344518482685
0.42847363281249784,0.0379721859218552,-0.0762776223860681,0.0378764339298009,-0.009090632200241,-0.0139987841248512,-0.0539000034332275
0.43843774414062153,0.0456490406926721,-0.0625154928848147,0.051992637565732,-0.0222085639834404,-0.0161375682801008,-0.0468602031469345
0.44840307617187136,0.0551678700683638,-0.01585705595389,0.0663502487421035,-0.0321364849805831,-0.0132738854736089,-0.0441178679466247
0.45836694335937267,0.0688377912415191,0.0152889006771147,0.0907183818012476,-0.0488451570272445,-0.0098703652620315,-0.0456571727991104
0.4683320312500001,0.090540394885838,0.0064037295624613,0.1431096632957458,-0.0510404258966445,-0.0022260497789829,-0.0475645810365676
0.4782958984375014,0.0891467485703527,-0.0200021929346024,0.1919558195292949,-0.0535784140229225,0.005041716620326,-0.0504873991012573
0.4882607421874994,0.0482244441386312,-0.0529591445103287,0.1691770014882087,-0.047675359994173,0.0116193275898695,-0.042786568403244
0.49822485351562307,-0.0023749124377965,-0.0875869519077241,0.0855301655083894,-0.0399695038795471,0.0170516446232795,-0.0402043685317039
0.5081901855468729,-0.0544308975633233,-0.1044245433315634,-0.0155874452322721,-0.0258843712508678,0.0194200277328491,-0.0247554015368223
0.5181540527343742,-0.0670223027847707,-0.075063570421189,-0.1150379995435476,-0.0149212013930082,0.0133245857432484,-0.0120044518262147
0.5281188964843722,-0.0774174035383388,-0.0335923268698155,-0.1779857463657856,-0.0064380066469311,0.0045082494616508,0.0045199519954621
0.538083007812503,-0.0680036419723182,0.0196067638762295,-0.171875154531002,-0.0062657003290951,-0.0045683356001973,0.009161309339106
0.5480480957031233,-0.0492936442727223,0.0311789821177721,-0.1230629005670547,-0.0086862379685044,-0.0057782502844929,0.0166756473481655
0.5580117187500022,-0.0386462492585182,-0.0148778356581926,-0.0589630611002445,-0.0087437620386481,-0.0118918027728796,0.0188919305801391
0.5679768066406226,-0.0238717643769457,-0.083996087808907,0.0017500585377216,-0.0127665940672159,-0.0186934042721986,0.0173499416559934
0.5779409179687534,-0.0030458705019205,-0.1498943549998104,0.0232119487613439,-0.0166273787617683,-0.0286235343664884,0.0122065786272287
0.5879060058593808,0.0097844945745542,-0.1616521589413285,0.044159459722042,-0.0179679356515407,-0.029948204755783,-0.0006223218515515
0.597869873046875,-0.0037932182705029,-0.1348858786992728,0.1297094989746809,-0.0265174806118011,-0.0272709280252456,-0.0166430994868278
0.6078349609375024,-0.0125010600568726,-0.0777560243755579,0.2096756006151437,-0.0273633617907762,-0.0179303847253322,-0.0336338281631469
0.6177988281249966,-0.0116077644789591,0.0140625737525522,0.2074853970944881,-0.0310979131609201,-0.0125992689281702,-0.0503417029976844
0.627763916015617,-0.0047268093261867,0.0926588483445346,0.1134755725324153,-0.0331140235066413,-0.0150990840047597,-0.0711484551429748
0.6377277832031325,0.0060051586989313,0.1410671976827085,0.0497048188894987,-0.0327718071639537,-0.0136806834489107,-0.0921514779329299
0.6476928710937528,0.0046393502384424,0.15129852270931,-0.0075485156834125,-0.0275733061134815,-0.015572634525597,-0.108382947742939
0.6576569824218765,0.0067791022134944,0.115953799214214,-0.0498655624091625,-0.0134108830243349,-0.0223375968635082,-0.1185572892427444
0.6676220703124969,0.0214062145136296,0.0751654233604669,-0.0564788430690765,-0.0060462746769189,-0.0271426439285278,-0.1287545412778854
0.6775861816406277,0.0211713463118299,0.0574495877973735,-0.0479863245338201,0.00107342004776,-0.033495083451271,-0.1344305276870727
0.6875507812500032,0.0220390690570697,0.0091126962602138,-0.0192512284368276,0.0101026110351085,-0.0294371228665113,-0.1404459476470947
0.6975148925781269,0.0198803566532209,-0.0002355623215436,0.0253027835607528,0.0176713149994611,-0.0265622399747371,-0.1423700749874115
0.7074799804687473,0.0468566994493827,-0.0108370358347892,0.0493716414123773,0.0215656459331512,-0.0201190896332263,-0.1438908874988556
0.7174438476562486,0.0777471469493582,-0.00727802817896,0.0753173990517854,0.023324929177761,-0.0222275145351886,-0.1389509886503219
0.727408935546876,0.0986910046482458,-0.0032423429220914,0.0941331586807966,0.028687123209238,-0.017623322084546,-0.1333710849285125
0.7373737792968669,0.1229023031778633,-0.0113255500040948,0.0791524471700191,0.0338216982781887,-0.0235627051442861,-0.1257187575101852
0.7473378906249977,0.1523978622533381,-0.0505799942888319,0.0591331569701433,0.0400859862565994,-0.0286594629287719,-0.1189615055918693
0.7573029785156251,0.1473959988454356,-0.069527417473495,0.0510439585387706,0.0387051366269588,-0.028153195977211,-0.1054811179637909
0.7672670898437488,0.1508878595491871,-0.0875610868141055,0.0738116706639528,0.0381576009094715,-0.024263422936201,-0.0921288654208183
0.7772319335937468,0.1508107391923666,-0.1205453647881746,0.1013975967258214,0.0356960408389568,-0.0230013504624366,-0.076225534081459
0.7871960449218776,0.136050063640438,-0.1407683608666062,0.0889414352566003,0.0310942940413951,-0.0201418381184339,-0.0605730637907981
0.7971611328124979,0.1139877598382532,-0.1733819058321416,0.0834556973218917,0.028711300343275,-0.0160722620785236,-0.0482479557394981
0.8071249999999992,0.0872880054937675,-0.182091720379889,0.1092576625764369,0.0265504792332649,-0.0145314335823059,-0.0318745821714401
0.8170898437499972,0.0735984663046896,-0.1730512125730514,0.124324883326888,0.0236098170280456,-0.0112221892923116,-0.0223226230591535
0.827053955078128,0.0608938099671155,-0.1598173447296023,0.0990916578710079,0.0179223604500293,-0.0066915787756443,-0.0113937705755233
0.8370187988281259,0.0391616149021312,-0.1141249763518571,0.0825666395276784,0.0176107715815305,-0.003570620669052,-0.0004324670881032
0.8469829101562496,0.0202315812436863,-0.0398785675324499,0.0769926387876272,0.0142452456057071,0.0038657772820442,0.0059982268139719
0.8569482421874994,0.0106056016990914,-0.004405979873985,0.0562508795320987,0.0055612111464142,0.0062812641263008,0.0131141934543848
0.8669118652343784,-2.08601249381e-05,-0.0198861653394997,0.03368190484941,0.0034188749268651,0.0024076264817267,0.015716491267085
0.8768769531249987,-0.0003676277359947,-0.0256910522259771,-0.0108592476665973,0.003885194659233,-0.0025799416471272,0.0175282396376132
0.8868410644531224,-0.0198743653038516,-0.0051215807974338,-0.0513064088672399,0.0033159805461764,-0.0153854293748736,0.0181327331811189
0.896805664062498,-0.0385166315294802,0.0580889086142182,-0.0206803844571113,0.0088207339867949,-0.0201367735862731,0.0193601846694946
0.9067697753906216,-0.0598167005212046,0.058927551395446,0.0463806429028511,0.0072556538507342,-0.0131913907825946,0.0134207047522068
0.9167351074218715,-0.0617967501562088,0.0327789646603167,0.0887730929523706,0.0036044595763087,-0.0093369986861944,0.0045441226102411
0.9266992187500023,-0.0586339204774238,0.0509469279050827,0.0565828879654407,0.0011681457981467,-0.0112054366618394,-0.0053620641119778
0.9366640625000002,-0.0580048287936486,0.0314189283534884,0.0319768544971942,-0.0067342519760131,-0.0173163264989852,-0.0125422123819589
0.9466279296875015,-0.0434520238387398,-0.0103862233273684,0.0193593649864196,-0.0114830005913972,-0.0209561921656131,-0.0244850628077983
0.9565930175781219,-0.0492882739778608,0.004243775049597,0.0178852007806301,-0.0133991446346044,-0.022686181589961,-0.0333318188786506
0.9665568847656232,-0.0356867053331807,0.0276734582148492,0.0218751471996307,-0.017030581831932,-0.0271694473922252,-0.0415940694510936
0.9765219726562506,-0.0209339390930719,0.031637831801176,0.0529664510339498,-0.0268083773553371,-0.02458325214684,-0.0505361668765544
0.9864858398437519,-0.0130367743687704,0.0110731826782226,0.1007990463107824,-0.0317207872867584,-0.0119095705449581,-0.0619919896125793
0.9964509277343723,-0.003091444943007,-0.0035484862618148,0.0986801544606685,-0.0353738442063331,-0.0020710539538413,-0.0686102136969566
1.006415039062503,0.0266021209225989,-0.008290712352842,0.0262444483250379,-0.0469052903354167,-0.0066480222158133,-0.0750212594866752
1.0163801269531234,0.0237399364245124,0.0024209435366094,-0.0005114566534757,-0.055369347333908,-0.0087740235030651,-0.0863908305764198
1.0263437500000023,0.0087142715271562,-0.0007164777062833,0.0096463647454977,-0.0577379651367664,-0.003605093806982,-0.0926026552915573
1.0363088378906227,-0.0056389192024245,-0.0339689050972461,0.0042956513673067,-0.0597816742956638,0.0004343886394053,-0.0934420824050903
1.0462729492187464,-0.0128232594822533,-0.0494349159069359,-0.0198573776364326,-0.0597477927803993,0.0021397741511464,-0.0969228893518447
1.0562377929687514,0.0046763577805832,-0.0958523836888372,-0.0635299306243658,-0.0552949868142604,-0.0010397739242762,-0.0925981849431991
1.0662019042968751,0.0103977676346898,-0.1578622651390731,-0.1173299098730087,-0.0485642440617084,-0.0131311435252428,-0.0862059965729713
1.0761669921875026,0.0160040632091462,-0.2005348473042249,-0.1235387013852596,-0.0416216515004634,-0.0179472044110298,-0.0816517248749733
1.0861318359375005,0.0143660502111539,-0.1935733377285301,-0.1056663600862026,-0.0328917168080806,-0.0231129918247461,-0.0728936120867729
1.096095947265617,0.0143684248313307,-0.1669806604877114,-0.072214756861329,-0.0267075933516025,-0.0241787880659103,-0.0647472664713859
1.1060610351562516,0.0128111671856604,-0.115524029494822,-0.0380780939817428,-0.0270136445760726,-0.0229625534266233,-0.0615593083202838
1.116024902343753,-0.0153709894699975,-0.0900767228968441,-0.0008154080361127,-0.0260032415390014,-0.0177041422575712,-0.0619321577250957
1.1259899902343733,-0.0416676246399991,-0.0605824789956212,0.025436639073491,-0.019174575805664,-0.0095300711691379,-0.0644306167960167
1.135954101562497,-0.079101812961325,-0.0627028321504592,0.0489706593960523,-0.0151028670370578,-0.0039235847070813,-0.0632788017392158
1.145918945312502,-0.106602252696827,-0.0599791062749922,0.0317506445258855,-0.0102091422304511,-0.0081517901271581,-0.0697159320116043
1.1558828125000034,-0.1473198283366859,-0.0087413787297904,-0.0413467403888702,-0.0113324634730815,-0.0167844276875257,-0.0795754864811897
1.1658479003906308,-0.1703635078590363,0.0063698272928595,-0.0482025976330041,-0.0160049684345722,-0.0212910696864128,-0.0816602483391761
1.1758120117187474,-0.1927403940357267,0.0423373588614165,0.0163584296047687,-0.0144438249990344,-0.0149796437472105,-0.0956378504633903
1.1857768554687524,-0.2240370111837983,0.075013301538676,0.0431833081662654,-0.0155807845294475,-0.0118562532588839,-0.1115297600626945
1.1957407226562466,-0.2318142575891688,0.0930523777067661,0.0380301631867885,-0.0195470303297042,-0.0101869842037558,-0.1280099302530288
1.205705810546867,-0.243064038943313,0.1269552318304777,0.0205681562542915,-0.0246216543018817,-0.0054425802081823,-0.1493974924087524
1.2156699218749978,-0.2323492412487044,0.1357761055372655,0.0081067340880632,-0.0266669616103172,-0.0074775023385882,-0.1678934246301651
1.2256350097656252,-0.2219231243023648,0.1280284140199422,-0.0180728323072195,-0.0307699274271726,-0.0120055796578526,-0.1902016550302505
1.235599121093749,-0.197603908418864,0.1004638230070471,-0.0459042575627565,-0.036281868815422,-0.0181929022073745,-0.2106262296438217
1.2455637207031316,-0.1544965150330215,0.0408693321354687,-0.0095727149873971,-0.0403720214962959,-0.0157286021858453,-0.2304675877094268
1.2555278320312482,-0.147100486497581,-0.0220744691640138,0.0061322191447019,-0.0419643260538578,-0.0146950297057628,-0.246854543685913
1.265493164062498,-0.1303488928567618,-0.0463954020805656,0.0039233109235763,-0.0439298115670681,-0.0147362314164638,-0.2517518401145935
1.2754570312499993,-0.12537150630299,-0.0430703493110835,-0.0394511359006166,-0.0428291261196136,-0.0211491230875253,-0.2542823553085327
1.2854218749999973,-0.1059251206202432,-0.0439573612786829,-0.0723521195054054,-0.0400531180202961,-0.0317566841840744,-0.2522860467433929
1.295385986328128,-0.0973110945971682,-0.0665918024130165,-0.0897849003434181,-0.0302814468741416,-0.0333236902952194,-0.2457192242145538
1.305350830078126,-0.0836130067754536,-0.080103756545484,-0.10013210683465,-0.0186205450445413,-0.0342804826796054,-0.2377115488052368
1.3153149414062497,-0.0512315170001238,-0.0918817264921963,-0.1012701709538698,-0.0052200509235262,-0.0444508269429206,-0.2225674837827682
1.3252797851562477,-0.0358570569314062,-0.1268422729752957,-0.0834901841133832,0.0071588223800063,-0.0516043230891227,-0.2149327397346496
1.3352438964843714,-0.0290826308930292,-0.1861117696762085,-0.0273158769488334,0.0185305196791887,-0.0572156049311161,-0.2105206847190857
1.3452089843749988,-0.0352394364897161,-0.2225971876390278,0.026512743872404,0.0349829606711864,-0.0547511614859104,-0.2045561075210571
1.3551730957031225,-0.0581955107938498,-0.20001257699579,0.0447457351773977,0.0462084487080574,-0.0516613610088825,-0.1979568004608154
1.3651379394531276,-0.0717845122179016,-0.1307613461151719,0.0229863233119249,0.050425186753273,-0.0511437766253948,-0.1939468383789062
1.3751018066406218,-0.0729712012518197,-0.0846985369898378,0.0115881464630365,0.0573241077363491,-0.0561720877885818,-0.1891869753599167
1.3850666503906268,-0.0687946827521547,-0.0509109798088669,-0.0038555063843727,0.0700074806809425,-0.055222749710083,-0.1903244256973266
1.3950307617187505,-0.0824954739876091,-0.0151544606424868,-0.0227875858694314,0.0744560211896896,-0.0574914962053298,-0.1960326433181762
1.404995361328126,-0.0998674280164763,0.0398209921263158,-0.0315974997907876,0.0760443210601806,-0.0592579953372478,-0.2037766277790069
1.4149594726562498,-0.095154318422079,0.0636288609541952,-0.0125455933183431,0.0710357129573822,-0.0574494451284408,-0.2202826291322708
1.4249245605468772,-0.1048573817908763,0.0757984605669975,0.0283031344205141,0.0660419687628746,-0.0568610504269599,-0.2388514727354049
1.434888671875001,-0.1265283116552978,0.0725529027745127,0.0869365251749754,0.0555770732462406,-0.0472081564366817,-0.2553327083587646
1.4448537597656284,-0.1272670742586255,0.0473611783728003,0.1109381630092859,0.0396672375500202,-0.040700651705265,-0.2726867198944092
1.4548176269531226,-0.1185193753859028,0.082663524030894,0.1015226844102144,0.0311813428997993,-0.0380441471934318,-0.2950780391693115
1.4647824707031276,-0.1049274513524025,0.0920784181080758,0.0751999101519584,0.0231199227273464,-0.0431381575763225,-0.3091599643230438
1.4747465820312513,-0.0956219359338283,0.074802581397444,0.0572813916236162,0.0166804008185863,-0.040720272809267,-0.3242270648479461
1.4847116699218716,-0.0788492629723623,0.0668980918832123,0.0557376693129539,0.0169176496565341,-0.0449948571622371,-0.3356831669807434
1.494675537109373,-0.0360969666345044,0.0469379845246672,0.0172387195706367,0.0182572193443775,-0.0415109097957611,-0.3413311839103699
1.504640380859378,0.0002856120083481,0.0309067410476505,-0.0227314717680215,0.0118615301325917,-0.0478793233633041,-0.3473117351531982
1.5146044921875017,0.0308902283042669,0.0249054548062384,-0.0486345593094825,0.0060206847265362,-0.0546983480453491,-0.3504641056060791
1.5245698242187515,0.0276530364813283,0.006204699859023,-0.0238467395335435,0.0037982957437634,-0.0592333935201168,-0.3457973599433899
1.5345334472656234,0.0407770872747525,-0.0065495677739381,0.0134931033015251,0.0050758142024278,-0.0581851713359355,-0.3424494862556457
1.5444985351562508,0.0581067730644717,0.0220288764566183,0.029241292053461,0.0085026593878865,-0.0542414933443069,-0.3347769677639007
1.5544626464843816,0.0674165627993643,0.0429904159426689,0.0304997676819562,0.0049039302393794,-0.0485833398997783,-0.3250164985656738
1.5644274902343724,0.0980429525356739,0.0185351891219615,0.044901802521944,0.0076014660298824,-0.0467758998274803,-0.3141729235649109
1.5743928222656223,0.1286114746049046,-0.0363001245237886,0.0282470203191041,0.0143445897847414,-0.051564797759056,-0.3017418086528778
1.5843566894531236,0.1506794774955138,-0.0542645280204713,0.0040349546045064,0.0175658725202083,-0.0634681731462478,-0.2923498153686523
1.5943205566406249,0.1503010726371779,-0.0792832339428365,-0.010604396122694,0.0181264691054821,-0.0736883282661438,-0.2833259701728821
1.6042856445312523,0.1240126755725592,-0.0846175807081162,0.036742461463809,0.0154562154784798,-0.0735129192471504,-0.279705673456192
1.6142507324218727,0.0804757681956514,-0.085458269315958,0.1121656589776277,0.0082643488422036,-0.0711110085248947,-0.2735820114612579
1.6242143554687516,0.0597727700479328,-0.0483658253706991,0.1595826591908931,0.0023471731692552,-0.0648428946733474,-0.2709192037582397
1.634179443359372,0.0368608271464705,0.0074367258720099,0.1547387262910604,-0.0074034589342772,-0.058488592505455,-0.2700536549091339
1.6441435546875027,0.0400789854753762,0.0430298711702227,0.1139718316167592,-0.0102901756763458,-0.0522539913654327,-0.2718099951744079
1.654108642578123,0.0627151071101427,0.047843847323209,0.0549099863171577,-0.0176926981657743,-0.0569294393062591,-0.2762987613677978
1.6640725097656244,0.0718438411897048,0.0600961567834019,-0.0105623105466365,-0.0121933743357658,-0.0618525184690952,-0.2811769545078277
1.6740375976562518,0.0965337535491213,0.0822037975646555,-0.034179917499423,-0.0122722052037715,-0.0672360956668853,-0.2847866117954254
1.6840017089843826,0.1121632112922146,0.0895581058502197,-0.0597159252941608,-0.0157173760235309,-0.072011224925518,-0.290270984172821
1.6939665527343735,0.1326497902102768,0.0516878094002604,-0.0530763411492109,-0.0099673457443714,-0.0687107667326927,-0.2939464151859283
1.7039304199218748,0.1355618782646954,0.0289557531103491,-0.0433984122216701,-0.0048303650692105,-0.0711295157670974,-0.293828010559082
1.7138955078125022,0.1337374758491292,-0.0001546060398221,-0.076586396074295,-0.0037432624958455,-0.075114406645298,-0.2948075234889984
1.723859619140626,0.1420410111509263,-0.0344943902760744,-0.0791495245605707,-0.000123540405184,-0.0738892927765846,-0.2898641228675842
1.7338247070312534,0.1748308990640565,-0.0617728578239679,-0.0832651431858539,0.0045047672465443,-0.0792409107089042,-0.2873844504356384
1.743788818359377,0.1647463986296206,-0.072060881473869,-0.0575473490834236,0.0108639625832438,-0.0856224745512008,-0.2843314111232757
1.7537534179687526,0.1556714405639097,-0.0909203341141343,-0.0237093768894672,0.0161545984447002,-0.0821928530931472,-0.2737882137298584
1.7637175292968763,0.1629643009858205,-0.1196498772531747,0.0094026191174983,0.0194991193711757,-0.0832308009266853,-0.26350998878479
1.7736826171874966,0.1700158269325271,-0.1327130647048354,0.0187923787534236,0.022531658411026,-0.0807247683405876,-0.2514189779758453
1.7836462402343827,0.1891282314205542,-0.1288474753178656,0.027891046488285,0.0207150615751743,-0.081963837146759,-0.2397579997777938
1.7936115722656254,0.1790559694131836,-0.1227317689165472,0.0466015921771526,0.0173142030835151,-0.0840347111225128,-0.2254120856523513
1.803575683593749,0.1764719808019697,-0.1449063374541699,0.0527858337700366,0.0178356766700744,-0.079222485423088,-0.2098473608493805
1.813540527343747,0.1786749707389622,-0.1644378441371023,0.0493003297418355,0.0116568775847554,-0.0864849239587783,-0.1965968012809753
1.8235046386718778,0.1533291152214631,-0.1740164043433964,0.0746966368049383,0.004542363807559,-0.0819379612803459,-0.1882014274597168
1.8334694824218758,0.125264429199323,-0.1645363360755145,0.1146796876251697,0.0014400482177734,-0.0725638940930366,-0.1733923852443695
1.8434335937499995,0.1061116927009075,-0.1461443548165261,0.1257470250844955,-0.0094416197389364,-0.0607923679053783,-0.1601712703704834
1.8533984374999974,0.1065885164324194,-0.1067101700507104,0.0858820476859807,-0.009873317554593,-0.0581853948533535,-0.1491774767637252
1.8633627929687506,0.1100320444824174,-0.082784812323004,0.0311620309829711,-0.0086602941155433,-0.0604746527969837,-0.1387608498334884
1.8733273925781262,0.1095614312959834,-0.0651760903961956,-0.0234258837729692,-0.0036801826208829,-0.0609649457037448,-0.1309210360050201
1.8832915039062499,0.1169479248180985,-0.0239288648590445,-0.0326034619629383,-0.004124186001718,-0.0634357929229736,-0.1241656765341758
1.8932565917968773,0.1160413313671946,-0.0006454582966864,-0.0207148712486028,0.0010782992467284,-0.0613473393023014,-0.1213339492678642
1.903220703125001,0.1173153516246937,0.0037830256700515,0.0057610477447509,0.0017381869256496,-0.0572023354470729,-0.1202002167701721
1.913185546874999,0.1191458184548653,0.0033653847798705,0.0253869547128677,-0.0033452548086643,-0.0525830835103988,-0.119963452219963
1.9231494140625003,0.1154669107464142,-0.0027625965811312,0.0414724125951528,-0.0045887436717748,-0.0458972081542015,-0.1245729327201843
1.9331147460937501,0.1164699320428073,-0.0337388957336544,0.0674549951136112,-0.0050753029063344,-0.0417069904506206,-0.1250309944152832
1.9430786132812514,0.1242094037210568,-0.081468907418847,0.0571732550740241,-0.0018232022412121,-0.0413160808384418,-0.1273992359638214
1.9530437011718718,0.1512134017091244,-0.0918162600405514,0.0094686700910329,1.86394900083e-05,-0.0458663590252399,-0.1284013837575912
1.963007568359373,0.1719427946734242,-0.074076166819036,-0.0058422962874174,0.0009417338296771,-0.0454477667808532,-0.1302816122770309
1.9729724121093781,0.1843030580201186,-0.0654138446748256,0.002769464713335,0.0011822171509265,-0.0420783385634422,-0.1330512911081314
1.9829365234375018,0.1917562966355122,-0.0427037079557776,0.0026619126856327,0.0061429236084222,-0.0414292402565479,-0.1294795870780944
1.9929016113281222,0.1885165475293062,-0.0291597512498497,-0.0127986912965774,0.0070076519623398,-0.0384867154061794,-0.1263152211904525
2.0028654785156164,0.1963179785278625,-0.0505706419385969,-0.0206143334835767,0.0071916794404387,-0.0359359793365001,-0.1222832351922988
2.012830566406251,0.2122267281363718,-0.0771308782145381,-0.0038894086539745,0.0201703272759914,-0.031515397131443,-0.1105227172374725
2.0227946777343817,0.242137663079705,-0.1219850422024726,-0.0056692778080701,0.0294446945190429,-0.0317196734249591,-0.0975822731852531
2.0327595214843726,0.2452485981744714,-0.1868560121722519,-0.0034229601860046,0.038113284856081,-0.0271129366010427,-0.0878153964877128
2.042723388671874,0.2380199072962626,-0.2127960707232356,-0.0201852944165468,0.0467792078852653,-0.0334424711763858,-0.0742963925004005
2.0526884765625013,0.2250805471536703,-0.1873405808188021,-0.0091541973143815,0.0543513745069503,-0.0384241789579391,-0.0618296042084693
2.062652587890625,0.203831806490384,-0.1636006626605987,0.0206873987197875,0.0663934275507927,-0.0403392538428306,-0.0508756935596466
2.0726176757812524,0.1769184276615269,-0.1580579338416457,0.0711141021430492,0.0714579671621322,-0.0325590968132019,-0.0401005446910858
2.0825815429687466,0.1846181335849687,-0.1165631632842123,0.0667155749231576,0.0757128745317459,-0.0281229838728904,-0.0327914245426654
2.092546630859381,0.1979978944388218,-0.08622837690562,0.0448714073836803,0.076301708817482,-0.0259043052792549,-0.0252203233540058
2.1025104980468754,0.1977463856294751,-0.0793115832544863,0.0255108733534812,0.0777020454406738,-0.0223566088825464,-0.0152197666466236
2.112475585937503,0.1855373673217371,-0.0522431051954627,0.011064999371767,0.0785047188401222,-0.026688240468502,-0.0058286623097956
2.1224396972656265,0.1594044530797749,-0.0345179172821342,0.0273801743566989,0.0730393230915069,-0.025641780346632,0.0002255588769912
2.132404296875002,0.1361286635682918,-0.0248145616523921,0.0986930139422416,0.0673617273569107,-0.0251887775957584,0.0059047495014965
2.142368652343748,0.1031252607686445,-0.0006777531310915,0.1643728160768747,0.0517045147716999,-0.0148162534460425,0.0083885174244642
2.1523337402343827,0.0765317615439184,0.0060522857762873,0.2085118175327777,0.0356829389929771,-0.000588048947975,0.0108655244112014
2.162297607421877,0.0896538030433468,0.0196576172806322,0.2202987014383077,0.0198536477982997,0.0074080526828765,0.0151550397276878
2.172262451171875,0.1116087740135379,0.0260226222679018,0.1650894399136304,0.0037793405354022,0.0061047016642987,0.0176256541162729
2.1822275390625023,0.1131740140362642,0.01357245214805,0.1298918698042631,-0.0034846980124711,0.0101569676771759,0.0204675123095512
2.1921914062499965,0.1176524746245704,-0.0115248719684779,0.0830541307836771,-0.0119397016242146,0.0050500901415944,0.0287824347615242
2.2021567382812464,0.1272680423730053,-0.0068372986741364,0.0333761999011039,-0.0186205450445413,-0.0041537368670105,0.032523401081562
2.212120849609377,0.1255944466049783,-0.0019235154084861,0.003541618129611,-0.0274505224078893,-0.0112228309735655,0.0435326434671878
2.2220854492187527,0.1426662303771823,0.0117116267122328,0.0402016620069742,-0.041940301656723,-0.0121458861976861,0.0529005117714405
2.2320495605468764,0.1276695541122928,0.0158653853908181,0.0887041193693876,-0.0474823415279388,-0.0066395346075296,0.0526160858571529
2.2420146484374968,0.0841522282186895,-0.0510080104425549,0.112084994956851,-0.0511474385857582,0.005209170281887,0.059948805719614
2.2519787597656276,0.1022865997211076,-0.068815908203274,0.1140893205165863,-0.0524934008717536,0.008264347910881,0.0637837573885917
2.261943359375003,0.0791914274735376,-0.0922020444877445,0.0690869802296161,-0.0528461821377277,-0.0002221337053924,0.0651601180434227
2.271907470703127,0.10889065589495,-0.1083430319495499,0.0642985769093036,-0.0503787621855735,-0.0005190761294215,0.0676765441894531
2.281872558593747,0.1157216892250813,-0.0741825498029589,0.088343469363451,-0.0490384735167026,0.0022307543549686,0.0772139057517051
2.291836669921878,0.1263666913527995,-0.0035547698721289,0.0861702169775962,-0.0467572100460529,0.0115062780678272,0.0825841650366783
2.301801513671876,0.1378048714185133,0.0363689519762992,0.0517617514193058,-0.0445847362279892,0.0114521021023392,0.0900988206267356
2.3117656249999996,0.1253079760801047,0.028135376638174,0.0203261641919612,-0.0554043613374233,0.0038258740678429,0.0975559428334236
2.3217304687499976,0.1218834632578305,0.005657441239804,0.0197381351709365,-0.0613996312022209,0.0079664997756481,0.1008909940719604
2.3316945800781284,0.1121316471101716,-0.000173310740292,0.040332594910264,-0.0672290250658989,0.0076754158362746,0.1059387475252151
2.3416594238281263,0.0974764594930224,0.0052063364714384,0.046544893553853,-0.0740441903471946,0.0055178748443722,0.1117114424705505
2.35162353515625,0.1003094909618608,0.0347863589599728,0.0594867927134037,-0.0805596113204956,0.0019191454630345,0.1132486164569854
2.3615886230468774,0.0982149115690961,0.0497879671283066,0.0771960524052381,-0.0883069112896919,0.008569722995162,0.1138129010796547
2.371552734375001,0.0719869029222056,0.1130896419547498,0.0788917504072189,-0.1007441356778144,0.0147413332015275,0.1136214211583137
2.381517578124999,0.0550805388447828,0.1433668529272079,0.0286176071971654,-0.1139063239097595,0.0181590635329484,0.1187123879790306
2.3914831542968713,0.027223540756572,0.0779682058215141,-0.0139572136819362,-0.1182297021150589,0.017717245966196,0.1209209486842155
2.401447753906247,0.004279467417486,0.0183520876400172,-0.0433282695949077,-0.1205074936151504,0.0155992330983281,0.1288518458604812
2.4114118652343777,0.0091711849818006,-0.0373449574016034,-0.0764560476928949,-0.1173717826604843,0.0137765081599354,0.1315392702817917
2.421376953124998,0.0165690766807645,-0.0566077301457524,-0.1015764604240655,-0.1105535924434661,0.0072034634649753,0.1299127489328384
2.431340576171877,0.0266026689118705,-0.0532519899770617,-0.0952554407089948,-0.1048437654972076,0.0031184407416731,0.1368494778871536
2.4413056640624973,0.0455657280570827,-0.0222384275540709,-0.1047726261168718,-0.101880207657814,0.0045687984675168,0.1392069160938263
2.451270996093747,0.0569184035301208,0.0162542385779321,-0.1129208612591028,-0.095399409532547,0.0014912494225427,0.1422402560710907
2.4612348632812484,0.0714485034628771,0.0575109625957906,-0.1009820016622543,-0.089822418987751,0.0051243365742266,0.1425037235021591
2.471199951171876,0.0928022206042893,0.0514219980709254,-0.0920142668306827,-0.0820840746164321,0.009394715540111,0.1465120464563369
2.481163818359377,0.1016605402446352,0.0376683441370725,-0.1039022730231285,-0.0720229521393776,0.0086929909884929,0.1498518884181976
2.491128662109382,0.1201255684735253,-0.0187377259567379,-0.0952373205304145,-0.0550418347120285,0.010764131322503,0.1563209742307663
2.501092773437499,0.1394185171602293,-0.0691486472889781,-0.0754734663963317,-0.0412470810115337,0.0103935105726122,0.1626461744308471
2.5110578613281263,0.1389909393979236,-0.104843061004579,-0.0742687667816877,-0.0227410420775413,0.0082001313567161,0.1688348352909088
2.5210217285156276,0.1331878426097333,-0.1091435346774756,-0.0680307491749525,-0.0068057319149374,0.0059466632083058,0.1764888912439346
2.530986816406248,0.1521269911563955,-0.1171365792579948,-0.0741483552724123,0.005592081695795,0.0020240931771695,0.1852823793888092
2.5409509277343716,0.152399908079952,-0.1214523966304957,-0.0290168356478214,0.01636996679008,0.0081329653039574,0.1895100623369217
2.5509157714843766,0.1460579369083978,-0.1352554426640272,-0.0029752164185047,0.0272282063961029,0.0113958697766065,0.1927002668380737
2.5608798828125003,0.1273536930961534,-0.1148918690711259,-0.0167862996280193,0.0380239635705947,0.0118880411610007,0.1960575580596923
2.5708447265624983,0.1156199824162758,-0.0670148501306772,-0.043971243673563,0.0513738542795181,0.0137783531099557,0.2027154713869094
2.580808837890622,0.109730065861158,-0.0111823421411216,-0.0773877755850553,0.0595544464886188,0.0121549107134342,0.2032040804624557
2.5907739257812494,0.1178583359275944,0.0614712445288896,-0.0998638112872838,0.0636088475584983,0.0110616823658347,0.2087908536195755
2.600738037109373,0.1356626352254301,0.0667629211962223,-0.0739461106985807,0.0694692954421043,0.0146829159930348,0.2108305990695953
2.610702880859378,0.1127061225298792,0.0683634882606566,-0.0289589679807424,0.0693952590227127,0.0174563322216272,0.2095698714256286
2.6206667480468724,0.1003785010774619,0.0477794037848711,0.0030365912169218,0.0682806000113487,0.0179416742175817,0.2075128257274627
2.6306318359375,0.0812433733009733,-0.0050035073757171,0.0385059640049934,0.0649990513920784,0.0181675106287002,0.2125882804393768
2.6405959472656164,0.0548574889449402,-0.0449000489562749,0.0466425087094306,0.0606263056397438,0.0173904951661825,0.2092489302158355
2.650560546874999,0.0498136860914528,-0.0504366402953863,0.0392272640168666,0.0494418293237686,0.0200368780642747,0.2062520682811737
2.6605249023437523,0.0124725098158232,0.0458019662320613,0.0711345604091882,0.0385596230626106,0.0221913382411003,0.2079604566097259
2.6704899902343726,0.0061954205740243,0.1363824008673429,0.1165600945442914,0.0257514156401157,0.0288423150777816,0.2098752707242965
2.6804548339843777,0.0172412768539041,0.1798519786290824,0.1294435415148735,0.0142705589532852,0.0360980778932571,0.2055886536836624
2.6904189453125014,0.0339978023981675,0.1461373405538499,0.0922831468999385,-0.0012764418497681,0.0379793345928192,0.2043092846870422
2.7003837890624993,0.0524055474818684,0.0997964451394975,0.0507949522137641,-0.0006243009120225,0.0437917597591877,0.2036861032247543
2.7103476562500006,0.036013635732606,0.0733887690767645,0.0526864650487899,-9.03368927538e-05,0.0485881119966506,0.2026394754648208
2.7203129882812505,0.0202331704125739,0.0540577534019947,0.0273299054741859,0.0012955768033862,0.0481111034750938,0.202034905552864
2.7302770996093813,0.0167456936229951,0.0713335901126265,-0.0061211132287979,0.0019334033131599,0.0447371415793895,0.204168364405632
2.7402416992187497,0.0217589004088193,0.1124317625679075,-0.0266202959001064,0.0030749952420592,0.048855897039175,0.2005638480186462
2.7502058105468663,0.0167214907635003,0.113290717484802,-0.0063444005906581,0.0097632566466927,0.0515624657273292,0.2022584229707718
2.760170898437501,0.045515915832296,0.1006610991448164,-0.0126841250061988,0.0165112093091011,0.0635703355073928,0.2051332741975784
2.7701350097656245,0.0583415134021081,0.0974859762400388,-0.0730032768905162,0.0210542939603328,0.0638417154550552,0.2054003924131393
2.7800998535156225,0.089651793749351,0.1125797927364706,-0.1185930616766214,0.0262296982109546,0.0527737252414226,0.208138570189476
2.790063720703124,0.1144353392089717,0.1135913078665733,-0.1121907934188842,0.0302329584956169,0.0516858249902725,0.2067065834999084
2.8000288085937513,0.1007257436125539,0.1096479770682752,-0.0777753135979175,0.0374104678630828,0.0484096631407737,0.2075764536857605
2.809992919921875,0.0665900488473475,0.0945388168722391,-0.0390022230893373,0.0401521921157836,0.0441656522452831,0.2097096443176269
2.8199580078125024,0.0355961044402793,0.1050213401809334,0.0241273100405931,0.0435735918581485,0.0469785369932651,0.2081581950187683
2.8299218749999966,0.0325878990676254,0.1286285718701779,0.0625105244487524,0.0440399125218391,0.0456663966178894,0.208182692527771
2.8398867187500016,0.0315655885488726,0.1522790581792593,0.0726309364467859,0.0422009043395519,0.0480764992535114,0.2087868005037307
2.8498508300781253,0.0358179122311063,0.1512390476070344,0.0784679720371961,0.0396448001265525,0.0504821315407753,0.2048953920602798
2.8598161621093823,0.0279893192309886,0.1488046600669622,0.0851204156637191,0.0346859171986579,0.0530501082539558,0.2018450945615768
2.869779785156247,0.035673297862336,0.1401654265373945,0.0870516759872436,0.0301391035318374,0.0587026700377464,0.1965478062629699
2.8797448730468744,0.0387929094539023,0.1273551909334957,0.0986719711542129,0.0215310342609882,0.0605628117918968,0.190461665391922
2.889708984374998,0.0524880746661685,0.1126421904481947,0.0939747532486915,0.0160446558147668,0.0646707341074943,0.1866048723459243
2.899673828125003,0.0519785542414523,0.1018034010477364,0.0712929658412933,0.0098085459321737,0.0671969652175903,0.1865570992231369
2.9096389160156164,0.0537135248078964,0.0863945272527635,0.0977127707332372,-0.001767149195075,0.0702894255518913,0.1790051758289337
2.919602783203132,0.0456984145260415,0.0917550313726067,0.1008013843983411,-0.0179333165287971,0.0801410526037216,0.1777847409248352
2.9295678710937523,0.0443845371821895,0.086675097759813,0.0845218652486801,-0.0293691977858543,0.0825168639421463,0.1754081398248672
2.939531982421876,0.062103532816749,0.0899675634339451,0.0560065493822097,-0.035327885299921,0.0824709013104438,0.1712836772203445
2.9494970703124963,0.0578826819850131,0.1252836453564465,0.008287935873866,-0.0416265279054641,0.0760673284530639,0.176176980137825
2.9594606933593823,0.060771297832299,0.1227687399260699,-0.0072860653549432,-0.0465672947466373,0.0786266028881073,0.1822142452001571
2.9694257812500027,0.0718542895184829,0.0624567484349012,-0.0158253456413745,-0.0427499189972877,0.0824058949947357,0.1851700842380523
2.9793898925781264,0.0729210237008519,0.0163546302124857,-0.0329915844976902,-0.0372050628066062,0.0822177454829216,0.1934054046869278
2.9893549804687467,0.0711646815528161,-0.0208751763768494,-0.0428027844160795,-0.0351232700049877,0.0774325728416442,0.2046175897121429
2.999318847656248,0.071337243374437,-0.0543298483416438,-0.0298971256136894,-0.0317960940301418,0.0755491405725479,0.2101788371801376
3.0092839355468755,0.063984378127288,-0.0644355011619627,0.0219938051432371,-0.0250471122562885,0.0790240317583084,0.2153805196285247
3.0192478027343768,0.0548231482839211,-0.0665802581056952,0.0483405447989702,-0.0252581760287284,0.0804087966680526,0.219995304942131
3.029212890624997,0.0422907067080959,-0.0689336893640458,0.0254307938545942,-0.0212008487433195,0.0863977149128913,0.2228451669216156
3.0391767578124984,0.044638402345404,-0.045386663429439,-0.0195487500786781,-0.0207745768129825,0.0878623276948928,0.2306245565414428
3.0491416015624964,0.0478377646422944,-0.0609023585997521,-0.0627893413901329,-0.0150581020861864,0.0818797945976257,0.2312930077314376
3.059105712890627,0.0408150994638912,-0.0727244599491357,-0.0968313117235898,-0.0108419191092252,0.084348663687706,0.2330314964056015
3.069071044921877,0.0272535888349637,-0.0633273937895894,-0.0760170717537403,-0.0092703867703676,0.0841593146324157,0.230410948395729
3.0790349121093783,0.0172735168893821,-0.0385148779638111,-0.0595797316938638,-0.0097014140337705,0.0853748545050621,0.2262502312660217
3.0889997558593834,0.0115720173121429,-0.0062716276153922,-0.0200660519510507,-0.010540310293436,0.0932530164718627,0.221970796585083
3.0989638671875,0.004677691221144,0.0481875461943447,-0.0064800096690654,-0.0103113977238535,0.0981967076659202,0.2145461142063141
3.1089289550781274,0.006804601980932,0.0996994145058095,-0.0475660532951354,-0.006718527060002,0.0980081558227539,0.2058476954698562
3.118892578124999,0.0348270745628513,0.1027592404678463,-0.0945037455588579,0.0066868187859654,0.0949689224362373,0.1989413499832153
3.128857910156249,0.0428495826998725,0.0869726194016635,-0.1356967566907405,0.0165503695607185,0.0865256413817405,0.1944275647401809
3.1388220214843727,0.034242296944838,0.056181321427226,-0.1367319449573755,0.0184233821928501,0.0731813013553619,0.1930559873580932
3.148786865234378,0.0458759813163429,0.0050754035681486,-0.0511135166436433,0.0161892548203468,0.0728113874793052,0.1915750056505203
3.1587509765625015,0.0525161499831825,-0.04509104148373,0.0447533339619636,0.0114181619137525,0.0765236243605613,0.1928304433822631
3.1687158203124994,0.0437500386709347,-0.0710655868262052,0.0692202512204647,0.0005210386589169,0.0752823203802108,0.1902013719081878
3.1786796875000007,0.0232291008255444,-0.0478257271446287,0.0880243204116821,-0.0131588662043213,0.0751029253005981,0.1862343847751617
3.188644775390628,0.0087525029120035,-0.0075698507323861,0.11669336553514,-0.0335530862212181,0.0770888477563858,0.1812723875045776
3.198610107421878,0.0109064112765714,0.0545882070168852,0.140651164227724,-0.0505647212266922,0.0884143337607383,0.1738951355218887
3.20857373046875,-0.0011990370588377,0.1240948739632964,0.1591454368174076,-0.0576884113252162,0.102890744805336,0.1660305559635162
3.2185388183593773,0.0059206952858716,0.1920095955431461,0.1050648870617151,-0.0558837316930294,0.1149304509162902,0.1620599776506424
3.228502929687501,0.0328531624076888,0.2530814654909074,-0.0051706806361675,-0.0452254973351955,0.1174950748682022,0.158912643790245
3.238467773437499,0.0650489203525707,0.2669771582439542,-0.102480131265521,-0.0321984440088272,0.1066507622599601,0.1563704162836074
3.2484318847656226,0.096372498572804,0.2428950025193393,-0.1646235759675502,-0.0137597844004631,0.1008983328938484,0.1556396335363388
3.2583967285156277,0.0956144102144986,0.2193354093641042,-0.1629407374471426,0.006317825987935,0.0921195745468139,0.1574821472167968
3.2683608398437514,0.0714327396381646,0.1938118226595223,-0.1095592758715152,0.0286337845027446,0.0849253088235855,0.1662628501653671
3.2783259277343717,0.06529613657929,0.1330222767844796,-0.0080628949463367,0.0436626113951206,0.0838180780410766,0.1753143221139907
3.2882900390625025,0.0761246237814426,0.0486537024013698,0.0583785392105579,0.0581217147409915,0.0932946726679802,0.1843483000993728
3.298254638671878,0.0984756813971325,-0.0256081962481141,0.0643102673470974,0.0648717880249023,0.0889196097850799,0.1936991959810257
3.3082187500000018,0.1018672600641846,-0.0689032942257821,0.0357610492110252,0.0650909692049026,0.077871486544609,0.2050085812807083
3.318183837890622,0.0827790767019614,-0.093099139457941,0.066274845418334,0.0561796948313713,0.0726776048541069,0.2191840708255767
3.328147949218753,0.0562642139377072,-0.0907267112381756,0.131904378670454,0.0423283316195011,0.0757311880588531,0.2331608682870865
3.3381130371093732,0.0423649775207042,-0.0969116834834218,0.167697576585412,0.0259329825639724,0.0860587731003761,0.2471054345369339
3.3480769042968745,0.0128074591249227,-0.0739323744341731,0.1642085654258727,0.016299795359373,0.0960658639669418,0.2615890204906463
3.358041992187502,0.0047634150095283,-0.0572420825265347,0.1210281798690557,0.0140931000933051,0.1017482504248619,0.2771453559398651
3.3680058593750033,0.0320272695101797,-0.0457348923452198,-0.0175917707920074,0.0140323815867304,0.0968344509601593,0.2871290147304535
3.3779709472656165,0.0609641352569684,-0.0317627733550965,-0.1262199032932519,0.0118123088032007,0.0786304473876953,0.2953909039497375
3.387934326171873,0.0588389232639223,-0.0433681632138788,-0.1523380948901176,0.0138839818537235,0.0693242996931076,0.2988159954547882
3.397899169921878,0.0296946253115311,-0.0215098210185766,-0.1261678808450698,0.020749595016241,0.0626627877354621,0.3027397692203522
3.407863281250002,0.0058298751972615,0.0349639074839651,-0.1266612173199653,0.0305313877761364,0.0594265162944793,0.3200212717056274
3.417828369140622,0.0552547811668366,0.1270868953861296,-0.1297112525403499,0.0253887251019477,0.0499604418873786,0.3259969055652618
3.4277922363281164,0.0525886306975036,0.1944957132704556,-0.0950678091824054,0.0213950462639331,0.0428404808044433,0.316492348909378
3.437757324218751,0.0170184644160792,0.1397078920282423,-0.0197621005684137,0.0189412459731102,0.0512636974453926,0.3004273176193237
3.4477214355468746,-0.0607577259646728,0.065016808181256,0.0920873320668935,0.0282836109399795,0.077351227402687,0.2923060059547424
3.457686523437502,-0.068550096873939,-0.0235820972479879,0.1000800843864679,0.0467719212174415,0.0829538106918335,0.3042435348033905
3.467650146484374,0.0465167634379118,-0.0853565625071525,-0.0678249974697828,0.0409241504967212,0.0682944357395172,0.2953815758228302
3.4776152343750013,0.0076330156290903,-0.0185432262979447,-0.006214052209258,0.0249442793428897,0.0590171851217746,0.2553708553314209
3.4875803222656216,-0.1690952049562707,0.0678062927693128,0.1509708981901407,0.0169281661510467,0.0684615522623062,0.2471584379673004
3.4975444335937524,-0.1268345645928755,0.0038916006110608,0.2453618310242891,0.0156893972307443,0.096251904964447,0.241411492228508
3.507509521484373,-0.1328411480639129,0.0289393864974379,0.1743266393363475,0.0139546133577823,0.0877010226249694,0.2258700877428054
3.517473388671874,-0.180918950273469,-0.0214618902236223,0.0180897834420204,0.013696220703423,0.0637751147150993,0.2150662690401077
3.527438232421872,-0.134328317881748,-0.0266264333799481,-0.0185533093005418,0.0053384229540824,0.0412823222577571,0.206914335489273
3.537402343750003,-0.0999604765947908,0.0270800223663449,-0.0119271691590547,0.0077329967170953,0.0289022736251354,0.1935357451438903
3.547367431640623,-0.0978583897490054,0.0801378049455583,-0.0097977559149265,-0.0079932361841201,0.0207836274057626,0.1760409027338028
3.557331054687502,-0.1462310832519084,0.1372415019147098,0.0746656571447849,-0.0243052951991558,0.0353066436946392,0.1608556360006332
3.567296386718752,-0.1804175766225904,0.1928194506213069,0.1722656151533126,-0.0368852689862251,0.0635638460516929,0.1437876969575882
3.5772604980468756,-0.1662749964363873,0.1977256351023912,0.1962257519334554,-0.0447929538786411,0.0841443166136741,0.1262431889772415
3.5872253417968665,-0.137028443685919,0.183965989819169,0.0897708718180656,-0.0539957731962204,0.0930531173944473,0.1119265630841255
3.597189208984382,-0.0919279767867177,0.146569886752218,-0.0710749391764402,-0.056766465306282,0.0904181525111198,0.0987577959895134
3.6071542968750023,-0.045841348394379,0.1283219901390373,-0.1154138471186161,-0.0453092791140079,0.0859264656901359,0.0899603068828582
3.617118408203133,-0.0031203239776194,0.0870138281948864,-0.1201747779101133,-0.033213123679161,0.0817132294178009,0.0922471135854721
3.6270834960937464,0.0385220383569598,0.0633783933244645,-0.1206307049840688,-0.029192017391324,0.0775935873389244,0.0882651582360267
3.6370473632812477,0.0405934378035366,0.0366004226446151,-0.0776443806946277,-0.0237502567470073,0.0691577941179275,0.08943872153759
3.6470122070312527,0.0374556147018447,-0.0111250589959323,0.0130623106688261,-0.0240663737058639,0.0694294422864914,0.0910770967602729
3.6569763183593764,0.0361729910127818,-0.0733908149033784,0.0728963093847036,-0.021337367594242,0.0716155543923378,0.0947767570614814
3.6669414062499968,0.0343543607508763,-0.1348635207369923,0.0985708488672971,-0.0194369349628686,0.0729482024908065,0.1031433418393135
3.676905273437498,0.0472743038069456,-0.1896500268049538,0.0914420199006795,-0.0176048502326011,0.0650912076234817,0.1153317913413047
3.686870117187503,0.0539129746364429,-0.2015003313355147,0.065327335435152,-0.0172296110540628,0.0543181896209716,0.1239492520689964
3.696834228515627,0.0459573394568637,-0.171753866238892,0.0530319174855947,-0.0181983988732099,0.0504938513040542,0.1315305083990097
3.7067995605468766,0.0308160670895129,-0.0911569193489849,0.0602618687391281,-0.0226235073059797,0.0393610410392284,0.1360709220170974
3.7167644042968746,0.0210767268309369,-0.0319186945691704,0.0633510669261217,-0.0348497480154037,0.0453034676611423,0.1416088789701461
3.726728271484383,0.0102459015412256,0.0018934125311672,0.0735994892179966,-0.0418693087995052,0.0537217184901237,0.1440190374851226
3.736693115234374,0.0224062949342653,-0.0064056292586028,0.053538697963953,-0.0375508293509483,0.0546196028590202,0.1480263322591781
3.7466572265624976,0.0096491412244737,-0.0204411688737571,-0.0167985745877027,-0.0296119451522827,0.0516049042344093,0.1488846689462661
3.756622314453132,-0.0060865899046882,-0.0189887781083583,-0.0791068544626236,-0.0179969668388366,0.0476702377200126,0.1504524946212768
3.7665864257812487,-0.0105672789826989,0.0277403859712183,-0.1500309869915247,-0.0046944776549935,0.039204578846693,0.1519446671009063
3.7765512695312466,-0.0198049167968332,0.064763125681132,-0.1406219381332397,0.0066976603120565,0.0393383093178272,0.1498404741287231
3.7865153808593774,-0.0203930919483304,0.0741821114115417,-0.0900748232007026,0.0078952834010124,0.0445317402482032,0.1423356831073761
3.796480468749998,-0.0535801259528845,0.0947149040915072,-0.0358949047237634,0.0121637973934412,0.0494615174829959,0.1350394189357757
3.8064440917968767,-0.0621229864358902,0.1097476380504667,-0.0166138656705617,0.0094596240669488,0.0506732538342475,0.1287085562944412
3.816409179687497,-0.049453657140024,0.1104899808503687,0.0069593176186084,0.0046808891929686,0.0531750805675983,0.129015177488327
3.826373291015628,-0.0161623955760151,0.1050952821999788,0.0162052848696708,0.0060766520909965,0.0489901900291442,0.1254497468471527
3.836338378906248,-0.006283719911985,0.1236446459777653,-0.0197363816052675,0.0052320575341582,0.0465528480708599,0.1268701404333114
3.8463022460937495,0.0280356060581281,0.0250347802743315,-0.0347831440895795,0.0008828490972518,0.0381090305745601,0.1299588829278946
3.856267333984377,0.0151913585867732,-0.0819103675760328,-0.031384149301052,0.0030561881139874,0.0291925780475139,0.1338598728179931
3.8662314453125006,-0.0031227351304143,-0.1302533965930342,0.0105067809671163,0.0138142928481101,0.0258974488824605,0.1422179490327835
3.8761962890624986,-0.0316933613806963,-0.1174297169856727,0.0188835641682147,0.0203278884291648,0.0158837530761957,0.1439845263957977
3.886161376953133,-0.0497275421779602,-0.089045626283437,0.0445218632936477,0.0280356109142303,0.0110261458903551,0.1451693624258041
3.896124999999998,-0.0529267766106873,-0.0199595228366553,0.0700485187381505,0.0297100991010665,0.0207789670675992,0.1412691175937652
3.9060903320312477,-0.0514673715826123,0.0656507221706211,0.0618050065279006,0.032227586954832,0.0193813405930995,0.1375723928213119
3.9160544433593714,-0.0348372488969936,0.1132781502641737,0.0270645325362682,0.0344593524932861,0.0207688268274068,0.1332242637872696
3.9260192871093764,-0.0366852513838559,0.1123848546862602,0.0107248076319694,0.0305021591484546,0.0190489571541547,0.1276028603315353
3.9359831542968777,-0.0531896653305739,0.0821447608537972,0.0394938059985637,0.0281426981091499,0.0179489031434059,0.1208324879407882
3.945948242187498,-0.0824137139882892,0.0662932578578591,0.0698322456389665,0.0261914022266864,0.0145626934245228,0.1119266077876091
3.9559123535156218,-0.1104782173473387,0.0830265121243894,0.1219090543568134,0.0200611781328916,0.0285285916179418,0.1074121445417404
3.965877441406249,-0.1248075522772967,0.0873290316238999,0.1658925729900598,0.0092223789542913,0.0359276533126831,0.0955360457301139
3.975841552734373,-0.1240497561799362,0.0904601692564785,0.1791033522188663,-0.0019796513952314,0.043592631816864,0.0861118137836456
3.9858061523437485,-0.1019684554163366,0.0919543533369898,0.1166553716123104,-0.0130895599722862,0.0388008058071136,0.0741243958473205
3.995770263671872,-0.0828141480153426,0.106823713427782,0.0684556965887546,-0.0297158416360616,0.0341020971536636,0.0632579028606414
4.0057353515625,-0.0682021236864849,0.0751833974085748,0.0716787502884864,-0.0504373684525489,0.0283243674784898,0.0552582964301109
4.015699462890623,-0.084886424244754,0.0478179822295904,0.1213841536998748,-0.067987821996212,0.0333826802670955,0.0503311231732368
4.025664062499999,-0.0875451951252296,0.0157515497528016,0.1343202076405286,-0.0848626792430877,0.0334689654409885,0.0377370342612266
4.0356281738281226,-0.1028320134431123,-0.0339485929615795,0.12327683557868,-0.0956371650099754,0.0365664884448051,0.037616528570652
4.045593505859372,-0.0775066161917522,-0.0658262248679995,0.0984855086714029,-0.1025169044733047,0.0428957566618919,0.0396988578140735
4.0555583496093774,-0.0451715959066525,-0.089357907103002,0.0509931051343679,-0.1025336533784866,0.0433913171291351,0.046112522482872
4.065522216796872,-0.0318756591450423,-0.1142611699521541,-0.018646248281002,-0.0911209434270858,0.0362569727003574,0.0493575818836689
4.075487304687499,-0.0011690437793731,-0.140436644694209,-0.0986123499214649,-0.0664149969816207,0.0307169910520315,0.0571904629468917
4.085451171875,0.028999044262804,-0.1180570551037788,-0.1882616411864757,-0.0465318411588668,0.0169431213289499,0.0613820105791091
4.09541650390625,0.0351339668212458,-0.066954498245567,-0.2202829193472862,-0.032636821269989,0.008731622248888,0.0619860813021659
4.105380615234374,0.030063020232506,-0.0366112362995743,-0.1644131480872631,-0.0172634553164243,0.0103090126067399,0.0647797435522079
4.1153452148437495,0.0262715920602902,0.0073418871954083,-0.1159405013412237,-0.0025810897350311,0.0153595665469765,0.0692785829305648
4.125309326171873,0.0061209670983254,-0.0120800216332077,-0.1271750120609998,0.0137683218345046,0.012533419765532,0.0696953609585762
4.135274414062501,-0.0071192574206739,-0.0608019669651985,-0.1085579898744821,0.0241089761257171,0.0060306284576654,0.0710570141673088
4.145238281250002,-0.0037577816309407,-0.0826394125029444,-0.0889163008153438,0.0331799685955047,-0.0032696623820811,0.063899241387844
4.155203125,-0.0374863386336714,-0.0439382181867957,-0.0226852945387363,0.0359611734747886,-0.0034172774758189,0.0595207288861274
4.1651672363281165,-0.0597138794675469,0.0058718146428465,0.051143911781907,0.0326820239424705,0.0033287757541984,0.0547826960682868
4.175132324218751,-0.0663660673657432,0.0372518722906708,0.0754646985679864,0.0310598984360694,0.0112953912466764,0.048083022236824
4.185096435546875,-0.0603427519556134,0.0324224063076078,0.05162321973145,0.0258704610168933,0.0140709392726421,0.0382993705570697
4.195061523437502,-0.0658048532864078,0.0300682443968951,0.0322562559604644,0.0195479858666658,0.0149355512112379,0.0317253768444061
4.205025390624996,-0.0382454864379018,0.0109258831620216,-0.0028583120405673,0.0139742568135261,0.003593681147322,0.0262808129191398
4.214990234375001,-0.0118008028330281,-0.0226183667823672,-0.0394166491091251,0.0036032330244779,-0.0021131278481334,0.0224841460585594
4.224955322265622,-0.0176742614436894,-0.0621948826283216,-0.0179050745248794,-0.0001310515217483,-0.0080391941592097,0.0196350961923599
4.234919433593753,-0.0508775524633005,-0.1111636423282325,0.0211515091001987,-0.0100597348064184,-0.0026598984841257,0.0161586962640285
4.2448842773437505,-0.0950177960282191,-0.1206115618921816,0.0535422050952911,-0.0111204711720347,-0.0004526707343757,0.0170955955982208
4.254848388671874,-0.1061611213332042,-0.1100667870022356,0.0405868619322776,-0.0213722549378871,-0.0027593446429818,0.0208761654794216
4.264813232421872,-0.113041893822886,-0.0811735777340829,0.0014145429730415,-0.0243597887456417,-0.0056312978267669,0.0225126799196004
4.274777343750003,-0.1066565036347135,-0.0353726344153285,-0.0248135387390851,-0.0287113264203071,-0.007230335380882,0.0166672971099615
4.284742187500001,-0.1252220148297026,-0.0520579578869044,-0.0201484695374965,-0.0314141698181629,-0.0012012054212391,0.0103878285735845
4.294706298828125,-0.1546932066489011,-0.0939706615954637,0.0282382524907588,-0.0189332999289035,0.0064843553118407,0.0087450956925749
4.304671386718752,-0.1324014049397781,-0.0589198064804077,-0.0518792403191328,-0.0071070003323256,-4.419125616550446e-07,0.0095863882452249
4.314635498046876,-0.0786457032242789,-0.0095274145409464,-0.1594084716677665,0.0054226741194725,-0.0215767845511436,0.0090368073433637
4.324600585937503,-0.0454869454661384,0.0337010479412972,-0.1888695439517498,0.0207004286348819,-0.0326321013271808,0.0101875588297843
4.334564208984382,-0.0338570056879892,-0.0024479776740074,-0.1733265223830938,0.0287164747714996,-0.0461579859256744,0.0049831792712211
4.3445292968750024,-0.0850523919288069,-0.0294195712298154,-0.0837269154787063,0.0262032486498355,-0.0488411225378513,-0.0060692052356898
4.354493408203133,-0.161106142431125,-0.0519273172445595,0.0818926857888698,0.0268401112407445,-0.0379771552979946,-0.0088919261470437
4.364458251953124,-0.176292203788273,-0.0845022837653756,0.1567068114936351,0.031854048371315,-0.0240403022617101,-0.0153402378782629
4.374422119140625,-0.1970374701751396,-0.0825847597062587,0.1059200425863265,0.0332190170884132,-0.0261013805866241,-0.028134549036622
4.384387451171875,-0.1852714829271659,-0.0886710938826203,0.0606394698798656,0.0329553633928298,-0.0216158181428909,-0.034577801823616
4.394355957031252,-0.1449386322885751,-0.0796755942612886,0.0098310736626386,0.0461887419223785,-0.0331118106842041,-0.0421745255589485
4.404319824218753,-0.1099423203723505,-0.0644216187670826,-0.0438595999926328,0.0554775819182395,-0.0413364507257938,-0.0499578863382339
4.414284912109373,-0.0757135222299024,-0.0797736478082835,-0.0476829576730728,0.0620470754802227,-0.0492910854518413,-0.053969707340002
4.424249023437497,-0.0406550317976623,-0.0892126534134149,-0.048324178186059,0.0678226724267005,-0.0602518580853939,-0.0565774776041507
4.434214111328124,-0.0470198906544595,-0.100824911404401,-0.0362888724774122,0.0706547424197197,-0.0697521120309829,-0.0634989216923713
4.444177978515626,-0.0665793447902426,-0.1210198504321277,-0.0174175832688808,0.0747866332530975,-0.0678855031728744,-0.0635798871517181
4.4541428222656165,-0.0831610982894897,-0.147998458250612,0.0219359374761581,0.0676100179553031,-0.0607635267078876,-0.0596839971840381
4.464106933593747,-0.0880400659700855,-0.1273000997453928,0.0344324309557676,0.0617585182189941,-0.0542606189846992,-0.0577390901744365
4.474072021484382,-0.0833270659735426,-0.0971989759922027,-0.0151958155661821,0.0559027567505836,-0.0595933310687541,-0.0595191456377506
4.484035644531247,-0.0609120762761682,-0.0699491500169038,-0.0033358664244413,0.052529864013195,-0.0579533576965332,-0.0618930868804454
4.494000976562496,-0.0369723612295463,-0.0577735590547323,0.0091430913984775,0.049813374876976,-0.0574096888303756,-0.0627934485673904
4.503965087890627,0.0095963881239295,-0.0733800012484192,-0.0298071092426776,0.0497819483280181,-0.0622925981879234,-0.0686042010784149
4.513929931640625,0.0265899738270789,-0.0550322975225746,-0.0563297899872064,0.0473624318838119,-0.0604296997189521,-0.0752621218562126
4.5238937988281265,0.0050901627458631,-0.0418026674628257,-0.0317523980915546,0.0441983304917812,-0.0680229067802429,-0.0793463438749313
4.533858886718747,-0.0346959041975438,-0.0490555612005293,0.015876783567667,0.0343423336744308,-0.0626295953989029,-0.087115354835987
4.543822998046878,-0.0765090199891477,-0.0497112486302852,0.063486676004529,0.0267352852970361,-0.057761076837778,-0.0952624976634979
4.553787841796876,-0.1166165739718824,-0.0666698360852897,0.1155243217557668,0.0240970570594072,-0.0455898009240627,-0.0979560166597366
4.563753173828125,-0.1201858107607811,-0.0971525065019726,0.1550841787278652,0.0293421503156423,-0.0359627418220043,-0.0967370867729187
4.573716796874997,-0.089585578379035,-0.104538086708635,0.111480599322915,0.0303959995508193,-0.0319397523999214,-0.0973607525229454
4.583681884765625,-0.0589867707693949,-0.0808081054225564,0.0474614238768816,0.0339585095643997,-0.0325924903154373,-0.1025139689445495
4.593645996093748,-0.0240789408542215,-0.0588438186347484,-0.0090793785125017,0.0330641716718673,-0.0358395390212535,-0.1030052229762077
4.603610839843746,0.010849785718508,-0.0229679108723998,-0.0361404039174318,0.0355523638427257,-0.0363039970397949,-0.1037051007151603
4.613574707031248,0.0391267993170768,0.0104819387868046,-0.0561100097566843,0.0382578819990158,-0.0393239147961139,-0.1065769344568252
4.623540039062497,0.0434398402106016,-0.0058341129809617,-0.0698053576320409,0.0397577732801437,-0.0420014597475528,-0.1121943444013595
4.633504150390628,0.0279239989098161,-0.064856356922537,-0.0293044204175472,0.0403086952865123,-0.0472953543066978,-0.1166203990578651
4.643468994140626,-0.0184704533226788,-0.0635765462450683,0.0245592717170715,0.0456991977989673,-0.0461491271853446,-0.1186262890696525
4.65343310546875,-0.0570224849591031,-0.0572017505161464,0.023575521376729,0.0486706122756004,-0.0431263595819473,-0.1215454488992691
4.663397949218748,-0.0755008293272927,-0.0404245109774172,0.0064238955676555,0.0473022796213626,-0.0516553968191146,-0.1245201975107193
4.673361816406249,-0.070457976321876,-0.002904635400325,0.0035398645639419,0.0454153008759021,-0.0495438948273658,-0.1319330930709839
4.683326904296877,-0.0567227348275482,0.0209372818276286,-0.0050981999218463,0.0504819639027118,-0.0455358363687992,-0.1354380846023559
4.693291015625,-0.0337051761271432,0.0502905098229646,-0.0152864164590835,0.048117708414793,-0.0444205999374389,-0.1444259732961654
4.703255859374998,-0.004248999213986,0.0685332918696105,-0.0008989946663379,0.0491038784384727,-0.0428386814892292,-0.1514319479465484
4.713219970703122,0.0217759976740926,0.0502449171155691,0.0038689503878355,0.0525515638291835,-0.0417101569473743,-0.1627209931612014
4.723185058593749,0.0241959182973951,0.0400350732684135,0.0182078568637371,0.0584864169359207,-0.0409207977354526,-0.1708593517541885
4.733149902343747,0.0104471962669864,0.0235546247191727,0.0380319167524576,0.0552319139242172,-0.0373843573033809,-0.1747258156538009
4.743113769531249,0.018944317912124,-0.006049070905894,0.0463350501954555,0.048485592007637,-0.0369340181350708,-0.1769008189439773
4.753078857421876,0.0385667177489027,-0.0145743226669728,0.0495095885783433,0.0456246212124824,-0.0417307876050472,-0.1812453269958496
4.76304296875,0.0433707570297643,-0.0012184358790516,0.0413297892540693,0.0418722257018089,-0.0369576029479503,-0.1756505519151687
4.773008056640627,0.0362269496897235,0.033883272640407,0.0472737923502922,0.0409063063561916,-0.0369987748563289,-0.1746946275234222
4.782972167968751,0.0444666259750723,0.0408262236461043,0.0412795203715562,0.0392658002674579,-0.0339369364082813,-0.1664904952049255
4.7929367675781265,0.0450374116003513,0.0072167995110154,0.0479676198333501,0.0337017178535461,-0.0390918627381324,-0.1634795665740966
4.80290087890625,0.0553247045978903,-0.0254565128177404,0.0464689057081937,0.0197286419570446,-0.0474869459867477,-0.1596933454275131
4.812865966796878,0.0434981462690979,-0.0202833479635417,0.0967792892754077,0.0070113842375576,-0.0447398871183395,-0.1564388275146484
4.822829833984372,0.0521089208891615,-0.0003336158685386,0.1507972951889038,-0.007409366313368,-0.0389909222722053,-0.1537980437278747
4.832794921874999,0.0313547405434772,-0.017226006219536,0.1973223149985075,-0.0218179672956466,-0.0276927538216114,-0.1468819379806518
4.842759033203123,0.0405371775716543,-0.0521896214425563,0.2056014830440282,-0.0290234163403511,-0.0216143541038036,-0.1424760073423385
4.852723876953128,0.0563739213898777,-0.0690906334914267,0.1565238561421632,-0.0313082598149776,-0.0181424729526042,-0.1365900933742523
4.862688964843748,0.0498041876107454,-0.0713460112027823,0.085780925399065,-0.0333716757595539,-0.017805315554142,-0.1311777532100677
4.87265283203125,0.0541000947063788,-0.0548717001333832,0.0305284092545509,-0.0263329800218343,-0.0191877428442239,-0.1220021098852157
4.882617675781248,0.0651344066789373,-0.0121941495321691,-0.0172521635740995,-0.0183405671268701,-0.0213560871779918,-0.1137012988328933
4.892581787109371,0.0772871282221749,-0.0041106501892209,-0.0593079290151596,-0.016057489439845,-0.0245586968958377,-0.1095323264598846
4.902547119140628,0.0884161692734807,-0.0077758946985006,-0.0520212791383266,-0.0113538149744272,-0.0265627261251211,-0.1053871214389801
4.912510986328122,0.0675929788121953,-0.0231124339096248,-0.0216764097571372,-0.0060074776411056,-0.0266816467046737,-0.1035970449447631
4.9224758300781275,0.0547109566137194,-0.0243564426213502,0.0103559743195772,-0.0006787586025893,-0.0261367633938789,-0.1035206094384193
4.932439941406251,0.0602516396060585,-0.0068033964045345,0.0017874679386615,0.0002560471184551,-0.0294974260032176,-0.1019293591380119
4.942404785156249,0.0612302753798663,-0.0408855526179075,0.0266746564358472,0.0055096647702157,-0.0265309326350688,-0.100999116897583
4.952368896484373,0.0536391626637429,-0.0370372066266834,0.0457201331675052,0.0119004528969526,-0.0300774648785591,-0.0972832068800926
4.962333984375,0.050312137132883,-0.0050935237467288,0.0259638778179883,0.0122463330626487,-0.033091552555561,-0.0938501134514808
4.972298095703124,0.0458826302528381,0.0020956571049988,0.0240852244645357,0.0200005322694778,-0.0343577377498149,-0.0882095173001289
4.982262939453122,0.0487703510509803,-0.0184158005259931,0.022383681243658,0.0237691700458526,-0.0352680049836635,-0.08859433978796
