time,ax,ay,az,gx,gy,gz
0.0,0.0463692812586203,-0.0747461750350892,0.0933007995098829,-0.0467175431549549,0.1235055699944496,0.4195243418216705
0.009964843749990848,0.0713950745088979,-0.1019984852284193,0.0208043030977249,-0.0395394153892993,0.1183828637003898,0.4248075485229492
0.019928710937506366,0.0740984151834622,-0.0715307201199233,-0.0399380426347255,-0.0357571952044963,0.1123358905315399,0.4300334751605987
0.029892822265622954,0.0947656844306737,-0.0093808456771075,-0.0819336023211479,-0.0333464257419109,0.1098161861300468,0.431675910949707
0.03985766601562091,0.1011925391403958,-0.0022666297577321,-0.0683399612545967,-0.0277151726186275,0.1068656668066978,0.4363353550434112
0.049821533203122215,0.0893025967191904,-0.0087139062009751,-0.0513134231299161,-0.0198734570294618,0.1090883091092109,0.4380182325839996
0.059786621093756764,0.0496746429469436,-0.0252004922300577,-0.0404465766787529,-0.022215174511075,0.1009427607059478,0.4367591142654419
0.06975097656249574,-0.016560929906927,-0.0184425424024462,-0.0146282448112964,-0.0317030437290668,0.1084822714328765,0.4327331185340881
0.0797158203125008,-0.0354129664257168,-0.0006445815138518,0.0618903467237949,-0.0350311994552612,0.1164941191673278,0.4328875839710235
0.08967993164062449,-0.0479335349006578,0.0086762045390903,0.0943354032546281,-0.0396033264696598,0.1199778094887733,0.4288508296012878
0.09964453125000006,-0.0671606152769178,0.0242252174571156,0.1112508822202682,-0.0414145439863204,0.1220433637499809,0.4242925345897674
0.10960864257812375,-0.0726597241498529,0.0057382513910531,0.0840624310433864,-0.040393378585577,0.1231165081262588,0.4165893793106079
0.11957275390624744,-0.0691049177451059,4.44236636161e-05,0.0323538711160421,-0.042424838989973,0.1201353669166565,0.4105195105075836
0.1295378417968749,-0.0591361526448279,0.0187457631327211,0.0267243407964706,-0.0418520718812942,0.1168379262089729,0.4020814895629883
0.1395017089843762,-0.0499269372075796,0.0361690454900264,0.0049526539713144,-0.045347474515438,0.1166469752788543,0.3922155499458313
0.14946679687499653,-0.0406516707967966,0.0546017971508204,-0.0083913962483406,-0.0422765240073204,0.1126841306686401,0.3763042390346527
0.15943090820312733,-0.0673127736313268,0.1372377025224268,-0.0165524908721447,-0.0436943918466568,0.1130732148885726,0.3623724579811096
0.16939575195312528,-0.0592307721257209,0.186539639699459,-0.0530190580040216,-0.0503595769405365,0.1150387227535247,0.3463623225688934
0.1793596191406266,-0.0434152902912348,0.1744165095768868,-0.0541734887361526,-0.0551050677895545,0.110020525753498,0.3291692435741424
0.18932470703124693,-0.0390697353675961,0.1486268192820251,-0.0312841960579156,-0.0570157654583454,0.114434078335762,0.3134991228580475
0.19928881835937062,-0.0597801496367901,0.1213822540037333,-0.0360837052941322,-0.0606264807283878,0.1189963370561599,0.3000890612602234
0.20925244140624955,-0.0546069482499733,0.0578786268644034,-0.0725689771264791,-0.0611622519791126,0.1123034805059433,0.2944523096084595
0.21921777343750648,-0.0649361441604793,0.0053643035121262,-0.0680938775390386,-0.055097434669733,0.105220541357994,0.2861387431621551
0.22918188476562307,-0.0747709076175466,-0.0124365799859166,-0.057130584976077,-0.0516107864677906,0.1041112914681434,0.2805982530117035
0.23914672851562102,-0.0609742913248017,0.019607640659064,-0.0616167904794216,-0.0499782711267471,0.0998742058873176,0.2742407619953155
0.24911083984375182,-0.0334858708206564,0.035931145080924,-0.0525415036201477,-0.0507247112691402,0.0974783897399902,0.274982213973999
0.2590756835937569,-0.0071098685378208,0.008963058656454,-0.0459188706099987,-0.0420175045728683,0.09506556391716,0.274529755115509
0.26903979492187347,0.0184902540016919,0.0265972072854638,-0.0699807141989469,-0.0338678583502769,0.0831227749586105,0.2770849764347076
0.2790046386718714,0.016695041147992,0.0681190119802951,-0.0708113198041915,-0.0374098643660545,0.0711928755044937,0.2769869863986969
0.2889687500000022,0.0203310595627874,0.0411991486117243,0.00458791231215,-0.0409661531448364,0.0755601078271865,0.2804374396800995
0.29893359375000017,0.0124364338554441,0.0131127256818115,0.082231708484888,-0.0406542979180812,0.0830800756812095,0.2836947441101074
0.30889770507812386,-0.0091047321494668,-0.0331945597238838,0.1105289976865053,-0.0485483296215534,0.0922020897269249,0.2849041223526001
0.31886181640624756,-0.0306832710226997,-0.1005482864201068,0.1193652150928974,-0.0440260134637355,0.0950324982404708,0.2888543903827667
0.328826904296875,-0.0403543318180367,-0.1388546361997723,0.1080628998339176,-0.0399655103683471,0.0983249768614769,0.291457325220108
0.3387907714843763,-0.0308425167050212,-0.1441572726525366,0.0767886406481266,-0.0381881147623062,0.1000459119677543,0.2941111624240875
0.34875561523437426,-0.0266496681250631,-0.1236842473357915,0.0338999315142631,-0.0312013439834117,0.0909033119678497,0.2976305484771728
0.35871972656249085,-0.0429904890079051,-0.0761994425833225,-0.0129144266307353,-0.0335529148578643,0.0897232592105865,0.2968741953372955
0.3686848144531254,-0.0750705846838653,-0.0165489837408065,-0.0101689273148775,-0.0469770580530166,0.0875242426991462,0.2985567450523376
0.3786489257812491,-0.0938171515341848,-0.0019562486343085,0.0303945537418127,-0.0561218187212944,0.0861029103398323,0.2966004014015198
0.38861401367187653,-0.1023674281386658,-0.0293139188982546,0.0254997674375772,-0.0644541457295417,0.0869275107979774,0.2955662906169891
0.3985781250000002,-0.1133346296917647,-0.0800789143651723,-0.0016875146955251,-0.0712217763066291,0.0847796723246574,0.2911768555641174
0.4085429687499911,-0.1171454201515763,-0.0952984030678868,-0.0420960974514484,-0.068085953593254,0.0803796574473381,0.286487340927124
0.4185068359375066,-0.1087754685500636,-0.0854847189314663,-0.0482172106802463,-0.0586759373545646,0.0678385645151138,0.2781399190425873
0.42847192382812693,-0.1274597107538953,-0.0671307315953075,-0.0589630611002445,-0.0500775799155235,0.0600434094667434,0.2713778614997864
0.4384360351562506,-0.1286289006637409,-0.0448920117802917,-0.0673328300386667,-0.0442516431212425,0.0614687353372573,0.2661671638488769
0.4484001464843743,-0.1230740795481949,-0.0180756087861955,-0.085870357248187,-0.037391111254692,0.0628634691238403,0.2504385411739349
0.45836523437500176,-0.1292968265205621,-0.0036306115873157,-0.0869219121277332,-0.0261187497526407,0.0630344450473785,0.2387272864580154
0.4683288574218736,-0.144463452524878,-0.0047343350455164,-0.0885685102909803,-0.0171306915581226,0.0624057799577713,0.2247541397809982
0.478293945312501,-0.1735794742308556,0.0177300102189183,-0.1216413433313369,-0.0078953821212053,0.0529060177505016,0.2134325057268142
0.4882580566406247,-0.1902201183104887,0.0048529929891228,-0.0964788450241088,-0.0033858786337077,0.0515185371041297,0.1982075273990631
0.49822314453125216,-0.1968040998106822,-0.0200495392076671,-0.0212058696359396,0.0071072420105338,0.0522865951061248,0.1901796907186508
0.5081870117187464,-0.2030521273547783,0.0009486790269613,0.0212976395726203,0.0213315226137638,0.0527592375874519,0.1765716671943664
0.5181520996093738,-0.1874367346696555,0.0493887386776506,-0.0385486341029405,0.0267723649740219,0.0452009141445159,0.1643027514219284
0.5281162109374975,-0.1712675074940547,0.0636161476030945,-0.0863157629281282,0.0279253609478473,0.0302884299308061,0.1491129696369171
0.5380810546874955,-0.1523369258463382,0.0344748087927699,-0.0980938790053129,0.035181675106287,0.0214272942394018,0.1328551620244979
0.5480449218749968,-0.1583421941431239,0.0495386685423552,-0.0738221920579671,0.0337158441543579,0.0186658892780542,0.1151129007339477
0.5580100097656242,-0.1773534398116171,0.0752963562637567,-0.037790509212017,0.0287133622914552,0.0175481606274843,0.0981829166412353
0.5679738769531255,-0.2111268223367631,0.0600770136915147,-0.0038537528187036,0.0216261520981788,0.0210406426340341,0.0832847133278846
0.5779379882812492,-0.2302536572089418,0.0439814728066325,0.0451093077927827,0.0093921227380633,0.0202395636588335,0.0705092698335647
0.5879030761718766,-0.2355207839569076,0.0375111077487468,0.0819569831967353,0.0049836374819278,0.0200612787157297,0.0591931864619255
0.5978671875000003,-0.2229939318716526,0.036098902863264,0.0780161366164684,0.0040009310469031,0.0216461271047592,0.0511818677186965
0.6078320312499912,-0.1799425795219838,0.0234518949970602,0.0520025744378566,-0.0020434274338185,0.0162940248847007,0.0436083972454071
0.617796142578122,-0.1553673795834183,0.0033123394183814,0.0298638078659772,-0.0036482480354607,0.010734942741692,0.0346806794404983
0.6277607421874976,-0.1411964866181835,-0.0014143968425691,0.0499263526856899,0.0003961054608225,0.010173468850553,0.0308353342115879
0.6377248535156212,-0.1378044695597141,-0.0274003403618931,0.035375264763832,0.0019830828532576,0.0120094520971179,0.0228519774973392
0.6476901855468711,-0.1305903734624385,-0.0424326359294354,0.011807342171669,0.0044167973101139,0.0071456232108175,0.0169443599879741
0.6576542968750019,-0.1235801659068092,-0.0322848975330591,-0.0038560909062623,0.0036964118480682,-0.0003644912503659,0.0140881184488534
0.6676188964843703,-0.1143038035174831,0.0017430442750453,0.0111871644467115,0.0011711800470948,-3.29234171658e-05,0.0106536373496055
0.6775830078125011,-0.0854704346777871,0.0086260817870497,0.0071948799401521,-0.0058606304228305,0.0005588310305029,0.00628392258659
0.6875480957031215,-0.064595733224973,0.0127801327265799,0.001555412748456,-0.0087005943059921,-0.0036982591263949,-0.001010188832879
0.6975119628906228,-0.056501895151101,0.0127421388037502,0.0178314247667789,-0.0140961585566401,-0.0017783865332603,-0.0041697626002132
0.7074770507812502,-0.0477396928289905,-0.0017876140691339,0.0582809240549802,-0.0116726486012339,0.0029340491164475,-0.0109339049085974
0.7174409179687515,-0.0412875575475394,-0.032770781353861,0.059918754389882,-0.0158380977809429,0.005619048140943,-0.0144109288230538
0.7274052734374976,-0.0252102099064737,-0.0538178071662783,0.0370469973683357,-0.0159124173223972,-0.0029422014486044,-0.0124950613826513
0.7373701171874956,-0.0272111744653433,-0.0610487813331186,0.0359825830072164,-0.0217311605811119,-0.003398933680728,-0.0202115699648857
0.7473339843749969,-0.0409996805168688,-0.0644029140666127,0.0535053802162408,-0.0196556951850652,-0.0057686804793775,-0.0230537131428718
0.7572990722656243,-0.0453113331709057,-0.0543637506112456,0.0629956776171922,-0.0230336487293243,-0.0008005532436072,-0.0315531902015209
0.7672629394531256,-0.0538283285602927,-0.0345686245560646,0.0709790775865316,-0.0224366150796413,0.006443285383284,-0.0353524833917617
0.777228027343746,-0.0430774001063778,-0.0086123455226421,0.0557388383567333,-0.0193944852799177,0.0089660976082086,-0.0432253256440162
0.7871918945312473,-0.0464722667090594,0.0154810622483491,0.0148427643448114,-0.0190114267170429,0.0080211255699396,-0.0476445108652114
0.7971569824218747,-0.0386726258087903,0.039433600243926,-0.018265724530816,-0.0065904431976377,0.0043717962689697,-0.0507135391235351
0.8071210937499984,-0.0125441320136189,0.0366693962275981,-0.0636971038848161,0.0011109635233879,0.0005367649719119,-0.0457619316875934
0.8170861816406259,0.0274074276898056,0.0119232236362993,-0.1025952820777893,0.0138342157006263,-0.0135947670787572,-0.0431810617446899
0.8270500488281272,0.0304041983529925,-0.0010603227078914,-0.1101765309870243,0.0250790920108556,-0.0153142660856246,-0.0465375892817974
0.8370148925781251,0.0186131497289985,0.0030415596529841,-0.0887730929523706,0.0333332940936088,-0.022885899990797,-0.0439519248902797
0.8469790039062488,0.0133249071277678,-0.0088480539746582,-0.0467839630067348,0.034729927778244,-0.0222071763128042,-0.0434574857354164
0.8569438476562468,-0.0281948517404496,-0.0240057294875383,0.0083148238807916,0.0367810912430286,-0.0198580026626586,-0.0451493933796882
0.8669082031249999,-0.0764228395430371,-0.0210563781626522,0.0239800105243921,0.0324518233537673,-0.0238540470600128,-0.0484019331634044
0.8768720703125013,-0.0952183601016178,-0.0221165547400712,0.0704664518892765,0.0253558307886123,-0.0257867034524679,-0.0541434399783611
0.8868371582031216,-0.0779598033193498,0.015104630151391,0.1166425121307373,0.0194545648992061,-0.0221517942845821,-0.0567120984196662
0.8968010253906229,-0.0612439020464196,0.0091892686277627,0.1366138715356588,0.0108482921496033,-0.0195765178650617,-0.0646017119288444
0.9067661132812503,-0.0599316869366914,0.0013650047428905,0.1101093109697103,0.007701463997364,-0.0150874312967062,-0.0732318609952926
0.9167299804687516,-0.0511444232385605,0.0018900515303015,0.0732429308652877,0.0048920949921011,-0.0191687252372503,-0.0784266218543052
0.9266948242187567,-0.045147192117758,0.0050460313431918,0.0478524690210819,0.0016073519363999,-0.0247712172567844,-0.083841897547245
0.9366589355468733,-0.0281954362623393,-0.0088346099711954,0.037507016095519,-0.0031445259228348,-0.0310789160430431,-0.0902806222438812
0.9466242675781231,-0.0225242952907457,0.0274538241147994,0.0488525859743356,-0.0089066550135612,-0.0327882915735244,-0.0967228189110755
0.956587890625002,-0.0339899478852748,0.0529812102116644,0.0964595558017492,-0.0212139207869768,-0.0265719387680292,-0.1026283800601959
0.9665529785156224,-0.0504179355949163,0.0517586826793849,0.1182645603746175,-0.0295294523239135,-0.0185655988752841,-0.1094071865081787
0.9765170898437461,-0.0404726975006982,0.0400305432237684,0.1150356614559888,-0.0366856306791305,-0.0129196969792246,-0.1086338013410568
0.9864819335937511,-0.040059513589926,-0.0057373746082186,0.0815039787322282,-0.0374055430293083,-0.0131691712886095,-0.1084082201123237
0.9964458007812453,-0.0061571343902498,-0.0670000909529626,0.012758359286189,-0.0410279743373394,-0.017624108120799,-0.1073868945240974
1.0064111328125023,0.0248716256018728,-0.0937488355383276,-0.0289297418862581,-0.0432591065764427,-0.0295931957662105,-0.1102068796753883
1.016375244140626,0.0064682096334174,-0.0619422230415046,-0.0112111298441886,-0.0432649701833725,-0.0390727184712886,-0.108016163110733
1.026340087890624,-0.0212009011998772,0.0001022913306951,0.0774316147267818,-0.0399313606321811,-0.0304434224963188,-0.1045711264014244
1.0363039550781252,-0.0413493342047557,0.0247162158444523,0.1207125380486249,-0.0310422591865062,-0.0274385772645473,-0.1058736816048622
1.0462690429687456,-0.0031020576685667,0.0188300804153084,0.0253635738372802,-0.0231365710496902,-0.0316400714218616,-0.1068957969546318
1.0562329101562469,0.0042191520649939,0.057532589905709,-0.0740507401168346,-0.0092457896098494,-0.049953032284975,-0.1063288077712059
1.0661970214843706,0.0320468144608661,0.0337777664393186,-0.1052373210191726,-0.003416224848479,-0.062619999051094,-0.1049538254737854
1.0761621093750051,0.0167533472064882,-0.001059153664112,-0.0462754289627075,-7.15609639883e-05,-0.0619475543498992,-0.1087086126208305
1.0861259765624993,-0.0216012621616944,-0.0160683606170117,0.0475111082375049,-0.0005510216578841,-0.0534882135689258,-0.1097158715128898
1.0960910644531268,-0.0526799987753853,-0.007209054595977,0.1153600711047649,0.0026959041133522,-0.0498495362699031,-0.1105212122201919
1.1060551757812505,-0.0798388585316017,-0.0405811628438532,0.135270640233159,0.000136412680149,-0.0432878322899341,-0.1133374646306037
1.1160200195312484,-0.1062040106268599,-0.0578742429502308,0.113808165487647,-0.0012931716628372,-0.0417522527277469,-0.1178288832306861
1.1259838867187568,-0.085317582203634,0.0026437925070524,0.0713660310775041,-0.0033624479547142,-0.0368136875331401,-0.1191540732979774
1.1359489746093772,-0.0211212600924074,0.0551025862798094,0.0134358201563358,-0.004067120142281,-0.0483891144394874,-0.1216521188616752
1.1459130859375009,0.004897087859176,0.062506578925997,-0.0387573084175586,-0.0061768190935254,-0.0580990687012672,-0.1271582245826721
1.1558781738281212,-0.0046705125616863,0.0321028189644217,-0.0210042095839977,-0.0063414024189114,-0.05564896017313,-0.1400655061006546
1.1658420410156225,-0.0645836774609982,0.0309950038529932,0.0482762473911047,-0.0124305691570043,-0.0486428514122962,-0.1436785757541656
1.17580712890625,-0.1157784791799262,0.0190741183042526,0.0728735130310058,-0.0135482978075742,-0.0489515103399753,-0.1493050456047058
1.1857709960937513,-0.133545387343131,0.0012283727511763,0.0507996283888816,-0.0149840274825692,-0.0502282194793224,-0.1563387215137481
1.1957360839843716,-0.1492594180971383,0.0216734871476888,0.016083704316616,-0.0170943159610033,-0.0561683997511863,-0.1649681627750396
1.205699951171873,-0.1675271884545683,0.0641037849895656,-0.0045312136888504,-0.019544593989849,-0.0554816611111164,-0.172056958079338
1.2156647949218709,-0.1418842131540179,0.102920276248455,-0.0076028762191534,-0.0188745446503162,-0.053804937750101,-0.1781353652477264
1.2256289062500016,-0.1073410883653908,0.1210718728803098,-0.0289864405095577,-0.0160014107823371,-0.0527554899454116,-0.184280052781105
1.2355942382812515,-0.0777910591563209,0.1088762620434165,-0.0765402188450098,-0.0057911183685064,-0.0579310767352581,-0.1921920478343963
1.2455581054687457,-0.070596617607586,0.0628119916133582,-0.1320528472304344,0.0022055990993976,-0.0660087838768959,-0.2010742872953415
1.2555229492187507,-0.0660783364655449,0.0317439225241541,-0.1371668292433023,0.0119458436965942,-0.0730115696787834,-0.2057374864816665
1.2654870605468744,-0.0839617106152698,0.0295943432748317,-0.0928881270557642,0.0180696658790111,-0.0752325132489204,-0.214697927236557
1.2754511718750052,-0.1201856280976906,0.0104376612536609,-0.0619371084749698,0.0121598439291119,-0.0775947347283363,-0.2202498167753219
1.2854157714843737,-0.1187699891461059,0.0436712378136813,-0.0192658414840698,0.0012516677379608,-0.0754688531160354,-0.2263801246881485
1.2953798828124903,-0.119093375881575,0.0603906096853315,0.0402770653307437,-0.013647386804223,-0.0702629089355468,-0.2456331700086593
1.3053452148437472,-0.1609509518694132,0.0104059509411454,0.0953571475178003,-0.0182152781635522,-0.0572879612445831,-0.2545840740203857
1.3153090820312485,-0.1561187094073742,0.0089759181380271,0.0920703809320926,-0.0173729211091995,-0.0481069795787334,-0.260395884513855
1.325274169921876,-0.1534596097333356,0.0291781636893749,0.0088876553326845,-0.0175761543214321,-0.0549368932843208,-0.264378160238266
1.3352380371093773,-0.1141878855202346,0.0064516603574156,-0.0884849236607551,-0.0148131251335144,-0.0636206641793251,-0.2654583156108856
1.3452028808593752,-0.0831810816315934,-0.0684115651860833,-0.1167822128623723,-0.0112645979970693,-0.0697774812579155,-0.2703790068626404
1.355166992187506,-0.1206979615340009,-0.1238989129997789,-0.0789297443300485,-0.0028410195372998,-0.0754449516534805,-0.2745274305343628
1.3651320800781264,-0.1405932234954089,-0.1309415249876677,-0.0298889423072338,0.006964549422264,-0.0743086636066436,-0.2768691480159759
1.3750959472656206,-0.123468851019442,-0.118655313257873,-0.0289531227618455,0.0082761561498045,-0.0759177431464195,-0.2794547975063324
1.385064453124997,-0.0977706384003162,-0.0926781375668942,-0.009177578189969,0.0169601924717426,-0.0729547068476677,-0.2852855324745178
1.3950283203124911,-0.099341942837648,-0.067064680621773,-0.020983166795969,0.0241848155856132,-0.0803425833582878,-0.2901484668254852
1.4049936523437552,-0.0880953032886609,-0.0271212311595678,-0.0606038140445947,0.0303927138447761,-0.0875377357006073,-0.2977247238159179
1.4149575195312494,-0.0719491281950846,0.039605157418549,-0.0666810881316661,0.0401143170893192,-0.0894096717238426,-0.3013665974140167
1.4249226074218768,-0.0577910947114229,0.0500987866431474,-0.0589063624769449,0.050577238202095,-0.0908852145075798,-0.3090201914310455
1.4348867187500005,-0.0467365802010521,0.0288994928784668,-0.0517646740287542,0.0563011728227138,-0.0890987664461135,-0.3140767216682434
1.444851318359376,-0.0513229581432417,0.0087381638593971,-0.0497013117581605,0.0636252239346504,-0.0928520560264587,-0.3260979652404785
1.4548154296875069,-0.0638817397367209,0.056212154956907,-0.0427191977858543,0.0695792511105537,-0.0963495820760726,-0.3353564441204071
1.4647807617187567,-0.0834981847567483,0.0833493143379688,-0.0353583136290311,0.073674164712429,-0.0986902639269828,-0.3471968472003937
1.474744628906251,-0.1086256848158314,0.1081948556505143,-0.0268324773460626,0.0720997005701065,-0.1013539582490921,-0.3601616322994232
1.4847094726562489,-0.0985217855611816,0.145559979057312,-0.0280412686139345,0.0751292631030082,-0.0958867073059082,-0.3661154210567474
1.4946735839843726,-0.0702386344827711,0.1328288000389933,-0.0549222612768411,0.0783306509256362,-0.1048021763563156,-0.3737893402576446
1.5046376953124962,-0.0331757819581776,0.0934893078193068,-0.0863297914534807,0.0821912214159965,-0.1196392178535461,-0.3783915042877197
1.5146025390625013,-0.0236147574085742,0.0585056727215647,-0.0742336954683065,0.0865252465009689,-0.1259841918945312,-0.3823620080947876
1.5245664062499955,-0.0150041654516011,0.0637060178436338,-0.0330021058917045,0.0866012722253799,-0.1302930265665054,-0.3854251205921173
1.534531494140623,-0.0128847621448338,0.0949105727940797,-0.003211363261938,0.0777529180049896,-0.1322312653064727,-0.3932095468044281
1.5444953613281243,-0.0157064319694414,0.0949278161898255,0.066101242417097,0.0688648745417594,-0.1261041611433029,-0.3989785313606262
1.554460693359374,-6.18497224524e-05,0.1076274310261011,0.1012590650379657,0.0650749281048774,-0.1184337139129638,-0.4042081832885742
1.5644245605468754,0.0120276338588446,0.1147023378483951,0.0780512079298496,0.0542831569910049,-0.1202293559908866,-0.4079134166240692
1.5743894042968734,0.0302277823401615,0.0655406859248876,0.040196401309967,0.0517281219363212,-0.119214691221714,-0.4082460403442383
1.584353515624997,0.074849745007418,-0.0142227327503263,0.0221668236225843,0.0443842746317386,-0.1160280779004097,-0.4043075740337372
1.5943186035156245,0.0869931507330387,-0.0396492888212203,-0.0181178404927253,0.0498813055455684,-0.1210531964898109,-0.4039541780948639
1.6042824707031258,0.0581834184972569,0.0087923782646656,-0.0277975229859352,0.0507650822401046,-0.1291735619306564,-0.3982426822185516
1.6142475585937461,0.0416815253011882,0.0455462379053235,0.0055716626524925,0.0425758622586727,-0.1316351145505905,-0.3895581066608429
1.624211669921877,0.0528447974156588,0.0681375705502927,0.0727665455251932,0.0361307114362716,-0.1217797920107841,-0.3815872967243194
1.6341765136718749,0.0877547096900641,0.0642376405023038,0.1069984854727983,0.0288810525089502,-0.1106043681502342,-0.3753094375133514
1.6441403808593762,0.1157331422008574,-0.0126908470079302,0.0477653752595186,0.0285015329718589,-0.1101012751460075,-0.3653979301452636
1.6541054687499965,0.1347180478516966,-0.0790647688865661,-0.0368985288083553,0.0311186201870441,-0.1224311888217926,-0.3568657040596008
1.6640695800781273,0.1272141019623726,-0.1149219719484448,-0.0266465993851423,0.0381382182240486,-0.1252043694257736,-0.3427698612213135
1.6740344238281253,0.1064567798115313,-0.1232727439254522,0.0056213470131158,0.0417452044785022,-0.1243052780628204,-0.3320975005626678
1.6839982910156266,0.0778034802464768,-0.0898524126216769,0.0416278954178094,0.0387481376528739,-0.1225881353020668,-0.3238100111484527
1.6939636230468764,0.0759396226033568,-0.0327285496473312,0.0773439364433288,0.0353118628263473,-0.114684410393238,-0.3172636926174164
1.7039274902343706,0.080373367267102,0.0311462488919496,0.0757721570819616,0.0282692108303308,-0.1073722466826438,-0.3132357001304626
1.7138916015625014,0.0994367815142497,0.0872824160031974,0.0575461800396442,0.0212166272103786,-0.1013263389468193,-0.3104127645492553
1.7238566894531218,0.132770457447879,0.1117950720995664,0.0326975699871778,0.0213251709938049,-0.1005667001008987,-0.3044768273830414
1.733820556640623,0.1652571976959705,0.0713464495941996,-0.0083072250962257,0.0188071522861719,-0.1013672426342964,-0.3043511211872101
1.743785400390621,0.1677342553339898,0.0328780411206185,-0.0208002114444971,0.0163132920861244,-0.1066271737217903,-0.3022980988025665
1.7537495117187518,0.1529797903271391,-0.0067953592285513,0.0155605572253465,0.0141505394130945,-0.1028081998229026,-0.2995577156543731
1.7637145996093722,0.115423893588595,-0.0192388073466718,0.0460737689107656,0.0103188585489988,-0.0963072404265403,-0.2968183755874634
1.7736784667968735,0.0890950549157336,-0.0044433892749249,0.0681447309434413,0.0080961845815181,-0.0878807306289672,-0.2927296161651611
1.783643554687501,0.1053667560851201,0.0027472528815269,0.0574210923552513,0.0081039248034358,-0.0846074298024177,-0.2876293361186981
1.7936076660156246,0.1241592809690162,0.0094078798145055,0.0248334124833345,0.0094746528193354,-0.0851224884390831,-0.2804489433765411
1.8035725097656226,0.1743565595505759,-0.0038747956067323,-0.0210842890828847,0.0136343212798237,-0.0896952152252197,-0.2751500308513641
1.8135363769531239,0.1939787036590278,-0.0140263333953917,0.0013560907840728,0.00996954459697,-0.0898334309458732,-0.2724802196025848
1.8235014648437513,0.1699910760837607,-0.01920008277148,0.0525824201524257,0.009410910308361,-0.0830872058868408,-0.2709952592849731
1.833465576171875,0.1354800634664483,-0.006062953300774,0.0879798967480659,0.0071115363389253,-0.072619654238224,-0.2675419151782989
1.8434306640624953,0.1293082794963382,0.0021514789454638,0.087552611246705,0.0086949225515127,-0.0670905634760856,-0.2625102400779724
1.8533945312499966,0.1359231675914488,-0.005793634840101,0.04069441395998,0.0078986380249261,-0.0642907842993736,-0.257796436548233
1.8633593750000017,0.1475192598989233,-0.0110987555108964,-0.0130289929211139,0.0086605083197355,-0.0697049275040626,-0.2541044652462005
1.8733234863281254,0.1648334010596387,0.013245266020298,-0.0151169051110744,0.0117947831749916,-0.0728828758001327,-0.2509395778179168
1.8832885742187457,0.1729489395086653,0.0434491194956004,-0.0226209971308708,0.0242394171655178,-0.0746216103434562,-0.2528413534164428
1.893252441406247,0.1517428872096352,0.0799529498979449,-0.0201660051941871,0.0316837541759014,-0.0734966918826103,-0.2491803169250488
1.9032163085937555,0.1514727102324366,0.1142696455195546,0.0091693948835134,0.0364464856684207,-0.0708179920911789,-0.2491999566555023
1.9131816406250053,0.1505816431442275,0.1393153855793178,0.0255512053638696,0.037803366780281,-0.0659406781196594,-0.246157556772232
1.9231457519531219,0.1473757963076233,0.1298496380977332,0.0263859026223421,0.0374785587191581,-0.0619350969791412,-0.2404825836420059
1.933110595703127,0.1644605491592548,0.069776277668029,0.029582652837038,0.0389659330248832,-0.0631987676024437,-0.2374961078166961
1.9430744628906211,0.1585639471350237,-0.0058997255630791,0.0463344656735658,0.0436798743903636,-0.061561893671751,-0.2305232137441635
1.9530395507812486,0.1561976015961728,-0.0620800240769982,0.0353629898041486,0.0423943698406219,-0.0690773352980613,-0.2250797152519226
1.9630036621093723,0.1465900162247941,-0.0795898156739771,0.0394008670181035,0.0381884574890136,-0.0707839056849479,-0.216495543718338
1.9729687499999997,0.1352689232001081,-0.0550816896222531,0.064428340768814,0.0288546122610569,-0.0690496563911438,-0.2085212469100952
1.982932617187501,0.1216696743766777,-0.0061178983584046,0.0783902306258678,0.0109812645241618,-0.0653595179319381,-0.2076038271188736
1.992897460937506,0.1038185585287399,0.0065127428948879,0.1006383027911186,-0.0038384273648262,-0.0649195611476898,-0.2062512040138244
2.0028615722656227,0.0825392035314813,0.0443475296400487,0.119227852448821,-0.021527012810111,-0.0615981929004192,-0.2034516632556915
2.01282666015625,0.0799896834454499,0.0831225198447704,0.0973521207273006,-0.0387566015124321,-0.0659956037998199,-0.2014295309782028
2.0227905273437514,0.0855298915137536,0.1037080656252801,0.046996144452691,-0.0549628101289272,-0.0724374428391456,-0.2041845470666885
2.0327553710937565,0.0747691723181866,0.09341346610412,0.0619967297077178,-0.0604025833308696,-0.0684339106082916,-0.2096839845180511
2.042719482421873,0.0676439783470705,0.0559359683640301,0.0805506235301494,-0.0635029226541519,-0.058451697230339,-0.2096440196037292
2.052684814453123,0.056921253074333,0.034936142694205,0.0719195733070373,-0.0670137703418731,-0.0624251328408718,-0.207958772778511
2.062648437500002,0.0406897743174806,0.0129991823047399,0.0447428125679492,-0.0657858029007911,-0.0601622313261032,-0.2067513018846511
2.072613525390622,0.0519789195676334,-0.0049907940246164,0.0244032043725252,-0.0608632192015647,-0.0633223354816436,-0.2037664353847503
2.082577636718746,0.0714118064479902,-0.0480031295381486,0.0093161098778247,-0.056815929710865,-0.0639892518520355,-0.2021168321371078
2.0925417480468766,0.0738621039432473,-0.0642559068113565,-0.0044826983720064,-0.0566388294100761,-0.0689669698476791,-0.1911355555057525
2.102506347656252,0.0730730541910976,-0.0807208655305206,0.0005704933643341,-0.0592253543436527,-0.0768240466713905,-0.1852473318576812
2.112470458984376,0.0815306658097542,-0.0854072697810828,0.0396440281242132,-0.0588157586753368,-0.0745062977075576,-0.1814251691102981
2.1224355468749962,0.0691851799070835,-0.0709475134044885,0.0691290658056736,-0.0582435317337513,-0.0724633112549781,-0.1800659447908401
2.132399658203127,0.0582272759052924,-0.0280018133863806,0.037135844695568,-0.0599548816680908,-0.0730151236057281,-0.1793373078107834
2.142364501953125,0.0749071925493888,0.0261596926510334,-0.0132633861988782,-0.0577954947948455,-0.0762397721409797,-0.1745875626802444
2.1523286132812487,0.0972011862155981,0.035071313381195,-0.0468009141415357,-0.0564620532095432,-0.0791404843330383,-0.1726911216974258
2.1622934570312466,0.112965303189028,0.0075692662104964,-0.0611316373109817,-0.0505335927009582,-0.0769074037671089,-0.1690561175346374
2.1722575683593703,0.1218536161088384,-0.046362961115688,-0.0713449882894754,-0.0388923846185207,-0.0786826685070991,-0.1625958085060119
2.1822226562499907,0.1136379782862029,-0.0699414051018655,-0.0995616134703159,-0.0323128141462802,-0.0843956470489502,-0.1593632996082306
2.1921862792968767,0.1050354600378312,-0.0620255174107849,-0.0775309834480285,-0.0225073229521513,-0.0888947919011116,-0.154456689953804
2.2021516113281265,0.0816217781593091,-0.0506043980777263,0.0066343234479427,-0.0184052549302577,-0.0885491147637367,-0.1518696993589401
2.2121157226562502,0.054623132199794,-0.0144669167697429,0.0394996512174606,-0.0181132219731807,-0.0805339366197586,-0.1540318727493286
2.222080566406248,0.0583174018741585,0.0368954600684344,0.0437654919683933,-0.0258561447262763,-0.0722110047936439,-0.1483639627695083
2.2320444335937566,0.1070314744269475,0.0659656333386898,0.018899930781126,-0.0307630188763141,-0.0678892284631729,-0.1434672027826309
2.242009521484377,0.1525014139593578,-0.0092370532922446,-0.0247533329844474,-0.0276950076222419,-0.0721495077013969,-0.1417270004749298
2.2519736328125006,0.1567446227533742,-0.0820239109531044,-0.0422819754123687,-0.0225135628134012,-0.0808378085494041,-0.1386638581752777
2.261938720703121,0.1222111973748542,-0.0961463981993496,-0.0207721543937921,-0.0133274067193269,-0.0786826387047767,-0.1295734494924545
2.2719025878906223,0.0989892386761494,-0.0888026113077998,-0.0026420389413833,-0.013015016913414,-0.0767332017421722,-0.1204734295606613
2.281866699218746,0.0886251175827346,-0.0645765170678496,0.0074947396695613,-0.0127008222043514,-0.078213058412075,-0.1166538968682289
2.291831542968751,0.0862165038047358,-0.0504275802060961,0.0121428577363491,-0.0161655955016613,-0.0749251171946525,-0.1168408542871475
2.3017954101562523,0.0835072631123475,-0.0521764697000384,0.0306564195483922,-0.0224209167063236,-0.0665765702724456,-0.11430025100708
2.3117604980468727,0.0868744927894324,-0.0130776543684303,0.021132219877839,-0.0286551117897033,-0.0696192309260368,-0.1116061955690383
2.3217246093749964,0.0981508333569392,0.0289053380973637,-0.0123994628459215,-0.0379859395325183,-0.0708158612251281,-0.108825534582138
2.3316894531250014,0.1041762311263009,0.0310363587766885,-0.0086065003037452,-0.0494883954524993,-0.0711644664406776,-0.105237990617752
2.341653564453125,0.1190379011009819,-0.0431003060579299,0.0002086743146181,-0.0513222105801105,-0.0681889727711677,-0.1035655587911605
2.351618408203123,0.1024891730885021,-0.0978014719299972,0.0175502697378397,-0.0472638197243213,-0.0655761435627937,-0.1012166514992713
2.3615825195312468,0.080777491088584,-0.1115326217710971,4.50081855058e-05,-0.0383577719330787,-0.0642407163977623,-0.0951198264956474
2.371547607421874,0.0682101973950862,-0.1041172309480607,-0.039237785410881,-0.0387908034026622,-0.0695870146155357,-0.086069606244564
2.381511718749991,0.0551390458326786,-0.0926147169418633,-0.0496843606233596,-0.0383105017244815,-0.0657495409250259,-0.0803241282701492
2.3914763183593735,0.0898481383053585,-0.0908352861791849,-0.0543348167777061,-0.0351434722542762,-0.0658933520317077,-0.0786106511950492
2.401440429687497,0.0877455491360742,-0.0968051543690264,-0.0422708694964647,-0.0318849310278892,-0.063025839626789,-0.0790014043450355
2.4114055175781246,0.0738891654801089,-0.0784507286414504,-0.0216577050566673,-0.0246086418628692,-0.0544097162783145,-0.0801702663302421
2.421369384765626,0.0800512226406484,-0.0236098620377481,-0.0399643461197614,-0.0085106771439313,-0.0461437478661537,-0.0851540714502334
2.4313347167968757,0.0727937805919907,0.0246997031010687,-0.0877355665981769,0.0060131382197141,-0.0490388721227645,-0.0851977467536926
2.441298583984377,0.0709616880603134,0.0453330335460603,-0.1072299561411142,0.0199734270572662,-0.0486162267625331,-0.0830174162983894
2.451263427734375,0.0655183005631435,0.0290405087843537,-0.1227297230899333,0.0357257574796676,-0.0480838604271411,-0.0865338593721389
2.4612275390624987,0.0629471440340392,0.0109536479517817,-0.128590139555931,0.0445457473397254,-0.0498014576733112,-0.0883298739790916
2.47119140625,0.0578201107433531,-0.0041508360691368,-0.0863549258947372,0.0548718832433223,-0.0482099503278732,-0.0907613337039947
2.481156249999991,0.0448571961952373,-0.0004432137228548,-0.0415928241044282,0.0603350959718227,-0.046482890844345,-0.0949078798294067
2.4911203613281216,0.0257712778553366,0.0256394681692123,-0.0026443770289421,0.0650981590151786,-0.0425025299191474,-0.0982472151517868
2.5010856933593715,0.0102898411476518,0.0461463957555592,0.0126566524773836,0.0605589896440506,-0.0326271839439868,-0.0936404690146446
2.511049560546873,0.0165492394691333,0.0107090255409479,0.0311146847099065,0.0619470328092575,-0.0248853750526905,-0.0958010926842689
2.5210144042968707,0.019976053846348,-0.0267522517167031,0.0216781633228063,0.0644406154751777,-0.0199559517204761,-0.0940927416086196
2.5309785156250015,0.0282678530445788,-0.040015491785109,-0.0171481186777353,0.0690974220633506,-0.024093173444271,-0.0900758951902389
2.540943603515622,0.0510579322651959,-0.0236038706883788,-0.0512163924962282,0.0796732828021049,-0.0292404498904943,-0.0847125500440597
2.550907226562501,0.0653226227274164,0.0099964933574199,-0.0911719707876443,0.0862443670630455,-0.0352741070091724,-0.0848366543650627
2.560872314453121,0.0995756602619774,0.0198483175471425,-0.0928530557423829,0.0966907814145088,-0.0408756807446479,-0.0821779742836952
2.570836425781252,0.1008476620923262,0.0447904511019587,-0.1044002856731414,0.0991874933242797,-0.0430051460862159,-0.0825574770569801
2.5808015136718723,0.0891474518232513,0.0450860730476677,-0.0763110862642526,0.0970042496919632,-0.0429545640945434,-0.0794580727815628
2.590765624999996,0.0770604433268308,0.0253233879573643,-0.0324859730631113,0.0962266102433204,-0.0374098606407642,-0.0761381760239601
2.600730468750001,0.0546730266229715,-0.0086931556738913,0.0149970781236886,0.0911597535014152,-0.0379202105104923,-0.0760168060660362
2.6106945800781247,0.0573505661359988,-0.0198258134543895,0.0249064777195453,0.0850640460848808,-0.0356711708009243,-0.0740673691034317
2.6206594238281227,0.0459332187957596,0.0092820614777505,0.0352145212441682,0.0803152471780777,-0.0341554582118988,-0.0715965032577514
2.6306235351562464,0.0391902108089532,0.0443565897293388,0.0563631077349185,0.0736506879329681,-0.0285327285528183,-0.0754218697547912
2.6405874023437548,0.0371728522377088,0.0552175909616053,0.0867220056414604,0.0621809177100658,-0.0260705463588237,-0.0776103883981704
2.650552490234375,0.0313316793282981,0.0215912156917154,0.1251484746694564,0.0488272942602634,-0.015455718152225,-0.0773978680372238
2.660516601562499,0.0402890023637097,0.0089643738307058,0.1525035145848989,0.0463059172034263,-0.001311786705628,-0.0731347277760505
2.6704816894531263,0.0660901182348839,-0.0066037821792066,0.117661333784461,0.0439540818333625,-0.0025123397354036,-0.0637350976467132
2.680445312499991,0.092094090601243,-0.0415099681265652,0.0212917943537235,0.034897856414318,-0.0086960326880216,-0.0555535294115543
2.6904104003906255,0.1025812261529732,-0.0679816493362188,3.44867914915e-05,0.0319484062492847,-0.0216650944203138,-0.0455253981053829
2.7003745117187563,0.1126117770436219,-0.0597381371259689,0.0280500364422798,0.0315943211317062,-0.0230271648615598,-0.0378592535853385
2.710339355468747,0.1170900732351467,-0.0635651480682194,0.051378889581561,0.0237451866269111,-0.022989347577095,-0.0312415659427642
2.720303466796871,0.1022097990246955,-0.0594638502292335,0.1014817678779363,0.0173145104199647,-0.0144396005198359,-0.0263048820197582
2.7302685546874983,0.0878123398951254,-0.0656485302135348,0.1231307051062583,0.0125519800931215,-0.0029105099383741,-0.0212595239281654
2.740232666015622,0.0764309132516384,-0.0900242620572447,0.1200263093501329,0.0099782887846231,0.0010717161931097,-0.0173000004142522
2.750197509765627,0.0805044006350915,-0.078434654289484,0.1133528229355812,0.0096211601048707,-5.34693244844e-05,-0.0085102384909987
2.7601613769531212,0.0754633742605801,-0.0831108294069767,0.0796603966921567,0.0044341161847114,-0.0026481747627258,-0.0036041070707142
2.770126464843756,0.0790988720855675,-0.0858756179451942,0.0295166018635034,-0.0006828815676271,-0.0064394511282444,0.0009088851511478
2.78009033203125,0.0753004844496026,-0.0627625995136797,0.0157709851056337,-0.0133375171571969,-0.0030669965781271,0.006814441177994
2.7900556640625,0.0489296606653835,-0.0028470599941909,0.0385334365338087,-0.0158739127218723,-0.0011612381786108,0.006013095844537
2.8000197753906235,0.0009555471591651,0.0440286729492247,0.0583002132773399,-0.0235805995762348,0.0020572191569954,0.0092725194990634
2.809983642578125,-0.0040840544432401,0.0364681745670735,0.0279214416265487,-0.0274837296456098,0.0079230973497033,0.0098602790385484
2.819948486328123,0.0105590591436252,0.0398753526620566,-0.0058773676007986,-0.024573765695095,0.0100638354197144,0.0131964851170778
2.8299125976562465,0.0401961912474129,0.0363195598766207,-0.0626151538670062,-0.013978112488985,-0.0015419539995491,0.016423437744379
2.8398774414062515,0.0581657823758665,-0.0109817050024867,-0.0962029506921768,-0.0075927036814391,-0.011100529693067,0.0167381912469863
2.8498413085937457,0.0539921316867228,-0.0651857350073754,-0.0888444046229124,0.0041158841922879,-0.0120874969288706,0.0200093537569046
2.859806396484373,0.0261649533480405,-0.0900470584109425,0.0109521866470575,0.010171553120017,-0.0101174637675285,0.0193768478929996
2.8697707519531264,-0.001484046278987,-0.0720097358085215,0.0807207194000482,0.013578800484538,-0.0047682379372417,0.021307373419404
2.8797355957031243,-0.0065564359061419,-0.0429933385521173,0.1194172375410795,0.0074118450284004,0.0050275670364499,0.0230206586420536
2.8896994628906256,0.0146907338545657,-0.0719556675337255,0.1016319900035858,0.0072147715836763,0.014283649623394,0.0243367943912744
2.899664550781246,0.0287422564901411,-0.1011997360661625,0.0971919617295265,0.0026741735637187,0.016124302521348,0.0255076810717582
2.9096284179687473,0.0436538482874631,-0.1068450484767556,0.0523188007801771,-0.0057137189432978,0.0133144007995724,0.0270424615591764
2.9195935058593747,0.0562496465562377,-0.1002045875489711,0.0168681326925754,-0.0094599705189466,0.0068519599735736,0.0275551304221153
2.929557373046876,0.0570416280509903,-0.0963331529431045,0.0246411047816276,-0.0182870179414749,0.0111316600814461,0.0295309275388717
2.9395224609374964,0.0290851699099875,-0.0947977600693702,0.0749994191437959,-0.0164054464548826,0.0232764203101396,0.0317344032227993
2.949486572265627,-0.0176629819978494,-0.039835605173558,0.1010696799457073,-0.0152240674942731,0.0260919146239757,0.034093964844942
2.9594516601562475,-0.0426227973398286,-0.0167542970545589,0.0462239910364151,-0.0174625962972641,0.0235482081770896,0.0385545156896114
2.969415527343756,-0.0361516742301173,-0.0321316066674888,0.0058230070650577,-0.0093074655160307,0.0241641998291015,0.0401737168431282
2.97937939453125,-0.007438634701306,-0.0281188638947904,-0.0032014263898134,-0.0013910909183323,0.0197085961699485,0.0435412488877773
2.9893444824218705,0.0135484593511093,-0.0559393293648958,-0.0380383464932441,0.009655169211328,0.0168947018682956,0.0428565517067909
2.9993085937500013,0.0223810326288454,-0.114583095382899,-0.0447661934435367,0.0265527516603469,0.0143859218806028,0.0439943149685859
3.009273437499999,0.0281409661287441,-0.1332736211970448,-0.0439577996701002,0.0429996326565742,0.0123347556218504,0.0405902601778507
3.019237548828123,0.0006330189402215,-0.0919425167687237,-0.0271311680316925,0.0516989454627037,0.0107072042301297,0.0325856022536754
3.0292026367187503,-0.0386828549418598,-0.0276623522989451,0.0323608853787183,0.058805588632822,0.014320314861834,0.0240957103669643
3.0391665039062516,-0.0505155964162666,-0.0021156769797205,0.0748871909409761,0.0554798878729343,0.0267692189663648,0.0176261253654956
3.0491313476562496,-0.0424195298526901,0.0150979081496596,0.0731330407500267,0.0553046502172946,0.0299194734543561,0.0095466263592243
3.0590954589843733,-0.0278720038610976,0.0702095545187592,0.0334323140025138,0.0499184168875217,0.0207770839333534,0.0002619996666908
3.0690603027343712,-0.0116421142731327,0.1547301045931875,0.0341477687954902,0.0410796515643596,0.0184870306402444,-0.0103168748319149
3.079024414062502,0.001628395786276,0.2038105079740285,0.0939180546253919,0.0394308716058731,0.0237896647304296,-0.0174155421555042
3.088989746093752,0.0200451461603399,0.15856749079898,0.0857172125130891,0.0343239977955818,0.0253228452056646,-0.0232654400169849
3.098953613281246,0.0163688140014652,0.0846935685537755,0.0881084915637969,0.0296189598739147,0.0250456500798463,-0.0310109406709671
3.108918457031251,-0.0060342203966341,0.043782735364139,0.0960609118729829,0.0283635482192039,0.0242621470242738,-0.0337617173790931
3.118882568359375,-0.0201273902168497,0.008653554315865,0.1086602812051773,0.0162155479192733,0.0216314531862735,-0.0362859107553958
3.1288476562500023,-0.0246815737893339,0.0007012801371514,0.1482072786957025,0.0122932456433773,0.0250086076557636,-0.039918728172779
3.138811279296874,-0.0133506991561502,-0.0073749126821756,0.1590431454867124,0.0036519616842269,0.0319950096309185,-0.0431991778314113
3.148775390625005,0.002113046631217,-0.0422213312663137,0.1394137313872575,-0.0030147298239171,0.0341377891600132,-0.0417027473449707
3.1587407226562476,0.0125362683675717,-0.0149517776772379,0.1000263083726167,-0.0105331316590309,0.0288855303078889,-0.037406288087368
3.1687043457031265,0.0456464286104775,0.0331670871950686,0.0629863252669572,-0.0248470902442932,0.025768831372261,-0.031765978783369
3.178669433593747,0.0903524162993766,0.0061629065439105,0.0777934337764978,-0.0301805213093757,0.0294148884713649,-0.0251040905714035
3.1886335449218706,0.103069986917451,-0.073988488535583,0.0781985074460506,-0.0232179537415504,0.0348048582673072,-0.0224787443876266
3.1985983886718756,0.0874688419533893,-0.1165700314164161,0.0350590384215116,-0.0163058452308177,0.0318411588668823,-0.0128828100860118
3.2085624999999993,0.075268390544597,-0.0813118171609938,-0.0228103822231292,-0.0046555795706808,0.0187208279967308,-0.0039252680726349
3.2185273437499973,0.095311299082078,-0.0672656100213527,-0.0504454081237316,-0.0031748786568641,0.0195810440927743,0.0065401452593505
3.228491455078121,0.1041617276769131,-0.1092315052218735,-0.0129372229844331,0.0044635999947786,0.0232972186058759,0.014334418810904
3.2384565429687555,0.0999079426899552,-0.1708518028326332,0.0117149877130985,0.0066966181620955,0.0211864486336708,0.0194184221327304
3.248420654296872,0.0791247371791862,-0.1816710107497871,0.0199748665362596,0.0112048164010047,0.0156127195805311,0.0278848763555288
3.258385498046877,0.0729774483295157,-0.1290910748153924,-0.0075789108216762,0.0131181683391332,0.0119342161342501,0.0364445187151432
3.2683493652343714,0.0696807083390653,-0.0871327783994376,0.0167260938733816,0.0040740724653005,0.0082047255709767,0.0420249067246913
3.278314453124999,0.0650556423543021,-0.0731923697218298,0.0566366639792919,-0.0043356893584132,0.0117387678474187,0.0411132872104644
3.2882785644531225,0.0318863449358381,-0.0615592150732874,0.0980810195237398,-0.0099328551441431,0.0241725333034992,0.038365438580513
3.298242431640624,0.0112013756351545,-0.0220658474661409,0.1188093347758054,-0.0131979584693908,0.0362018533051013,0.0449919775128364
3.3082075195312513,0.0192684535662643,0.0232253927648067,0.077328738874197,-0.0153910722583532,0.0289636496454477,0.0505816861987113
3.318171630859375,0.0328476825149729,0.0122328741073608,-0.0031534955948591,-0.0183246377855539,0.0258462466299533,0.04598293825984
3.328136474609373,0.0244415453552268,-0.0146900580011308,-0.0417114820480346,-0.0192793812602758,0.0151920039206743,0.0409269258379936
3.338100341796874,0.0129616998385637,-0.0264414322018623,-0.0230395148038864,-0.0207710899412632,0.013638106174767,0.0412491261959075
3.3480654296875016,0.0035677024189382,-0.0024219664499163,-0.0071083707004785,-0.0275893155485391,0.0166884921491146,0.0398307293653488
3.3580295410156253,0.0078562299257144,-0.0290223886057734,-0.0149281045407056,-0.0377405807375907,0.0170409213751554,0.0370296090841293
3.3679943847656233,-0.0089841379771009,-0.090193481144309,-0.0162076229572296,-0.0480528697371482,0.0160006899386644,0.0317983627319335
3.377958496093747,-0.0478713746509514,-0.1233431788131594,-0.0108767833232879,-0.0527854189276695,0.0119019262492656,0.0293405186384916
3.387920410156248,-0.0812278104056604,-0.079175974176079,0.0281213481128215,-0.0607051253318786,0.0203468091785907,0.0249766632914543
3.397884033203127,-0.079349248383753,-0.1025422367163002,0.0949374608010053,-0.0679031535983085,0.0304567292332649,0.0195403322577476
3.407849121093747,-0.0447924421296454,-0.1406339208319783,0.0899497355163097,-0.073222279548645,0.0344045981764793,0.0132155921310186
3.417813232421871,-0.0226833765762858,-0.126067781471461,0.0109545247346162,-0.0766766518354415,0.034132145345211,0.004961400758475
3.427778076171876,-0.0113072106298059,-0.0860191180691122,-0.0566062688410282,-0.0781363248825073,0.0260539762675762,0.0028873309493064
3.437741943359377,-0.012503270280268,-0.0360484878502786,-0.1021048682123422,-0.0708070173859596,0.027082996442914,0.0067364173009991
3.447706054687501,-0.0092816778852604,-0.0189943310663104,-0.1213373919486999,-0.0574936047196388,0.0269053634256124,0.0104065192863345
3.4576711425781212,-0.0003843414087779,-0.0284789293788373,-0.1461520997315645,-0.0417363755404949,0.0259787626564502,0.0232925526797771
3.467635253906252,0.0327622692538425,-0.0623357524037361,-0.1456938345700502,-0.0156837347894907,0.0298555269837379,0.0369399227201938
3.47760009765625,0.0719377665508538,-0.149254449661076,-0.1271434478789568,0.013227985240519,0.0269881729036569,0.0523507855832576
3.4875642089843737,0.1055997245907783,-0.2155532604768872,-0.1365133337706327,0.0441446229815483,0.0155538916587829,0.0658189207315445
3.4975290527343716,0.1404641172230243,-0.2213699839316308,-0.140142045661807,0.0737952217459678,0.0080019272863864,0.0835153236985206
3.5074931640624953,0.1550748081113211,-0.196194772273302,-0.1203051262915134,0.1026782691478729,-0.0012147405650466,0.0910765677690506
3.5174580078125004,0.1723529829095117,-0.197419199501723,-0.0735235013723373,0.126895397901535,-0.0090520922094583,0.1002639606595039
3.527422119140624,0.1655464446998201,-0.1804226181238889,-0.0043967736542224,0.1425065845251083,-0.003868781030178,0.1026536151766777
3.5373872070312515,0.1421335848052054,-0.1344739368975162,0.0476402875751256,0.1536550521850586,-0.0009091368410736,0.1083560585975647
3.5473513183593752,0.1070640797886066,-0.0739087012976408,0.0826058024942874,0.1580181121826172,-0.0028865339700132,0.1079387366771698
3.557316162109373,0.0719812403663992,-0.037559330804646,0.0823018511116504,0.1513395458459854,-0.0034155768807977,0.1056147664785385
3.5672800292968745,0.0280089920458383,0.008503478320688,0.0753495477557182,0.1363773792982101,-0.0019601595122367,0.0958257839083671
3.577245117187502,-0.0242450912013649,0.0521976586185395,0.0977256302148103,0.1193268299102783,0.0042278920300304,0.0890547484159469
3.5872092285156256,-0.0519138184421695,0.0927666926331818,0.1034977838754653,0.1014429107308387,0.0124080572277307,0.0849388390779495
3.5971740722656236,-0.0777431100950576,0.1236369010627269,0.0802893422454595,0.0883278101682663,0.0123786116018891,0.0734358876943588
3.6071381835937473,-0.088972159188427,0.152667472974956,0.0563344661623239,0.0752628743648529,0.0101809706538915,0.0648703649640083
3.617102294921871,-0.0977713873189874,0.1819454437769949,0.0635819530725479,0.0699419900774955,0.0155771952122449,0.0548631772398948
3.627067138671876,-0.1041281542008742,0.1958217011772096,0.0571615646362304,0.0615439787507057,0.0161878578364849,0.0495594926178455
3.6370310058593773,-0.0979958802572451,0.1731328995071351,0.0481762941479682,0.0478357896208763,0.0113093070685863,0.0407377667725086
3.6469960937499906,-0.0823222363125532,0.1438157657384872,0.0338975934267044,0.0332328826189041,0.009004607796669,0.0340516343712806
3.6569602050781214,-0.0910628113247454,0.105663729737699,0.0718915162563323,0.0172531809657812,0.0051056733354926,0.0248775612562894
3.6669250488281264,-0.1121844002107158,0.0932167744882404,0.1359334880560636,-0.0059797032736241,0.0105952471494674,0.0124778831377625
3.6768889160156206,-0.1320520435128361,0.0734096657343208,0.2223416054427623,-0.02905960008502,0.0267013907432556,0.0025174177717417
3.686854003906248,-0.1479417048283852,0.0774599640384316,0.2601929049313068,-0.0509350709617137,0.0423147082328796,-0.0055658086203038
3.6968181152343718,-0.1457515743729658,0.0994469010494649,0.2339455339968204,-0.0654172748327255,0.0516194589436054,-0.0101829469203948
3.706783203124999,-0.1275354794038459,0.0941353506378829,0.1700724890232086,-0.0814388543367385,0.0524224005639553,-0.0092143565416336
3.716747314453123,-0.091753387404792,0.0748534348018467,0.1018015013515949,-0.0854166075587272,0.0435743890702724,-0.0113248359411954
3.7267119140624985,-0.0323731420720927,0.0668485536530613,0.0381271938204765,-0.0793840140104293,0.0341340154409408,-0.0110968705266714
3.736676025390622,0.0222091831932775,0.0153118431612849,-0.0179863230675458,-0.0757495835423469,0.0250630099326372,-0.0136769283562898
3.746641357421872,0.05959330356149,-0.056340749772638,-0.0228957224190235,-0.0681393295526504,0.016739834100008,-0.0212964992970228
3.7566052246093733,0.0813100270627066,-0.1096180203214287,0.0144733465105295,-0.0578914135694503,0.018059616908431,-0.023701874539256
3.7665700683593712,0.0924462650397792,-0.1313404611773788,0.0138631056576967,-0.0469932258129119,0.0240746326744556,-0.0247562192380428
3.776534179687502,0.1134997571256011,-0.1454234931960701,-0.0172901574969291,-0.0319574326276779,0.0270026493817567,-0.0282473936676979
3.7864982910156257,0.1162607097389176,-0.1669659013099968,-0.0625169541895389,-0.0188339054584503,0.0243035349994897,-0.031845323741436
3.7964631347656237,0.1215092779168859,-0.1653939758181571,-0.1070417400926351,-0.0025071310810744,0.0177803877741098,-0.0292290337383747
3.806427001953125,0.1227752609984017,-0.0978159388467669,-0.1505441972106695,0.0077686756849288,0.0097197974100708,-0.0247362814843654
3.8163920898437453,0.1187865932210348,-0.0060888183943927,-0.168900522634387,0.0150358285754919,0.0037730601616203,-0.0244206395000219
3.8263559570312466,0.1118544558702968,0.0563704142585396,-0.1069493856340646,0.0225368868559598,0.0073041459545493,-0.0224685426801443
3.8363212890624965,0.103962423978839,0.0803083392068743,-0.0670697951883077,0.0301446244120597,0.0168122723698616,-0.0141107570379972
3.8462851562499907,0.0896330159836448,0.0509615409523248,-0.0694295100569725,0.0287741646170616,0.0167446266859769,-0.0066400594078004
3.8562499999999957,0.0731738842170685,-0.0601727291509509,-0.0505447768449783,0.0325940884649753,0.0098929535597562,0.0026892460882663
3.8662141113281265,0.068058313035313,-0.162307700240612,-0.0284317292362451,0.0423005111515522,0.0049615786410868,0.0125583885237574
3.876179199218747,0.0541733791382983,-0.2038787509046495,-0.0109638770848512,0.0491502359509468,-0.0059097693301737,0.0165984462946653
3.886142822265626,0.0261308501490391,-0.1989947782553732,0.0467494762152433,0.04480741918087,-0.0040365019813179,0.0226323697715997
3.8961081542968756,0.0066788932420313,-0.1667398374691605,0.1218915187001228,0.0422621071338653,0.0034985030069947,0.0256547667086124
3.9060722656249993,0.002625307002291,-0.0962077729977667,0.1332417647540569,0.034571424126625,0.0120139606297016,0.0282918289303779
3.9160371093749973,0.007123093345575,-0.0575241143383085,0.1230593934357166,0.0254066679626703,0.0185874458402395,0.0264725536108016
3.9260009765624986,0.0260716125087812,-0.045285102751106,0.0893254661381244,0.0128360129892826,0.0208492670208215,0.0244376324117183
3.9359650878906223,0.025381876678951,-0.0403593367867171,0.04802373393476,0.0086057074368,0.0227314699441194,0.0190301090478897
3.9459301757812497,0.0129709973898716,0.0044894203737378,0.0143295541256666,0.013142667710781,0.0153374690562486,0.0199089515954256
3.955894042968751,-0.0071481912542134,0.0518688650555908,-0.0023281506866216,0.0134663907811045,0.0131218498572707,0.0215990282595157
3.9658591308593714,-0.0076229691591113,0.0784879919119179,0.0692097298264503,0.0095768449828028,0.0214072111994028,0.0188357327133417
3.9758229980468727,-0.0155198598887771,0.0717015466421842,0.1109521915346384,-0.0009325221180915,0.0311815440654754,0.006393976509571
3.985788085937507,-0.0245690441924147,0.0628548078417778,0.1063239472121,-0.0059973215684294,0.0288139954209327,0.0033079055137932
3.995752197265624,-0.0012067089086398,0.0134071785837411,0.0747013129800558,-0.0100573021918535,0.0257665161043405,0.002483342308551
4.005717285156251,0.0056704103192314,-0.0556077593229711,0.0466769955009222,-0.0132365832105278,0.0215906780213117,-0.0031953160651028
4.0156811523437455,-0.0115110078399069,-0.1159329025566577,0.063479077219963,-0.0182314831763505,0.0125967850908637,-0.0014246134087443
4.0256459960937505,-0.027236381971836,-0.1203722001783549,0.0782920309484005,-0.0206807926297187,0.0090228226035833,-0.0081397742033004
4.035610107421874,-0.0547456078019924,-0.085180329157412,0.0709030897408723,-0.0282054804265499,0.0031526372767984,-0.0084038600325584
4.045575195312502,-0.0621966179276816,-0.0074343877844512,0.0817196673095226,-0.0386016629636287,0.0055393623188138,-0.0144476387649774
4.055539062499996,-0.063362976559624,0.0722669254399836,0.092854809308052,-0.0432188361883163,0.0125072998926043,-0.0194682609289884
4.065504150390623,-0.0357516055292449,0.1284651980020106,0.0459171170443296,-0.0500397235155105,0.0134513908997178,-0.0272002164274454
4.075468261718747,0.0042602147277444,0.1510946707002818,-0.0193786542087793,-0.0487355515360832,0.0079903360456228,-0.0416448190808296
4.085433105468752,0.0172870704906992,0.1251486207999289,-0.0609673866599798,-0.0449701026082038,0.0045993332751095,-0.0480489209294319
4.095396972656246,0.0268708183287642,0.0864851281456649,-0.0674655165076255,-0.0391805171966552,0.0047794329002499,-0.0560214817523956
4.105362060546874,0.0220258442493155,0.0558221327260136,-0.0295084185570478,-0.0347964204847812,0.0040337475948035,-0.0601571053266525
4.115325927734375,0.0155353131862357,0.0398693613126873,-0.0071674074113368,-0.0235658697783947,0.0049354936927556,-0.0647257566452026
4.125290283203121,0.025323296625819,0.0099114454224705,-0.0167202486544847,-0.0173764191567897,0.0035346713848412,-0.0678325966000557
4.135255126953126,0.0478883075194433,-0.039690059223026,-0.0332861835300922,-0.0126703102141618,-0.0027235192246735,-0.0664666444063186
4.14521923828125,0.0723335426690988,-0.065512044352293,-0.0353933849424123,-0.0059594106860458,-0.0054780263453722,-0.0699692294001579
4.155184082031241,0.0786949674597941,-0.0856115601815283,0.0016962825238704,-0.0009370078332722,-0.0063991718925535,-0.0642434731125831
4.1651481933593715,0.0981356540541164,-0.1084340712338686,-0.0027951836764812,0.0046010361984372,-0.0108671560883522,-0.0614093355834484
4.175113281249999,0.1367439459224231,-0.1208423019081354,-0.028693010520935,0.0112686501815915,-0.0135775869712233,-0.0514898896217346
4.185076904296871,0.1508870923642069,-0.1140389055036008,-0.0346463659673929,0.0142018543556332,-0.021265335381031,-0.049027532339096
4.195042236328121,0.1472629105176776,-0.0869809488385915,-0.0055465282112359,0.0190650187432765,-0.0198705773800611,-0.0431075058877468
4.205006347656251,0.1310837282036431,-0.1029969947464764,0.0181242702335119,0.0199353396892547,-0.018288392573595,-0.0372552089393138
4.214971191406249,0.1424532086810097,-0.1280541329830885,0.0076472998827695,0.0214546732604503,-0.0118728382512927,-0.0270718149840831
4.224935058593751,0.1434757383954711,-0.1165405130609869,0.0038882396101951,0.0212999433279037,-0.0130576789379119,-0.0224179401993751
4.234900146484371,0.1159438258094713,-0.07736030305624,0.0140501526623964,0.0200090333819389,-0.0126418806612491,-0.0199864655733108
4.244864013671872,0.0896551182175986,-0.0389111838050186,0.0198269824981689,0.023940660059452,-0.0080908043310046,-0.0135868899524211
4.2548291015625,0.0679112327148206,-0.0356014747351407,-0.000218026664853,0.0274558793753385,-0.0068131485022604,-0.0055210096761584
4.264793212890623,0.0554364761429838,-0.0232476045966148,-0.0249105693727731,0.0257946010679006,-0.0103833824396133,0.0048504052683711
4.274758056640621,0.0474940475048497,0.0148955174453556,-0.0375572849780321,0.0194836109876632,-0.0124331032857298,0.0112902419641613
4.284722167968752,0.0643102308144792,0.0319354995734989,-0.0201572373658418,0.0131104001775383,-0.0111236264929175,0.018239228054881
4.2946872558593725,0.0653914684462361,0.0351389717899262,0.0201958158105611,0.0045577809214591,-0.0124220699071884,0.0219782199710607
4.304651123046874,0.0490833259902894,0.0168133337654173,0.0777484255909919,-0.0114289093762636,-0.0055809416808187,0.0219555832445621
4.314614990234375,0.0256366916902363,-0.01352116035223,0.1182376723676919,-0.0246999412775039,-7.7504664659e-06,0.016004554927349
4.3245800781249955,-0.0109431265577673,-0.0140305711790919,0.1563736340165138,-0.0357328839600086,0.0090443342924118,0.0164263993501663
4.334544189453126,-0.0169678850063122,-0.0110616383709013,0.155569331896305,-0.0496808290481567,0.0165990740060806,0.0155467111617326
4.344509033203124,-0.0014631496214307,-0.0132676239825785,0.0918500161796808,-0.0566665641963481,0.0168275739997625,0.015572277829051
4.354473144531241,0.0197265360646881,-0.0016322773769497,0.010841127488017,-0.057612732052803,0.0102481907233595,0.0176980439573526
4.364438232421875,0.0462885076399892,-0.0185761056542396,-0.0382815075993537,-0.054282184690237,0.0032701762393116,0.0196578651666641
4.374402343749999,0.0579889005721546,-0.0252476923726499,-0.0349392114341259,-0.0512430593371391,0.0046023689210414,0.01826823502779
4.384366943359375,0.0459000197790563,-0.0117446521990001,-0.0370908365100622,-0.046110350638628,0.0020348150283098,0.0225964039564132
4.394331054687498,0.0696742055330425,0.0063075757116079,-0.0495306313663721,-0.0426650568842887,0.000761320348829,0.0274087153375148
4.404295898437496,0.0969049614816904,-0.0203567054606974,-0.0604781418383121,-0.045586809515953,-0.0017066311556845,0.0298577584326267
4.414260009765627,0.1016004806204698,-0.055653498160839,-0.0081441434890031,-0.0423444435000419,0.0037957944441586,0.0311049968004226
4.424224853515625,0.0866505843730643,-0.0870790023855865,0.0263718740969896,-0.0449759140610694,0.0079639079049229,0.0360030829906463
4.434188964843756,0.0655983161299489,-0.1116220536202192,-0.0141582892119884,-0.0388491824269294,0.0119773959740996,0.0409716628491878
4.444154052734376,0.0618913879034109,-0.0843855255179107,-0.0481043979555368,-0.0295984279364347,0.0062492033466696,0.0478516742587089
4.4541181640625,0.0730042632712051,-0.0743185972727835,-0.0805851103216409,-0.0188736319541931,0.0053445622324943,0.0560665018856525
4.464083251953127,0.0872057340377941,-0.0198182146698236,-0.1240033962875604,-0.0072702383622527,-0.0006145269144326,0.0655508190393447
4.474046874999999,0.0843563176897354,0.0335951033487915,-0.1619651704132556,0.0049666883423924,0.0011155104730278,0.0712998136878013
4.4840119628906265,0.0787599407210946,0.0766802118375897,-0.1683399661421775,0.0169719513505697,-0.0039397017098963,0.0793369635939598
4.493976074218757,0.0754746719727292,0.0900036576606333,-0.1296983930587768,0.0176646523177623,-0.005355205386877,0.0861056223511695
4.503940917968748,0.055907856514398,0.0894055456370115,-0.0596639028459787,0.0210716351866722,-0.0068047642707824,0.0857676640152931
4.5139047851562495,0.0202393261587247,0.0445899600937962,0.0221329213529825,0.0213236454874277,-0.0021022327709943,0.0919230207800865
4.523868896484373,0.0047945042675361,0.007420797650516,0.0796738406956195,0.0117772798985242,0.0008091346826404,0.0962764918804168
4.533833984375001,0.0148907134060747,0.0162536540560424,0.1327747317641973,0.0036761723458766,0.0001502980012446,0.1027002781629562
4.543797851562502,0.0275620885285548,0.0424652230247855,0.1838216129124164,-0.0076617035083472,-0.0010840771719813,0.1107094660401344
4.553762939453122,0.0416626014050096,0.0723598644204437,0.2373527120918035,-0.0193686783313751,0.0012704603141173,0.1179011762142181
4.563727050781246,0.0538668522060848,0.0639104543745517,0.2545107676416635,-0.0278005134314298,0.0130245881155133,0.1240741163492202
4.573691894531251,0.0744302957526408,0.0527794040292501,0.2157557973116636,-0.037888366729021,0.0120469871908426,0.1285878717899322
4.583655761718752,0.0891405745578929,0.0297485109232366,0.1593278076469898,-0.0440762229263782,0.0088352151215076,0.1269063502550125
4.593621093750002,0.072117707961332,0.0321934198573231,0.1531347982257604,-0.0536620989441871,0.0098188146948814,0.1225845739245414
4.603584960937496,0.0382350381091237,0.0623478812329471,0.1940074913620948,-0.0687129572033882,0.0158130582422018,0.1200558990240097
4.613550048828124,0.0302060636986978,0.0997056981161236,0.1993026751607656,-0.0804966688156127,0.0230563711374998,0.1162223070859909
4.6235141601562475,0.0225071066939271,0.1496199219726026,0.14558219088912,-0.092741884291172,0.0248073991388082,0.1067398563027381
4.633478759765623,0.0400661442601121,0.1502595350503921,0.1077443354040384,-0.1046437248587608,0.024986270815134,0.1001085862517356
4.643442871093747,0.0659664370562881,0.118425888416171,0.080087097671628,-0.1128529161214828,0.0289181601256132,0.0915470570325851
4.653407958984374,0.0885656059478409,0.0688322748161852,0.031785131317377,-0.1067756116390228,0.0293049253523349,0.0798217728734016
4.663372070312491,0.0849379169699735,0.0341349093139171,-0.0112368488073349,-0.101102814078331,0.0283187590539455,0.0669091716408729
4.673336914062496,0.0710154275415465,-0.0002539747610688,-0.0115010527014732,-0.0900625139474868,0.0275891162455081,0.0612131506204605
4.683301025390627,0.0699081056204624,0.0093216628357768,-0.0256371300816535,-0.0793986842036247,0.0305819772183895,0.0610573552548885
4.693265869140625,0.077672218549624,0.025055384670943,-0.0627028321504592,-0.0660759285092353,0.0282368101179599,0.0593133084475994
4.703229980468748,0.0775454503647983,0.0415352486982941,-0.0715086544185876,-0.06068941578269,0.028270099312067,0.0654452368617057
4.713195068359376,0.0774992000702768,0.0545724249258637,-0.0849433055311441,-0.0445143654942512,0.0352925099432468,0.0705608949065208
4.723158935546877,0.0949075223204679,0.017668927681446,-0.1173018528223037,-0.0292531251907348,0.035100232809782,0.0826495140790939
4.733124023437497,0.1165835850177332,-0.0790149383954703,-0.1605547190934419,-0.0051883580163121,0.0271697267889976,0.0958228856325149
4.743088134765621,0.132766639789287,-0.1544981955334544,-0.1969604959487915,0.0172983091324567,0.0218354146927595,0.107979416847229
4.7530532226562485,0.1538385260483249,-0.1587257501006126,-0.1848772594451904,0.0378549844026565,0.0154371690005064,0.1185966432094574
4.76301684570312,0.1540070327493362,-0.1176930440969765,-0.1466635563850402,0.0466982163488864,0.0185003448277711,0.1267072260379791
4.772981933593755,0.1473148416343145,-0.0819448543675243,-0.0860626649498939,0.0538668744266033,0.026447569951415,0.1384361237287521
4.7829460449218715,0.124292296231538,-0.0606618278421461,-0.0061129299223423,0.0540903136134147,0.0362621173262596,0.1441997289657592
4.7929108886718765,0.1206908559397794,-0.0610616408146917,0.0444452909260988,0.0480908341705799,0.0404471270740032,0.1534882187843322
4.802874755859371,0.1251203810861334,-0.0435712845705449,0.0863484961539506,0.0390302278101444,0.049537293612957,0.1529649049043655
4.812840087890621,0.1167819023351185,-0.0094986268378794,0.1087432833135128,0.0318076461553573,0.0577498339116573,0.1569110006093979
4.822804199218751,0.1053862645031884,0.0049536768846213,0.1172702886402606,0.02224662899971,0.0651986971497535,0.1664965152740478
4.832769042968756,0.1333660304545424,0.0082210081174969,0.1400268948495387,0.0152404140681028,0.0686847567558288,0.1749747097492218
4.842732910156251,0.1713363349465653,-0.0014350012391805,0.1340133336484432,0.0128411725163459,0.0709151551127433,0.1822113096714019
4.852697753906249,0.1878578278922476,0.0145903970189392,0.0870925925195217,0.0060041267424821,0.0666371956467628,0.1925656348466873
4.862661865234372,0.2064760739214718,0.0326196824453771,0.0516173745125532,-0.0072243269532918,0.058584064245224,0.2032126933336258
4.872627197265622,0.2144334991993382,0.0075920625641942,0.1011573582291603,-0.023337310180068,0.0640798658132553,0.2109441757202148
4.882591064453123,0.2203701409730128,-0.028246289666742,0.1966477767378091,-0.0348115414381027,0.0758097618818283,0.2209877520799636
4.892555908203121,0.2278869463439099,-0.0655532531455159,0.2599959210544824,-0.0394668281078338,0.0876560807228088,0.2349125742912292
4.902520019531252,0.2493922007852233,-0.0985740637376904,0.2265560082674026,-0.0551571100950241,0.0850022435188293,0.24667789041996
4.9124851074218725,0.2631420735931024,-0.1085378238692879,0.2377262215793132,-0.0685348510742187,0.0912230536341667,0.2579955756664276
4.922448730468751,0.2653244956661015,-0.08972527911067,0.3002028437584638,-0.0825840979814529,0.1094172373414039,0.2687888443470001
4.932413818359372,0.2694466353637166,-0.0673373600833117,0.3140332161903381,-0.0869590267539024,0.1269007474184036,0.2818710505962372
4.9423779296874955,0.297021400710754,-0.0371684317909181,0.2238683766186237,-0.0848639160394668,0.127749502658844,0.2916363179683685
4.952343017578123,0.2966113403388299,0.031107232055813,0.0731967536360025,-0.0826930031180381,0.11929352581501,0.298623651266098
4.962307128906247,0.3000448036525398,0.1007215971603989,-0.0160252521276474,-0.0790404826402664,0.1157728284597396,0.3073511123657226
4.972271972656252,0.3032942339025438,0.1228502807296812,-0.0162298347890377,-0.0843195915222168,0.1148630157113075,0.3172868192195892
4.982236083984375,0.276725467260275,0.1052763378553092,0.0210837045609951,-0.0773812606930732,0.128373771905899,0.3212621212005615
4.992200927734373,0.2442514586295932,0.096922497138381,0.0298509483844041,-0.0629785731434822,0.1342641562223434,0.3301401138305664
