time,ax,ay,az,gx,gy,gz
0.0,0.0190176754092797,-0.0066917527236044,0.0441243884086608,0.0253545232117176,-0.0304763913154602,-0.0888441130518913
0.009964111328123693,0.0065930781221017,0.0266837165251374,0.0691261431962251,0.0231776572763919,-0.0326660424470901,-0.0893277451395988
0.01992871093749926,0.0018024828447028,0.0418564434766769,0.0647340457171201,0.0211330726742744,-0.0351142436265945,-0.0912260860204696
0.029892822265622954,0.0059787456160411,0.0201692200645804,0.0889268222093582,0.0206497088074684,-0.025403294712305,-0.0904678851366043
0.0398579101562504,0.0152464132422581,0.0016109423279762,0.0669827014267444,0.026052389293909,-0.02535892277956,-0.0939885005354881
0.049822021484366985,-0.0014241875842213,0.0083051792696118,0.0443769018650054,0.0259408056735992,-0.0234702099114656,-0.0927160382270813
0.059786865234372044,-0.004302008042857,0.0065352469876408,0.0261766437858343,0.0316844433546066,-0.0256657190620899,-0.0900129303336143
0.06975097656250284,0.008157624025084,0.0218666716322302,-0.0233691851496696,0.0308852307498455,-0.0322796814143657,-0.0891556590795517
0.0797158203125008,0.0281286546364426,0.0335556481212377,-0.0476198293089866,0.0377418138086795,-0.0415393114089965,-0.0882859379053115
0.08967993164062449,0.0165687844198197,0.0257478969797492,0.0047825581014156,0.0442228801548481,-0.0387608334422111,-0.0882334783673286
0.09964526367186721,0.0088720559047535,0.0368275093987584,0.0789285752862691,0.0421640835702419,-0.027381544932723,-0.0940133780241012
0.10960888671875324,0.0080427654737606,-0.0055434594713151,0.0991314053595066,0.0344534330070018,-0.0240571219474077,-0.0970110297203064
0.11957397460937358,0.0152310330100357,-0.0461718224577605,0.0891682297497987,0.0339059084653854,-0.0212631300091743,-0.0964130610227584
0.12953881835937864,0.0305283727219328,-0.0497812451265752,0.0642635055959224,0.0328739359974861,-0.0223188083618879,-0.0966572761535644
0.13950292968750233,0.0375436948440969,-0.0371295610852539,0.0250368261009454,0.0286835636943578,-0.0177655201405286,-0.0967694595456123
0.14946777343750028,0.0430299077028408,-0.0176347331508994,0.0218009129196405,0.0276992600411176,-0.0239203516393899,-0.0950799509882927
0.15943188476562398,0.0625964491665363,-0.0340187355883419,0.0437011945605278,0.0266157500445842,-0.0218347143381834,-0.0924913808703422
0.16939697265625142,0.0721985729115083,-0.0458824841223657,0.0511573557853698,0.0224276632070541,-0.0242989361286163,-0.0852656960487365
0.1793610839843751,0.0895827288348227,-0.0669479223743081,0.0495727169424295,0.0183313768357038,-0.0185668524354696,-0.084286093711853
0.18932592773437307,0.1022622141985222,-0.1078469189956784,0.0685229166060686,0.0187015552073717,-0.0153052788227796,-0.0817995071411132
0.19928979492186727,0.1249341012664139,-0.0972737947940826,0.0822352156162262,0.0180108342319726,-0.0130190504714846,-0.0747367963194847
0.20925488281250182,0.1432698222935199,-0.0338259894952178,0.0505886159867048,0.0190816912800073,-0.012596939690411,-0.0653539448976516
0.21921899414063262,0.1554881198862567,-0.0108420042708516,0.0083317750155925,0.0189674422144889,-0.0256181973963975,-0.0636101067066192
0.22918359375000108,0.1276760569183155,-0.0216112355664372,0.0113905780643224,0.0222042482346296,-0.0278131756931543,-0.0635376721620559
0.2391489257812509,0.0934961759515106,-0.046007717937231,0.06902385186553,0.0226492006331682,-0.0215876959264278,-0.0602987185120582
0.2491130371093746,0.0608229732206091,-0.0762662242092192,0.1124368771344423,0.0214430540800094,-0.0172358248382806,-0.0552392452955246
0.25907788085937256,0.0390881843397393,-0.0659228171102702,0.1018131917893886,0.022109255194664,-0.013560963794589,-0.0499879270792007
0.26904199218750335,0.046836716107279,-0.0155414141334593,0.0706523298501968,0.0243457779288291,-0.0085172029212117,-0.042004570364952
0.2790068359375013,0.0708756172120571,0.0117851303398609,0.0291150353252887,0.0236093308776617,-0.0039179632440209,-0.0443719662725925
0.2889707031250026,0.0840584124553948,-0.0082416125141084,-0.0271399358600378,0.0328797921538353,-0.0074626309797167,-0.0414672568440437
0.29893603515625244,0.1043675159147009,-0.0240020762257277,-0.0589566313594579,0.0466005615890026,-0.0102965869009494,-0.0389494337141513
0.30890014648437614,0.1265865081159398,0.0071204995296895,-0.0818862560480833,0.0522009246051311,-0.0142564410343766,-0.0354580283164978
0.3188647460937517,0.1265287865793332,0.041279081980139,-0.0639765053480863,0.0496213883161544,-0.0118271894752979,-0.0326170437037944
0.3288288574218754,0.1250855289684608,0.0282641175843775,-0.0155412680029869,0.0489052645862102,-0.0084399152547121,-0.0286321565508842
0.33879394531250284,0.121120132468827,-0.0664652534238994,0.0660445437937974,0.042279377579689,-0.0006405713502317,-0.028425432741642
0.3487587890625008,0.1083792357740923,-0.1836639381326734,0.0767734430789947,0.0400814712047576,-0.0020539110992103,-0.0249734409153461
0.3587229003906245,0.1084195312518626,-0.2511123573750257,0.075784432041645,0.0358423963189125,-0.0078411623835563,-0.0182530060410499
0.36868798828125193,0.1191652355413883,-0.2345624968513846,0.0952910965442657,0.0284430719912052,-0.0047510960139334,-0.0104294382035732
0.37865185546875324,0.1413553304417058,-0.1605180403448641,0.1043774893194437,0.0161623582243919,-0.0018695136532187,0.0033539847936481
0.3886169433593736,0.1682064028903842,-0.1344075936630368,0.1034697268247604,0.0083800684660673,0.0072648623026907,0.0156412776559591
0.3985769042968812,0.1698129613041877,-0.1347277655281126,0.0856903245061636,0.0017222831957042,0.0123652843758463,0.0225839223712682
0.40854199218750153,0.1437667024323716,-0.1730586652271449,0.0745639503359794,0.0010325242765247,0.0129687571898102,0.0397815518081188
0.41850561523437335,0.1323089774159714,-0.1855449295736849,0.0700455961287021,0.000447163823992,0.0109054232016205,0.0501391924917697
0.4284707031250008,0.1174849908368662,-0.1756901827745139,0.0640595074564218,-0.0052077923901379,0.0174962133169174,0.058414701372385
0.4384348144531174,0.1009884679356589,-0.1654629494011402,0.0811643715143203,-0.0080965021625161,0.0202055778354406,0.0637281388044357
0.44839990234375193,0.0966511693837121,-0.105485596691817,0.0918453400045633,-0.0096667017787694,0.0263574793934822,0.0661918222904205
0.45836499023437227,0.0666536156028509,-0.0585877980470657,0.0610170710206031,0.0006680865772068,0.0358536317944526,0.0609983727335929
0.4683288574218736,0.0657784036708995,0.0026252339370548,-0.0214987151026725,0.0154054872691631,0.0343321673572063,0.0683436393737793
0.47829370117187864,0.0940318171981722,0.0447363828271627,-0.1467874750256538,0.0294815804809331,0.0245696566998958,0.0694592893123626
0.48825781250000233,0.1167411501996219,0.0416543450333178,-0.2086398278266191,0.0478651113808155,0.0095395753160119,0.0723514854907989
0.49822290039062267,0.1063945282302796,0.0369299468599259,-0.1664589747011661,0.0645588934421539,0.0091171450912952,0.0679564401507377
0.508186767578124,0.0671666796915233,0.0449555785357952,-0.0847410609573125,0.0744722411036491,0.0081703905016183,0.067088782787323
0.5181518554687514,0.0274116289408877,0.0464054850831627,-0.039170565393567,0.0823128148913383,0.0115532437339425,0.0641196817159652
0.5281159667968751,0.0149114456668496,0.0411325131163001,0.0060065469384193,0.0832923203706741,0.0169967450201511,0.0608469247817993
0.5380808105468731,0.0053831908756867,0.0465684205599129,0.051056233498454,0.0763928517699241,0.0216496065258979,0.0575390420854091
0.5480446777343673,0.013808124067448,0.0003121346890926,0.0882470232516527,0.0782520025968551,0.0234618876129388,0.0555722974240779
0.5580097656250018,0.0262502204786986,-0.0182739078372716,0.0926204160302877,0.0800582468509674,0.0221636518836021,0.0564755238592624
0.5679748535156222,0.0558597978552803,-0.0006203238554298,0.0375584540218114,0.078543446958065,0.0128180850297212,0.0628697797656059
0.577938964843753,0.0946302214827388,-0.0151870477378368,0.010007599273324,0.0725255012512207,0.0015537135768681,0.0659318789839744
0.5879040527343733,0.1014714656796306,-0.0450409187316894,0.0510229157507419,0.0643868818879127,-0.0045718234032392,0.0682509616017341
0.5978676757812522,0.0693946579392999,-0.0687125939592719,0.1452057587921619,0.055328644812107,0.0069653950631618,0.06878262758255
0.6078327636718726,0.040246998986043,-0.0832974380202591,0.2016080294936895,0.0424123145639896,0.0190913006663322,0.0718037188053131
0.6177968750000034,0.0284271991916,-0.0636494653508067,0.2043424228936433,0.0333323068916797,0.0242490209639072,0.0753555968403816
0.6277617187500013,0.0330305648012086,-0.0510306606657803,0.1503992357820272,0.0271926540881395,0.0211299266666173,0.0781950578093528
0.6377255859375026,0.0462787534309551,-0.0454946538485586,0.0951753612101077,0.017839653417468,0.0187551341950893,0.0808190405368805
0.6476909179687524,0.0253038430066779,-0.040319443167746,0.0957476081401109,0.0032772212289273,0.0241230018436908,0.0830829963088035
0.6576557617187504,0.0107387265594676,0.0163458623841404,0.1013455742776393,-0.0029590190388262,0.0277626998722553,0.0864580497145652
0.6676198730468812,0.0180421449080109,0.054073827753961,0.0470534275978803,-0.0077726827003061,0.0222552828490734,0.0922762528061866
0.6775849609375015,0.0335328517675399,0.0842901023194193,0.0444102196127176,-0.015370394103229,0.0194487068802118,0.0926862806081771
0.6875488281250028,0.0362611442202702,0.0837282306529581,0.086153850364685,-0.0177714992314577,0.0222945604473352,0.0883133709430694
0.6975139160156232,0.0236133691690862,0.051119654123485,0.1027554410755634,-0.0215695574879646,0.0254578310996294,0.0870229080319404
0.707478027343754,0.03730356594529,0.0297238148733973,0.0847071586877107,-0.0287015028297901,0.0261672958731651,0.0808283910155296
0.7174428710937519,0.0492340230399742,0.0208837980747222,0.0772942520827054,-0.0352558940649032,0.0208974778652191,0.0789353772997856
0.7274067382812532,0.0482886319486424,-0.016568565224111,0.0850455968618393,-0.0410208366811275,0.0207456778734922,0.0778725147247314
0.7373718261718736,0.0540119780315086,-0.0168466515131294,0.0714963794589042,-0.0463773012161254,0.0192560739815235,0.0728203654289245
0.7473359374999973,0.0363620838440954,0.0003866612300276,0.0921621508687734,-0.0511169284582138,0.0235618725419044,0.0687238872051239
0.7573007812500023,0.0204910724300891,0.0081799454547464,0.1084223807960748,-0.0583139657974243,0.0349372178316116,0.0663699880242347
0.7672661132812522,0.0143499393265694,0.009886310981214,0.1063707089632749,-0.0577365942299366,0.0451264716684818,0.0627001449465751
0.777229736328124,0.0197948703268542,0.0045088557265698,0.0483481435835361,-0.0584718137979507,0.0418083928525447,0.0646482855081558
0.7871948242187514,0.0613392521796748,0.006917232042551,-0.0325917715251445,-0.0600697100162506,0.0334063880145549,0.0665122345089912
0.7971589355468751,0.0760334018340334,0.0148576696529984,-0.0826011263191699,-0.0600500032305717,0.0315235331654548,0.0646421611309051
0.8071237792968731,0.0742791785778477,-0.0026842706479132,-0.0751677614480257,-0.0587605014443397,0.0251548495143651,0.0619158819317817
0.8170876464843673,0.0686893226815387,-0.0260259832687675,-0.0779623606026172,-0.0568114556372165,0.0282136388123035,0.0582143776118755
0.8270527343750018,0.0302303030908107,-0.0231589033998548,-0.0836485895454883,-0.0563134439289569,0.0261211935430765,0.0587328970432281
0.8370168457031255,0.020904512069188,0.0097344814203679,-0.0857674813956022,-0.0532327704131603,0.0271898601204156,0.060089360922575
0.846981933593753,0.0283755055369809,0.0298849967844784,-0.092599373242259,-0.0488931499421596,0.0284239687025547,0.0611482337117195
0.8569458007812472,0.0459539053907617,0.0329962606728076,-0.115861590886116,-0.0437204018235206,0.0284937508404254,0.0641856864094734
0.8669108886718675,0.0646537470225244,-0.0110385497562587,-0.1385422092497348,-0.0365626253187656,0.0217098798602819,0.0673918724060058
0.8768757324218726,0.0784844847805798,-0.0439529773645102,-0.1354307992309331,-0.0278402976691722,0.0185786932706832,0.0696340650320053
0.8868398437500034,0.0667502078451216,-0.0428673740848898,-0.0737076257675886,-0.0229992046952247,0.023347882553935,0.0739151015877723
0.8968049316406237,0.0677847385246306,-0.038909576369822,-0.0537099628776311,-0.0175457019358873,0.0273793544620275,0.0756534859538078
0.906768798828125,0.0789935668138787,-0.0243731014952063,-0.057160395592451,-0.0148322079330682,0.0253148730844259,0.0808690190315246
0.9167338867187524,0.084061956119351,-0.0357514045998454,-0.0483475590616464,-0.0040614455938339,0.0205578189343214,0.0872931182384491
0.9266979980468761,0.0802120757581666,-0.0612267682485282,-0.0247667769879102,-0.0005109189078211,0.0202030856162309,0.0927390158176422
0.9366628417968812,0.0755158077007159,-0.0792950705111026,-0.0336205300509929,0.0091423839330673,0.0194626096636056,0.0975529700517654
0.9466267089843754,0.0844096005132421,-0.0688036332435906,-0.0339671515315771,0.0140929333865642,0.0156572181731462,0.102144256234169
0.9565917968750028,0.0918076018100604,-0.0695477296091616,-0.0029477438896894,0.0137450005859136,0.0142062101513147,0.1070322468876838
0.966555664062497,0.0769861359816044,-0.0401090152874588,0.0584317307025194,0.0160470381379127,0.0154464449733495,0.1084623634815216
0.976520996093754,0.0628019086107611,0.0012282266207039,0.0967068085610866,0.0210749898105859,0.0199373438954353,0.1112514212727546
0.9864848632812482,0.0517566733853891,0.0617361790753901,0.0866676451057195,0.0146762114018201,0.0248322337865829,0.1164871901273727
0.9964497070312532,0.0602941635735332,0.0722433984339237,0.0613601853698492,0.0046725566498935,0.023748381063342,0.119445189833641
1.0064147949218736,0.0807767239036038,0.0118840606696903,0.0676186612427234,0.0025409623049199,0.0229742005467414,0.1209339052438736
1.0163789062499973,0.0877926670802757,-0.0596304389677941,0.0805114605635404,-0.0003546685911715,0.0206409506499767,0.1180917471647262
1.0263437500000023,0.0750255764983594,-0.0890624312877655,0.0696808544695377,-0.0026324703358113,0.0235288832336664,0.1192755252122879
1.036307861328126,0.084250829754956,-0.0782500915028154,0.0496843606233596,-0.0139094479382038,0.0235152468085289,0.122865043580532
1.0462729492187535,0.0879638589287176,-0.0829014244399964,0.0630453619778156,-0.0240848530083894,0.03269649669528,0.1242251172661781
1.0562368164062477,0.0849128007950261,-0.1085121049061417,0.0836351455420255,-0.0314222313463687,0.0381416045129299,0.1259158849716186
1.0662019042968751,0.0823539100924506,-0.1135458612896501,0.059172904458642,-0.0267550386488437,0.045028805732727,0.1300499141216278
1.0761657714843764,0.088221158158034,-0.0988496658086776,0.0111035778164863,-0.0218163095414638,0.043799053877592,0.136499285697937
1.0861306152343673,0.1082464397072792,-0.0849554343603551,-0.0351262584388256,-0.0184498075395822,0.0367669761180877,0.1436767727136612
1.096094726562498,0.1187431376717984,-0.0802462337560951,-0.0524316135048866,-0.0112967211753129,0.0330648198723793,0.1462003737688064
1.106060058593748,0.1090796391284093,-0.0777251908458769,-0.0125111065268516,-0.0094865709543228,0.0366784632205963,0.1467431336641311
1.116024902343753,0.0691702015336602,-0.0296411050260066,0.0174608378887176,-0.008730411529541,0.0448017753660678,0.1497721672058105
1.1259887695312472,0.0721824254943057,0.0275163679569959,0.020748188996315,-0.0101687852293252,0.0479128807783126,0.1525581181049347
1.1359538574218675,0.1014018710421398,0.012296733123809,-0.0199374571353197,-0.009252049960196,0.0475866869091987,0.1565146148204803
1.145917724609383,0.089072331627272,-0.0573320988975465,-0.0242635036408901,0.0043798726983368,0.0485241189599037,0.1568786650896072
1.1558828125000034,0.0681583576099947,-0.0874940129272639,-0.0434960273772478,0.0109626539051532,0.0477868057787418,0.161066323518753
1.1658466796874976,0.0655961789717897,-0.0642857174277305,-0.0944856253802776,0.0225836224853992,0.0403070524334907,0.1669894605875015
1.175811767578125,0.0818791321875527,-0.0571817306414246,-0.0888268689662218,0.0204466488212347,0.0356559492647647,0.1701298952102661
1.1857758789062487,0.0719503337714821,-0.0706629973746836,-0.0296510418981313,0.0240584295243024,0.0392570756375789,0.169760525226593
1.1957409667968761,0.0327470351520925,-0.0722486591309309,0.0092582422107458,0.0259019434452056,0.0421905033290386,0.1658885926008224
1.2057048339843774,0.0225111070156097,-0.0736501964919269,0.012864742270112,0.0245977938175201,0.0451948158442974,0.1657663583755493
1.2156696777343754,0.0168554193414747,-0.0578495469003915,0.0137339263200759,0.0266348030418157,0.0446055680513381,0.159116506576538
1.2256350097656323,0.0243939250875264,-0.0434609560638666,-0.016954641932249,0.0256337206810712,0.0421653129160404,0.151799201965332
1.2355988769531265,0.0303450155116617,0.0108209614828228,-0.023810499176383,0.022318560630083,0.0462660379707813,0.1440448015928268
1.245563964843754,0.0362820774104446,0.0618821634173393,-0.0173246442884206,0.0215587597340345,0.0533415228128433,0.1398303508758545
1.2555278320312482,0.0492740627894178,0.0467889314427971,-0.0441553680688142,0.0155205372720956,0.0556576959788799,0.1352504938840866
1.2654926757812532,0.0671519205138087,0.0366607745297253,-0.0934293943256139,0.0222692526876926,0.04823999106884,0.1338350176811218
1.275456787109377,0.0720943818846717,0.0410474651813507,-0.106941202327609,0.0314244292676448,0.0396371260285377,0.1326072812080383
1.2854218749999973,0.0622802228242158,0.0403799411833286,-0.0641121144264936,0.0402085967361927,0.0438782125711441,0.1324972957372665
1.2953857421874986,0.053419820824638,0.0192176184281706,-0.0071358432292938,0.0485693775117397,0.0518499501049518,0.1294816732406616
1.305350830078126,0.0687892759246751,0.0203816937714815,-0.0123246440440416,0.0571511499583721,0.0523064173758029,0.1280105412006378
1.3153149414062497,0.0972269599776715,0.0233167243100702,-0.0459334836572408,0.0611832477152347,0.0504323691129684,0.1289358288049698
1.3252800292968772,0.116865288035944,-0.0118960433684289,-0.0404290410220623,0.0624045766890049,0.0419075898826122,0.1324679851531982
1.3352448730468751,0.1010697164783254,-0.0561959344744682,-0.0127799865961074,0.06419238448143,0.0423280484974384,0.1375734955072403
1.3452087402343764,0.0790618828097358,-0.063504357791692,0.028370354437828,0.0709046125411987,0.0430566892027854,0.1463374197483062
1.3551735839843673,0.0864480110056698,-0.0696551355063915,0.0191430918872356,0.073606252670288,0.0405596829950809,0.157924398779869
1.3651379394531276,0.0761088782230392,-0.0634026509828865,0.0265454770982265,0.0727985128760337,0.038354318588972,0.1655865758657455
1.375103027343748,0.0628546251786872,-0.0333444895885884,0.0578103839337825,0.0652659758925437,0.0438537299633026,0.1782905906438827
1.3850668945312492,0.0877891599489375,0.0066276014462113,0.067166241300106,0.0609007850289344,0.0465680249035358,0.1844305098056793
1.3950317382812472,0.1020210989190265,-0.0051120823167264,0.0476326887905597,0.0527567900717258,0.0431451722979545,0.1908210963010788
1.4049960937500003,0.1104385794566944,-0.0325485169053077,0.0480617278575897,0.0448764972388744,0.0412138476967811,0.1971519589424133
1.4149611816406278,0.0897732464382424,-0.0051740416370332,0.0675315674811601,0.039077240973711,0.0381318926811218,0.2051770240068435
1.4249248046874996,0.066162909476459,0.0078679568961262,0.0738677847653627,0.0298509858548641,0.0417388789355754,0.2109108120203018
1.4348901367187494,0.0550670400423929,-0.0100841716408729,0.0715074853748083,0.0157582722604274,0.0399125590920448,0.2129444181919098
1.4448542480468731,0.0161303564699366,-0.0256115572489798,0.086017656764388,0.0077584022656083,0.0409064516425132,0.2169269025325775
1.4548190917968782,-0.0047848596563562,-0.0437796666242182,0.0962064578235149,0.0003792983479797,0.0476850867271423,0.2179890573024749
1.4647829589843724,-0.0020537541920319,-0.0555268030412495,0.0628080460906028,-0.0009184600785374,0.049325592815876,0.2226309329271316
1.4747480468749998,-0.0011952741991728,-0.0703800887800753,0.0401046313732862,-0.0017379517666995,0.0463742986321449,0.2212828397750854
1.4847128906249978,0.0058825552325695,-0.0467513759113848,0.0051017070531845,-0.003147030249238,0.0406703427433967,0.2196013182401657
1.494677246093751,0.0143715666364878,0.0144559569843113,-0.0098801735013723,-0.0047845263034105,0.0407766662538051,0.2103624194860458
1.504642089843749,-0.0035409605424851,0.0675908964529633,0.0104676180005073,-0.0090826014056801,0.0460172332823276,0.2029516398906707
1.5146059570312502,-0.013359649647586,0.1059364091992378,0.0043096798926591,-0.0155378654599189,0.0452007986605167,0.1964250952005386
1.5245710449218777,-0.0287692175623029,0.0697954207599163,0.0108925654143095,-0.0098157972097396,0.0496011413633823,0.1907624155282974
1.5345351562500014,-0.0655123731458559,0.0301255275420844,-0.0043190322428941,-0.0106975873932242,0.0417907126247882,0.1831040382385254
1.5444999999999993,-0.0850752248151227,0.0105225630581378,-0.0430488681316375,-0.0063238777220249,0.0354601107537746,0.1772027313709259
1.5544638671875006,-0.0825569949164986,0.0355988443866372,-0.0458335304141044,-0.0094572631642222,0.031271893531084,0.1702108234167099
1.5644291992187505,-0.0593320770757272,0.0629926088772714,-0.0084936875790357,-0.006377849727869,0.032518520951271,0.155889943242073
1.5743930664062518,-0.0744041566643863,0.0823163180284202,0.0016699790388345,-0.0034731342457234,0.0348635502159595,0.1470387876033783
1.584358154296872,-0.0930816403338685,0.1189069499313831,0.0048655602097511,0.0015951278619468,0.0330757722258567,0.1398019045591354
1.5943220214843734,-0.0835964209668338,0.1238999359130859,-0.0251490543037652,0.0050654141232371,0.0290865451097488,0.1326897889375686
1.6042868652343785,-0.0828525072643533,0.1077704927586019,-0.0595142652422189,0.0079493513330817,0.0238494388759136,0.1273429691791534
1.6142519531249988,-0.0667218950660899,0.0605091214984655,-0.0652460868924856,0.0141237191855907,0.0156515631824731,0.1201912686228752
1.6242160644531225,-0.0725255398435518,0.0090068977981805,-0.0210159000217914,0.0076240086928009,0.01466965675354,0.1101341098546981
1.63418115234375,-0.0915761311417445,-0.0191835700280964,0.0581605125457048,-0.0011690463870763,0.0177500005811452,0.1023862138390541
1.6441450195312513,-0.0932168475534766,-0.0038974458299577,0.1221072072774171,-0.0094088669866323,0.0248443949967622,0.0963474959135055
1.6541101074218787,-0.0875950986815616,0.0269685248158872,0.1364122114837169,-0.0210288725793361,0.0332025550305843,0.0897628292441368
1.664073974609373,-0.0901097483836114,0.0147309745334088,0.0946282487213611,-0.0229580663144588,0.0337746031582355,0.086496464908123
1.6740390625000003,-0.0669323960116133,0.0009111234955489,0.0566758269459009,-0.0275230705738067,0.0321563631296157,0.0862467437982559
1.6840029296875016,-0.0730241735480725,-0.011891221062839,0.0076011226534843,-0.0205884668976068,0.0250473227351903,0.0860941410064697
1.693968017578122,-0.0552754951613023,-0.0244642869099974,-0.0442389546990394,-0.0166157521307468,0.0178283564746379,0.0865518152713775
1.7039321289062528,-0.0622069749249145,-0.0157680624961853,-0.0433528195142745,-0.0113845048472285,0.010447671636939,0.0848186239600181
1.7138972167968731,-0.0680994670296087,0.0032104864791035,-0.0239157131165266,-0.012356755323708,0.0046872152015566,0.0822761356830596
1.723861328125004,-0.0707482645053416,0.0637409430265426,0.0210755212545394,-0.0132411904633045,0.0125147774815559,0.0732150003314018
1.7338259277343724,-0.0755792283257469,0.0753396108835935,0.0258364520460367,-0.0132634304463863,0.0116504309698939,0.0690710991621017
1.7437910156249998,-0.0763175525376573,0.0641962855786085,0.0252379016309976,-0.014767849817872,0.0148611385375261,0.0632116124033927
1.7537551269531235,-0.0876932983590289,0.0453466236799955,0.0087841949582099,-0.0153185222297906,0.0149481836706399,0.0542735420167446
1.763720214843751,-0.0903072071844711,0.0186931561626493,0.0148906951397657,-0.0127349887043237,0.0135830473154783,0.05240373685956
1.7736840820312523,-0.0737957424424588,0.0399364351995289,0.0143704706579446,-0.0095497760921716,0.0111728459596633,0.0440907143056392
1.7836489257812502,-0.0667302975682541,0.0782743491612374,-0.025248423025012,-0.0109074562788009,0.0084170075133442,0.0362226702272892
1.793613037109374,-0.05659234991353,0.1085341706074774,-0.0265448925763368,-0.0079849157482385,0.0047659017145633,0.0295416675508022
1.8035781250000014,-0.0206590128755196,0.0985498060792684,-0.0045095863789319,-0.0093069085851311,0.0055422130972146,0.0222083888947963
1.8135419921875027,-0.0113088545976206,0.0936167335912585,0.0154500825881958,-0.0117755532264709,0.0141456024721264,0.0118989162147045
1.8235068359375006,-0.0228670808464288,0.0834172650076448,0.0386421576052904,-0.007592259440571,0.019819201901555,0.007417881861329
1.8334711914062538,-0.0176415647504851,0.0581492604993283,0.0249561620801687,-0.0052466760389506,0.0186662040650844,0.0031469918321818
1.8434362792968813,-0.0036968452239409,0.0542541527569293,0.0045060792475938,-0.004235207568854,0.0174382198601961,0.0016452353447675
1.8534001464843755,0.0052845162741839,0.0325640067353844,-0.0225812496423721,-0.0093987006694078,0.0085927350446581,0.0007629785686731
1.8633649902343734,0.0053582390975207,-0.0040483986079692,-0.0111240360826253,-0.0122956875711679,0.0027910387143492,-0.0039649312384426
1.873329101562497,-0.009253821763955,-0.0527108688376843,0.0277981075078248,-0.0127736767753958,-0.0006241160444915,0.0015721768140792
1.8832939453125022,-0.0057064680133014,-0.0709568657547235,0.0490139140158891,-0.0178155731409788,0.0006113243289291,0.0025524864904582
1.893259277343752,-0.008437281216681,-0.0614461100876331,0.0420434904813766,-0.022852761670947,-0.0009477522689849,0.0022567291744053
1.9032231445312533,-0.0042674116535112,-0.0481377157032489,0.0392798709869384,-0.0194063652306795,-0.0084836985915899,0.0094387419521808
1.9131879882812513,-0.0146053388597443,-0.0134986562594771,0.0418500137358903,-0.0192947480827569,-0.0070316777564585,0.010354958474636
1.923152099609375,-0.019175130993314,0.0092643796905875,0.0428928007870912,-0.0279478915035724,-0.0005846978165209,0.0109690837562084
1.9331171875000024,-0.0254656094396486,0.0101110596477985,0.0569084666579961,-0.0300256330519914,0.006372045725584,0.0103643778711557
1.9430808105468813,-0.0287167567227035,0.0064336863093078,0.0519499674677848,-0.0309316404163837,0.005718239583075,0.0096623683348298
1.9530458984375016,-0.0180115671066567,-0.0253887082785367,0.0284773219436407,-0.0355125069618225,0.0043269842863082,0.0049334084615111
1.9630100097656324,-0.0388907986041158,-0.0532829696372151,0.0396048651576042,-0.0358195714652538,0.0027490616776049,0.0004092305898666
1.9729750976562528,-0.0567148803146555,-0.0548703849591314,0.0567640897512435,-0.0333010852336883,0.0021131748799234,0.0010752975940704
1.9829392089843765,-0.063788910354115,-0.0185718678705394,0.0469733480989933,-0.0380407124757766,0.002551797311753,-0.0006544254720211
1.9929040527343673,-0.0639288668140768,0.0092645258210599,0.0483534042805433,-0.0453692972660064,0.0006179048214107,-7.41272233426e-05
2.002868164062498,-0.0424701549282297,0.0285692380107939,0.0548410127341747,-0.0498087890446186,0.0132572669535875,-0.0016294135712087
2.012833007812503,-0.0083989585002884,0.0211726980186998,0.0429097519218921,-0.0452482961118221,0.013458895497024,-0.0037275995127856
2.022797119140634,-0.0005740370282903,-0.0298603007346391,-0.0223375040143728,-0.0452621467411518,0.0085885068401694,-0.0084991846233606
2.032761962890625,0.0013789602030068,-0.0451736052006483,-0.0674520725041627,-0.0406618006527423,-0.0009287246502935,-0.0089683234691619
2.0427270507812523,-0.0067605436434969,-0.0179047822639346,-0.0495136802315712,-0.0360476076602935,-5.33435959368e-05,-0.0107068344950675
2.052691162109383,-0.0146584938190877,0.0253021990388631,-0.0370160177081823,-0.0327522121369838,-0.0018030405044555,-0.0169532783329486
2.062656005859374,-0.0385635759437456,0.0830884714446961,-0.0168289697259664,-0.0309673622250556,-0.0020600357092916,-0.0255986973643302
2.0726201171874976,-0.0514090655241161,0.0829110690511763,0.0025789105772972,-0.0290320422500371,-0.004795741289854,-0.028560509905219
2.0825849609375027,-0.058225723269023,0.04009761711061,0.0233189162671566,-0.0249006804078817,-0.001174907432869,-0.0376767814159393
2.0925490722656335,-0.05415387072023,-0.0235395732805132,0.012247487154603,-0.0145688205957412,0.0007528052665293,-0.0403293073177337
2.102514160156254,-0.0425743459550663,-0.0653027855157852,-0.0313987623482942,0.0006594010628759,-0.0077152475714683,-0.0401764437556266
2.1124782714843775,-0.0360524699056521,-0.0620648265078663,-0.0611643705368041,0.0112064704298973,-0.0156370252370834,-0.0425416454672813
2.122442871093753,-0.0244283753463998,-0.0020903964079916,-0.069212067914009,0.0168156195431947,-0.0189747661352157,-0.0455707274377346
2.1324069824218768,-0.0134791478414088,0.0243367150075733,-0.0246522106975317,0.0192410983145236,-0.0168523415923118,-0.0476540960371494
2.142372070312497,-0.0268698136817663,0.0272815362878143,0.0144645786821842,0.0231903009116649,-0.0103049594908952,-0.053889088332653
2.152336181640628,-0.0466689948575571,0.0174171448774635,0.0402998616844415,0.0234698168933391,-0.008530736900866,-0.0577126778662204
2.1623012695312482,-0.0552647911041975,0.0186824886381626,0.051710898014903,0.0151378512382507,-0.0092793516814708,-0.0599955357611179
2.1722651367187495,-0.0547915475692599,0.0242578045524656,0.0478688356339931,0.0101387575268745,-0.0104770418256521,-0.0630857497453689
2.182230224609377,-0.0346063627505674,0.056410746268928,0.0382780004680156,0.0044763437472283,-0.0099651822820305,-0.0669076517224311
2.192195068359375,-0.0310640505012124,0.1008930082045495,0.0484597872644662,-0.0007205395959317,-0.0155563466250896,-0.0724290311336517
2.2021591796874986,-0.0408889866840094,0.1348719963043928,0.0789601394683122,-0.0043975659646093,-0.011977856978774,-0.0762208327651023
2.2121240234375037,-0.0297935191087424,0.1444448574222624,0.1038631100565195,-0.0111129032447934,-0.001665452029556,-0.0824087634682655
2.222087890624998,-0.0105227091886103,0.1017562009051442,0.1062637414574623,-0.0134466309100389,-0.0005328096449375,-0.0851582139730453
2.2320532226562477,0.0051719592778012,0.0352254810295999,0.0445949285298585,-0.0111170597374439,-0.004710691049695,-0.0895327925682067
2.2420173339843785,0.0153614909892901,-0.0079408760018646,-0.0196954650729894,-0.0020995959639549,-0.0174832120537757,-0.0899791419506073
2.251981933593747,0.0224926215108484,0.0030326456941664,-0.0154839848577976,-0.0051570362411439,-0.0249571520835161,-0.0925412699580192
2.261946044921878,0.0377179919650778,0.0266414848186075,0.0158458039075136,-0.0040675373747944,-0.025805102661252,-0.0945226624608039
2.271911132812498,0.0325338673254474,0.0278903158359229,0.0490530769824981,-0.0105888396501541,-0.0238470192998647,-0.0983921289443969
2.2818749999999994,0.0279067555140703,0.051721273278445,0.0487216530710458,-0.0152672156691551,-0.0182477235794067,-0.0977883860468864
2.291840087890634,0.02654598855488,0.0461632007598876,0.0426800348192453,-0.025814589112997,-0.0193111635744571,-0.0955877900123596
2.301804931640625,0.0458448920583352,0.0154600194603204,0.0333212548434734,-0.0240707509219646,-0.0231322683393955,-0.092007964849472
2.3117690429687485,0.0509448820784688,-0.0163875095687806,0.0157078567415475,-0.0216327402740716,-0.0287826359272003,-0.0866124555468559
2.321734130859383,0.0451546813044697,-0.0456529131501913,-0.0154676182448863,-0.0148054603487253,-0.034002162516117,-0.0795042067766189
2.3316982421874997,0.0536089867211878,-0.0384935429148375,-0.0107569563359022,-0.0148974191397428,-0.035059992223978,-0.0733470916748046
2.3416628417968752,0.0399924031704664,-0.0309345058374106,0.0103799397170543,-0.0155131425708532,-0.0297459177672863,-0.0656183212995529
2.351626953124999,0.0549113745566457,-0.0552165680482983,0.0497737924724817,-0.0163302104920148,-0.0198710355907678,-0.0617254413664341
2.3615922851562487,0.0675910060508176,-0.0989209774792194,0.0789899500846862,-0.018491631373763,-0.0123041942715644,-0.0525524467229843
2.37155615234375,0.0757995200129225,-0.1252769233547151,0.0660053808271884,-0.0188146829605102,-0.0138335628435015,-0.0465179160237312
2.3815212402343775,0.069688599384576,-0.1268593702405691,0.0578022006273269,-0.0153235457837581,-0.0161718167364597,-0.0405913181602954
2.391485107421879,0.0505835744854062,-0.1199136427558958,0.0454284567445516,-0.0195184834301471,-0.0189696289598941,-0.0320234820246696
2.4014499511718768,0.0610012523969635,-0.0982441011309623,0.0418891767024993,-0.0173743721097707,-0.0221110936254262,-0.024575151503086
2.4114140625000005,0.0438712538978084,-0.0383874521918594,0.0123234750002622,-0.019396599382162,-0.0274484734982252,-0.0176692698150873
2.421379150390628,0.0258485443426296,0.0127856856845319,0.0060310968577861,-0.0258145499974489,-0.0220763441175222,-0.0178493000566959
2.431343994140633,-0.0069661492181941,0.0141352005973458,0.0238560918837785,-0.0307585336267948,-0.0236473735421895,-0.0232769399881362
2.4413081054687495,-0.0476152992643415,0.0020421733520925,0.0637538025081157,-0.0346328988671302,-0.0138930110260844,-0.027031198143959
2.451273193359377,-0.0608340060712769,-0.0186873109437525,0.0585766921311616,-0.0314412787556648,-0.0129739260300993,-0.0299312639981508
2.4612370605468783,-0.073076999713853,-0.0482882300898432,0.0279611891150474,-0.0336128212511539,-0.0122008100152015,-0.0372395068407058
2.4712019042968763,-0.0718804103404283,-0.0456752711124718,0.0057774143576622,-0.0245368890464305,-0.0069005601108074,-0.0451380051672458
2.481166015625,-0.0590115764170885,-0.0172374043963849,-0.0345662864685058,-0.0139433657750487,-0.0109248626977205,-0.0523517094552516
2.4911311035156274,-0.0325660160293802,-0.0114086982429027,-0.0893424172729253,-0.0077745639719069,-0.015014705248177,-0.0599586740136146
2.501095214843751,-0.0150427438963204,-0.0448053564101457,-0.1406955878913402,0.0020921812392771,-0.0174893159419298,-0.0701540485024452
2.5110603027343785,-0.0125524249179288,-0.048808016180247,-0.1593342373877763,0.0105106998234987,-0.0196912176907062,-0.078732892870903
2.5210241699218727,-0.0201080279292538,0.0065754328675568,-0.1256926645487547,0.0123694371432065,-0.0231917407363653,-0.0818306282162666
2.530989013671878,-0.0435053797274827,0.0722340460836887,-0.0814805978566408,0.0163846295326948,-0.0267894156277179,-0.0882821977138519
2.5409531250000015,-0.0374028981339186,0.1056057159401476,-0.0241208802998065,0.0126253124326467,-0.0196928903460502,-0.0907365679740905
2.550918212890629,-0.0303091770133003,0.0800575793161988,0.0072334583848714,0.0154468938708305,-0.0100354477763175,-0.0937020108103752
2.560883056640634,0.0038149186456575,0.0233817523702979,-0.0081155019164085,0.0222739074379205,-0.0098687335848808,-0.0918713510036468
2.5708471679687506,0.0307820917546749,-0.0359634399153292,-0.0486871662795543,0.0234445333480834,-0.0234478302299976,-0.090997576713562
2.5808120117187485,0.0319472630765289,-0.1165364214077591,-0.0285135623008012,0.0272789523005485,-0.0273088812828063,-0.0851271748542785
2.590776123046872,0.0228392795240506,-0.155561002459377,0.043650341156125,0.0327467992901802,-0.026879109442234,-0.0781546980142593
2.6007409667968773,0.0083064944438636,-0.1517336992561817,0.0942448023617267,0.0276026390492916,-0.0219285599887371,-0.0677968710660934
2.610705078125001,-0.0046336511500179,-0.121189800171554,0.1140577563345432,0.024049025028944,-0.017094075679779,-0.0634624138474464
2.620669921874999,0.0030438977405428,-0.0703670831680297,0.1289981358349323,0.0182787515223026,-0.0079019088298082,-0.0557717382907867
2.630634277343752,0.029576076965779,-0.044611733534187,0.1099672721505165,0.0116379521787166,-0.0055683990940451,-0.0475600473582744
2.6405993652343724,0.057303859183751,-0.0214715348348021,0.0193967743873596,0.0146587770432233,-0.0092683285474777,-0.0461017005145549
2.6505629882812514,0.0739394252294674,-0.0048332653753459,-0.0383545728355646,0.0267536006867885,-0.0146580776199698,-0.039501816034317
2.660528076171879,0.0657219242433086,0.0181353761494159,-0.083151161417365,0.0335662327706813,-0.0182813070714473,-0.0342809557914733
2.6704921875000025,0.0423178504433482,0.0331361075349152,-0.1063251162558794,0.0370719917118549,-0.0253510009497404,-0.0346842482686042
2.6804570312500005,0.0190857356768101,0.047955783265084,-0.0775619631081819,0.0322055965662002,-0.0232079550623893,-0.0332820937037467
2.6904208984375018,0.0003119885586202,0.0547280538789927,-0.0071112933099269,0.0281451009213924,-0.0157258585095405,-0.0330035537481308
2.7003862304687516,-0.0112217973686754,0.0537744064159691,0.0338216055810451,0.0202746614813804,-0.0137710990384221,-0.0325950235128402
2.7103510742187495,0.0039486280279234,0.0260996330268681,0.0463221907138824,0.0132639911025762,-0.0042791557498276,-0.0302959159016609
2.7203151855468732,0.0432481170307844,-0.0273215760372579,0.0565665213525295,0.0096966866403818,-0.0051984791643917,-0.028565127402544
2.7302802734375007,0.0900644844697788,-0.0583170182816684,0.0175128603368997,0.0159546323120594,-0.0078677516430616,-0.0263176262378692
2.7402438964843725,0.1109175220800563,-0.0753530548870563,-0.019615970095992,0.0166390631347894,-0.0146859753876924,-0.0257770046591758
2.750208984375,0.1052341426813975,-0.0645044747449457,-0.0064268181771039,0.012826470658183,-0.0154902851209044,-0.0240486562252044
2.7601730957031236,0.0949166006760671,-0.0387203374080359,0.0466407551437616,0.0085366517305374,-0.0118153886869549,-0.0273248776793479
2.770138183593751,0.076884100379236,-0.004987871415168,0.0933902313590049,0.0008233650587499,-0.0036970640067011,-0.0309944711625576
2.7801020507812524,0.0535689835043624,-0.0048449558131396,0.1093354039877653,-0.0055458508431911,0.0054948362521827,-0.0270633809268474
2.7900671386718727,0.0309065949171781,-0.0358620253674685,0.1042372040659189,-0.0080522904172539,0.0091034602373838,-0.0251635834574699
2.8000312500000035,0.0371476812638342,-0.0433614412121474,0.0289589679807424,-0.005763569381088,0.004497523419559,-0.0181197896599769
2.8099960937500015,0.0628907194053754,-0.0467693499594926,-0.0510860441148281,0.0027818265371024,-0.0061886617913842,-0.0140074724331498
2.819959960937503,0.0670845178334042,-0.0323369199812412,-0.0873264012753963,0.0116908997297286,-0.0124699939042329,-0.0078355967998504
2.829925048828123,0.0506990175586193,0.0168165486358106,-0.0611895049780607,0.0199238322675228,-0.0108268437907099,-0.0019087148830294
2.8398901367187506,0.045831996044144,0.0621349691346287,-0.0437134695202112,0.0225569009780883,-0.0064009362831711,0.0012396737001836
2.8498542480468814,0.0300789119213819,0.065897098147124,-0.0146995564818382,0.0194786377251148,-0.00365378591232,0.0008065639995038
2.859819091796872,0.0339088089404627,0.0235217453628778,0.0241945300579071,0.0232022702693939,-0.0024716088082641,0.0062292926013469
2.8697829589843735,0.0507139959320425,-0.0291793327331542,0.0225678056389093,0.0274031795561313,-0.0052316929213702,0.0041824444197118
2.879748046875001,0.0460104213509708,-0.0731624129749834,-0.0083352821469306,0.0339308567345142,-0.0101028811186552,0.0033640549518167
2.8897121582031176,0.0319661504400894,-0.0533295852579176,-0.0151116444140672,0.0359746292233467,-0.0146164819598197,0.0035595202352851
2.899677246093752,0.0342959450945258,-0.0174811500243842,0.0055640638679265,0.0279750265181064,-0.0111431870609521,-0.0009398902766406
2.9096411132812534,0.0333756519118323,0.0059866731941699,0.0478039537042379,0.0192163847386837,-0.0084437867626547,-0.0019308687187731
2.9196059570312514,0.0142432275490835,0.0423461266897618,0.0725134475469589,0.0058814063668251,-0.004576610866934,-0.0043221204541623
2.929570068359382,0.0087646134749054,0.0835967132277786,0.0893564457982778,-0.008855634368956,0.0011873662006109,-0.0068665817379951
2.9395351562500025,-0.0021949162283912,0.0598943506009876,0.0822007288247346,-0.0194363743066787,0.0032931277528405,-0.0120453648269176
2.949499023437504,0.006018931495957,0.018540888210386,0.0718576139867305,-0.0194102711975574,0.0039642816409468,-0.0117329340428113
2.9594638671875018,0.0176839425874874,-0.0043738311700522,0.0428828639149665,-0.0132341356948018,0.0018249645363539,-0.0062649329192936
2.969428222656248,0.0372125631935894,-0.0066717328488826,-0.0103349315315485,-0.0058812485076487,-0.0058803013525903,-0.0058607109822332
2.9793933105468753,0.0487205936251208,-0.0161414258532226,-0.0545130959540605,-0.0023805233649909,-0.0099762436002492,-0.0039600129239261
2.989356933593747,0.0260712471826001,0.0003986439287662,-0.0523988802790641,0.0047105103731155,-0.0114503605291247,-0.0043591749854385
2.9993220214843674,0.0197863582268357,0.0332714243523776,-0.0282592952787876,0.0055065285414457,-0.0095757618546485,-0.003032122272998
3.009287109375002,0.0117081926461309,0.0316287717118859,-0.0227566062092781,0.0014683473855257,-0.0124540505930781,-0.0005241972394287
3.0192509765625033,0.0010647796873003,0.0358883288525044,0.0040752866148948,0.0007940344512462,-0.0160067062824964,-1.42017379403e-05
3.029216308593753,-0.0020396526014432,0.0103388770543038,0.0350771586000919,0.0014089234173297,-0.0054031200706958,0.0014411197043955
3.0391801757812473,-0.0055572688009589,-0.0217677413024008,0.0315653510868549,0.0055368226021528,-0.0069269808009266,0.0022499221377074
3.0491450195312524,-0.0083553385542705,-0.0570161648161709,0.0054424833148717,0.0029797870665788,-0.0161594375967979,0.0062433914281427
3.059109130859383,-0.0194743331355974,-0.0437191686086356,-0.0150157828241586,-0.0007648840546607,-0.0227294564247131,0.0046777194365859
3.0690742187500035,-0.0448213211642578,0.0013721651360392,0.0180395145595073,-0.005801647901535,-0.0158887486904859,0.0012999433092772
3.0790378417968753,-0.0469841982865706,0.0153416537776589,0.0393546897888183,-0.0100033171474933,-0.0074859415180981,0.0004378780722618
3.089002929687503,-0.0491904030939564,0.0447945427551865,0.0395288773119449,-0.0157620199024677,-0.0049350764602422,-0.0034999414347112
3.0989670410156336,-0.046158122725971,0.0339298882611095,0.0189881935864686,-0.017000388354063,-0.0034469021484255,-0.0060371351428329
3.108932128906254,-0.0314706950733438,0.0368054436974227,-0.0062286652565002,-0.0142908450216054,-0.0060178348794579,-0.009229589253664
3.118895996093748,-0.015080372492969,0.0254755097791552,-0.0430371776938438,-0.0088524036109447,-0.01031937263906,-0.0143311414867639
3.1288610839843756,-0.0091072529001161,0.0016436755537986,-0.04528232627213,-0.0031267083249986,-0.0114077106118202,-0.0178534425795078
3.1388251953124993,-0.0045502837155014,-0.0264269652850925,-0.055778585845232,-0.003742697648704,-0.0147997792810201,-0.0264613106846809
3.148790039062497,-0.020300445228815,-0.0373131009586155,-0.0480061982780694,-0.0042603788897395,-0.018424704670906,-0.0322862416505813
3.1587539062499985,-0.0411960798718035,0.013025193528831,-0.008101473391056,0.0014078933745622,-0.0192936938256025,-0.035193882882595
3.168718994140633,-0.0607131927032023,0.0307056655175983,0.0310924728780984,0.0077468566596508,-0.0145643204450607,-0.0402853451669216
3.1786831054687497,-0.0566789322184398,0.0512752830766141,0.02749006447196,0.0127330934628844,-0.0096310824155807,-0.0445370823144912
3.188648193359377,-0.0382974358208477,0.0513549241840839,-0.0134667998164892,0.0121977906674146,-0.0096459547057747,-0.050989881157875
3.198613037109382,-0.0137074401719495,0.0367224415890872,-0.0667851330280304,0.021330302581191,-0.0144415097311139,-0.0563604123890399
3.2085769042968764,0.0008691109847277,0.0120883510701358,-0.0861246242702007,0.0239833388477563,-0.021037321537733,-0.0580823756754398
3.218541992187504,-0.0050913317896425,0.0035213059939444,-0.0540355415701866,0.0245649721473455,-0.0211409199982881,-0.0614635236561298
3.2285061035156275,-0.0210291613621637,-0.0146497259907424,0.0046218145817518,0.021697886288166,-0.0181545652449131,-0.0687603652477264
3.238471191406248,-0.0492050526738166,-0.0283238849475979,0.0679635291576385,0.0201026536524295,-0.0128530114889144,-0.0733255594968795
3.248435058593749,-0.0539736918477341,-0.0298095934607088,0.1028308443993329,0.0193500444293022,-0.0067128264345228,-0.0729303434491157
3.258399902343747,-0.0442131992032751,0.0236858498834073,0.0515606758892536,0.0158916637301445,-0.0106058344244956,-0.0742811039090156
3.268364013671878,-0.0062439358908683,0.0732921768344938,-0.0284153626233339,0.01023830473423,-0.0197061225771904,-0.0745101347565651
3.2783291015624982,0.0238627773528918,0.0675011723428964,-0.0252028303176164,0.006273390725255,-0.0236273612827062,-0.0755309239029884
3.2882929687499995,0.0360778966078534,0.0487540940359234,0.0151817870408296,0.000752318650484,-0.0180710926651954,-0.073579303920269
3.298258056640627,0.0243772296810522,0.0198049167968332,0.0058136547148227,0.0007216921076178,-0.0213542375713586,-0.0747186094522476
3.3082221679687507,0.0058048503538593,-0.0105029815748333,-0.0056342064946889,-0.0007208781316876,-0.0254873782396316,-0.0717618390917778
3.318187255859378,-0.0038580271350219,-0.0220329681098461,0.0316898542493581,0.0036658812314271,-0.0245752446353435,-0.0703407749533653
3.3281511230468723,-0.0140044138245284,-0.0150059920825064,0.0460258381158113,0.0034365188330411,-0.0185054540634155,-0.0717126950621604
3.3381159667968774,-0.0237766334393993,-0.0184700149312615,0.0186409875839948,0.0018615256994962,-0.0154313677921891,-0.0735723823308944
3.348080078125001,-0.0244726163469254,-0.0102020989321172,0.0117383685886859,0.0029870187863707,-0.01595957018435,-0.0677398592233657
3.358044921874999,0.0164582001848146,-0.0085806352101266,-0.0033025486767292,0.0027164416387677,-0.0136809684336185,-0.0686096474528312
3.3680090332031227,0.0440150462826713,-0.0111585228741168,-0.0166910225600004,0.0083916997537016,-0.0153955491259694,-0.071244016289711
3.37797412109375,0.0405345472231507,-0.0136631991714239,-0.018510054680705,0.0109557909891009,-0.0135286720469594,-0.0703606456518173
3.387938232421874,0.0541549666987732,0.0012593524113297,-0.0325017551541328,0.0113129848614335,-0.0167836248874664,-0.0716373398900032
3.397903076171879,0.0588511616909876,0.013778642244637,-0.0189566294044256,0.0131047600880265,-0.0166728384792804,-0.0711853951215744
3.407866943359373,0.0523554429961368,0.0084073244698345,-0.0152343940109014,0.0175298489630222,-0.0133298337459564,-0.0731359869241714
3.417831787109378,0.0427453551404178,-0.0117797235123813,0.0035655835270881,0.0146099589765071,-0.0135069340467453,-0.0745157673954963
3.427795898437502,0.0373071461418643,-0.0336151232235133,-0.0068511810690164,0.009612089022994,-0.0188235212117433,-0.0750561729073524
3.437760986328122,0.0302647898823022,-0.0281990895241498,-0.0143412445634603,0.0082376319915056,-0.0196232683956623,-0.0801004618406295
3.4477258300781273,0.0303240457888692,-0.0030808687500655,0.01491992123425,0.0012034308165311,-0.0193651430308818,-0.084516704082489
3.457689941406251,0.0329511794220656,0.0115961836390197,0.0428103832006454,-0.001319914124906,-0.0161885246634483,-0.0853675752878189
3.4676550292968784,0.0311770458890125,0.0239437701672315,0.0542483075380325,0.0004343101754784,-0.0124001782387495,-0.0867691934108734
3.477619140625002,0.044903519554995,0.0237441559419035,0.0226145673900842,-0.0047023948282003,-0.0087116993963718,-0.0808868110179901
3.487583984375,0.0718644090536981,0.0166407536774873,0.0142138187915086,-0.0059610116295516,-0.0111874397844076,-0.0786005705595016
3.4975480957031237,0.090508867236413,-0.0092528353832662,-0.0005225625693798,-0.0090785082429647,-0.0094662383198738,-0.0763938799500465
3.507512939453129,0.0891868613850325,-0.0643134822174906,-0.0090063132762908,-0.0054531889036297,-0.0111269261687994,-0.07083211094141
3.517476806640623,0.0920487170895561,-0.1060275946140289,-0.0068926821231842,-0.005524028558284,-0.0142404288053512,-0.0682158172130584
3.5274418945312505,0.0675293755240738,-0.0991341818384826,0.0275426714420318,-0.0055672135204076,-0.0091255018487572,-0.0648644715547561
3.537406005859374,0.0627021014980971,-0.0858368933700025,0.0390770418912172,-0.0064913304522633,-0.0040995832532644,-0.0599442869424819
3.5473710937500016,0.0529850826691836,-0.0490507388949394,0.0115413847118616,-0.0067466860637068,-0.0012801545672118,-0.054776445031166
3.557334960937503,0.0459086414769291,-0.0203765792049467,-0.020583938345313,-0.0111078787595033,-0.0033161411993205,-0.0499342828989028
3.5673000488281232,0.0292739522140473,0.0094923432275652,-0.0294973126411437,-0.0083045931532979,-0.0053710951469838,-0.045939564704895
3.5772639160156317,0.0421460010077804,-0.0215250185877084,-0.0186924255102872,-0.0060206661000847,-0.0062619228847324,-0.0420295149087905
3.587229003906252,0.0458880005476996,-0.0485844365574419,-0.0205436063349246,0.0003499519079923,-0.007429264485836,-0.0376385040581226
3.5971928710937533,0.0485267515534535,-0.0445569346070289,-0.0335176541984081,0.0092505030333995,-0.0126093784347176,-0.0330930203199386
3.6071577148437513,0.0425893608611077,-0.0556764406450092,-0.0410059641271829,0.0080082705244421,-0.0147836320102214,-0.0300768818706274
3.6171220703124973,0.0451480323679745,-0.0552732666715979,-0.008099719825387,0.0080921603366732,-0.0124072916805744,-0.0332036986947059
3.6270871582031177,0.0404280181087553,-0.0395187943093478,-0.0006891513079404,0.0113882767036557,-0.0124000888317823,-0.0315430350601673
3.637051025390633,0.0404786523174494,-0.0106156481690704,-0.0112251583695411,0.0107275461778044,-0.0142504535615444,-0.0320956408977508
3.647015869140624,0.0508645468512549,0.0065641808211803,0.0134977794766426,0.006875017657876,-0.0151122529059648,-0.0350861027836799
3.6569799804687477,0.0559187615009024,-0.0056618251539766,0.0366594593554735,-0.000941093545407,-0.0097467815503478,-0.0307326354086399
3.6669450683593823,0.0662665159814059,-0.0158051796361804,0.0501139842122793,0.003657542169094,-0.0074632503092288,-0.0322026647627353
3.676908691406247,0.062899268038012,-0.0281022050209343,0.0296802679926156,0.0031624604016542,-0.0061484482139348,-0.0353427976369857
3.686874023437504,0.0477712570110335,-0.0307096110403537,0.0183861360400915,0.0048620607703924,-0.0073055736720561,-0.03548289462924
3.6968381347656276,0.0259984376747161,-0.013666706302762,-0.0086976857185363,0.007796598598361,-0.0107165500521659,-0.035997949540615
3.7068029785156327,0.0012649784345179,0.0029467209763824,-0.0136439099490642,0.0065275616943836,-0.0082509368658065,-0.0418433025479316
3.716766845703127,-0.0211919872410595,4.60310988128e-05,-0.0024310265392065,0.0088530350476503,-0.0022178117651492,-0.0407290309667587
3.726731933593747,-0.013263641927205,0.0101000998623669,-0.0133230074316263,0.0144948130473494,-0.0025444692000746,-0.0373857170343399
3.7366958007812485,0.0037744770374149,0.0259324597664177,-0.0360796136409044,0.0123629523441195,-0.0112311681732535,-0.0404520854353904
3.746660888671876,0.0195139710262417,0.0259033798024058,-0.0357037660658359,0.0092347469180822,-0.0096481498330831,-0.0390938967466354
3.7566249999999997,0.0197249468958005,0.0119489425994455,0.0065992521345615,0.0060181813314557,-0.0067620817571878,-0.0393072180449962
3.7665898437499976,0.0417080845145508,-0.0088449852347373,0.0607856003522872,0.0039905970916152,-0.0029727593064308,-0.0403806678950786
3.7765539550781284,0.0645282209467142,-0.0406315778568387,0.0513420647025108,-0.001689925789833,-0.0003900255542248,-0.0401036962866783
3.7865190429687487,0.0663478741219267,-0.1152547110341489,0.0524818823873996,-0.0056302319280803,0.0052978182211518,-0.0393764227628707
3.7964831542968724,0.0879660874184221,-0.1437367091529071,0.0398380893915891,-0.01238320954144,0.0039744935929775,-0.0372584089636802
3.806447753906248,0.0889545504665002,-0.1321960550934076,0.0147322897076606,-0.004857575520873,-0.0028145823162049,-0.0304253660142421
3.816411865234379,0.0945026861129328,-0.0963002735868096,-0.0172223529577255,-0.0007997169159352,-0.0063384771347045,-0.025072943419218
3.826376953124999,0.1080710466077551,-0.0582572509184479,-0.0083984105110168,0.0017504543066024,-0.0071298899129033,-0.0218662228435277
3.836341064453123,0.1075475341903045,-0.0331616803675889,0.0060989013969898,0.0002399096265435,-0.0082071386277675,-0.018112763762474
3.846305908203128,0.0989475001599639,0.013436258547753,0.0165729491382837,0.0011670924723148,-0.0085108261555433,-0.0151539258658885
3.8562700195312516,0.0941528497619554,0.0086297350488603,0.0300251359075307,-0.0033104801550507,-0.0094855427742004,-0.0139712151139974
3.8662348632812495,0.0717949970792979,-0.0233532569281756,0.0876356133550405,-0.0077371811494231,-0.0025323934387415,-0.0137947769835591
3.8761989746093732,0.0397895010095089,-0.0366584364421665,0.1047808094233274,-0.0044042351655662,0.0037167139817029,-0.0119673172011971
3.8861638183593783,0.0159437478566542,-0.053853755262494,0.0771376002162694,-0.0009717042557895,0.0085392389446496,-0.007402045186609
3.896127929687502,0.0147603832909837,-0.0654610448174178,0.0286783974736928,0.0042707286775112,0.0081062093377113,-0.0034219506196677
3.9060930175781223,0.0215745933504775,-0.0508927134998142,-0.0025303952604532,0.0117636024951934,0.0095069538801908,-0.0010397625155746
3.916057128906253,0.0290501533955335,-0.0293342310339212,-0.0369751011759042,0.0138496570289134,0.0023478441871702,0.0013371086679399
3.926021972656251,0.0544871577952057,-0.02181114205271,-0.0747761317819356,0.0152639644220471,-0.0007999176159501,0.0058951051905751
3.9359858398437524,0.0570605154145509,-0.0133688923999667,-0.070472881630063,0.0123459389433264,-0.006350478157401,0.0110605722293257
3.9459509277343727,0.0328822423717007,-0.0030982582762837,-0.0364227279901504,0.0064103798940777,-0.004672572016716,0.0125806163996458
3.9559150390625035,0.0231263163045048,-0.024264526554197,0.0349304436057806,-0.001775911077857,-0.003586535109207,0.0142959598451852
3.965880126953124,0.0056234659049659,-0.0340527839884161,0.0888408974915742,-0.0121015459299087,-0.0021414575167,0.0140573717653751
3.9758439941406323,-0.0097596158616244,-0.0209520410053432,0.1343932728767395,-0.0193232391029596,0.0062701366841793,0.0099939201027154
3.985808837890623,-0.0181491489464417,-0.0188821028634905,0.1606336295485496,-0.0270540341734886,0.011864811182022,0.005148303695023
3.995772949218754,-0.0124089613266289,-0.0116311088219285,0.1225906068801879,-0.0267251320183277,0.0189767833799123,0.0021229526028037
4.005738037109374,0.008164894016087,-0.0271824598275125,0.0469154804319143,-0.0190286375582218,0.0171914882957935,0.0014308649115264
4.015701904296876,0.0358274655107408,-0.0271831904798746,-0.005137947410345,-0.0108713749796152,0.0139600085094571,-0.0041274181567132
4.0256667480468735,0.0695938337732106,-0.0193222478464245,-0.0634171178996562,-5.96749596297e-05,0.0104788858443498,-0.0088343452662229
4.035631103515634,0.0667547744223848,-0.0160937873192131,-0.0794546449869871,0.0107591496780514,0.0085209300741553,-0.0145987570285797
4.045596191406247,0.062854552113451,0.0121755909621715,-0.0856236890107393,0.0166781954467296,0.0036332947202026,-0.0163338556885719
4.055559814453126,0.0606193404072895,0.0373759370617568,-0.0478179822295904,0.0230037383735179,0.0072405468672513,-0.0183338895440101
4.065524902343753,0.0434398767432197,0.0180954825304448,-0.0225093534499406,0.0246438402682542,0.0074799107387661,-0.0202781539410352
4.075489013671877,0.0297551233271136,-0.0013546294793486,-0.0027431612282991,0.0230230391025543,0.0085718063637614,-0.0226968377828598
4.085453857421875,0.0319895313156768,0.02390928337574,-0.0208574945896863,0.0269836597144603,0.0082532819360494,-0.0172770973294973
4.0954177246093835,0.0482327370429411,0.0428770186960697,-0.0409001656651496,0.0333310365676879,-0.0015471505466848,-0.0161953214555978
4.105383056640633,0.067217533095926,0.0632668957740068,-0.0432429293990135,0.0365475639700889,-0.0047064572572708,-0.0137902908027172
4.11534716796875,0.0694770755257457,0.0642711043804883,-0.0273649767875671,0.0396101921796798,-0.0070122219622135,-0.0076919179409742
4.125312011718748,0.0711571010345593,0.0301537307232618,0.0339086993426084,0.0413495115935802,-0.0004676834214478,-0.0076270652934908
4.135275878906249,0.0659783466897904,0.024961130516231,0.0705377635598182,0.0384903438389301,0.0012487238273024,-0.0030184648931026
4.145240722656247,0.0565310481803491,0.0264427473761141,0.0921831936568021,0.0272540301084518,0.0006941589526832,0.0021022660657763
4.155204833984378,0.0617747575201094,0.0227031224563717,0.1166647239625453,0.0265815816819667,0.0036816929932683,0.0029890986625105
4.165169921874998,0.065114898260869,0.0006612403877079,0.1518529417216777,0.0205723457038402,0.0058630816638469,0.0066556078381836
4.175134277343751,0.0563821412289515,0.0148012632906436,0.1480582256138324,0.018873780965805,0.0129106044769287,0.0103036053478717
4.185098876953127,0.0554804066162556,0.0147252754449844,0.1352332308322191,0.0112792216241359,0.0147098517045378,0.0068777040578424
4.195062988281251,0.0591672419028356,0.0249096925899386,0.1344540631532669,0.0001666499301791,0.0184502620249986,0.0037045474164187
4.205028076171878,0.0523773990996181,0.0338493703708052,0.120352472564578,-0.0062948302365839,0.0218035578727722,0.0070595815777778
4.214991943359372,0.054534759796597,0.0311748904645442,0.1012251627683639,-0.0167645141482353,0.0250315740704536,0.0094439098611474
4.224956787109377,0.06598028291855,0.0145902508884668,0.0879670372664928,-0.023096065968275,0.026434713974595,0.0104557052254676
4.234920898437501,0.0615272855650633,-0.00324044322595,0.0641349107801914,-0.0313236378133297,0.0265050213783979,0.0118828928098082
4.2448859863281285,0.0653462227987125,0.0044737844131886,0.0536029953718185,-0.036209013313055,0.0254805814474821,0.019352002069354
4.254850097656252,0.0698842315545305,0.0228406312309205,0.0247375508934259,-0.0343541204929351,0.0238981321454048,0.0258589033037424
4.2648151855468726,0.0733260060388594,0.0115258948817849,-0.0262321733653545,-0.0359228663146495,0.0169682092964649,0.0263731777667999
4.2747788085937515,0.0652598962221294,-0.0194609256647527,-0.0448819287776947,-0.0385775044560432,0.0120496181771159,0.030909338966012
4.284743896484379,0.0538286573538556,-0.0174403796225786,-0.04289513887465,-0.0335892364382743,0.014945100992918,0.0389550104737281
4.294708007812503,0.0675051543982699,-0.0075837331272661,-0.0159346512347459,-0.0339378453791141,0.0168676376342773,0.0429460257291793
4.304672851562501,0.0790651342127472,-0.0151291800707578,-0.0008557400465011,-0.0325244553387165,0.0143322460353374,0.0512635856866836
4.314636718750002,0.0973748805483803,-0.0365361252367496,-0.0057242228657007,-0.0283462218940258,0.0189120844006538,0.0540431290864944
4.324602050781252,0.1150445388821884,-0.0667971157267689,-0.0018792378753423,-0.0213787890970706,0.0187439620494842,0.062693603336811
4.3345661621093825,0.1057049385309219,-0.0950518809609115,-0.0087397712945938,-0.0122137852013111,0.0195394456386566,0.069988265633583
4.344531005859373,0.1033330948330461,-0.11227803331092,-0.0348082785308361,-0.0021290462464094,0.0174295343458652,0.0741494372487068
4.354494873046882,0.0823441193507984,-0.1123034600131213,-0.0416308180272579,0.003516056574881,0.0125785870477557,0.0762698501348495
4.364459960937502,0.0693453389048576,-0.0679847180761396,-0.0404383933722972,0.0053079016506671,0.0087470486760139,0.0793905779719352
4.374423828125003,0.0648058688443154,-0.0308259308964014,-0.0261930103987455,0.0097929323092103,0.0095084458589553,0.0803953856229782
4.384389160156253,0.0516680452538654,-0.0359074719443917,-0.0110731826782226,0.0124146929010748,0.0072179716080427,0.0778331458568573
4.394353027343747,0.0361718950342386,-0.0204224641732871,0.0140939918041229,0.0086974529549479,0.0088185314089059,0.0752163231372833
4.404318603515634,0.0198761919347569,0.0101620591826736,0.0379401468157768,0.0072699561715126,0.0135698588564991,0.0719216093420982
4.4142827148437505,0.0121451227586716,0.0023920097030699,0.0322211846470832,0.0052092019468545,0.0150484452024102,0.0654101744294166
4.424247558593748,0.0118814668538048,0.0223471486255526,0.0240910696834325,-0.0032940213568508,0.0152439558878541,0.0561938136816024
4.434211669921872,-0.0067974050551652,0.0554034689225256,0.0163894092649221,0.0024019479751586,0.0103884804993867,0.053027581423521
4.444176513671877,-0.0181417328249663,0.1015239995844662,0.0294306771457195,0.0005571004003286,0.0174541920423507,0.0433874800801277
4.454140625000001,-0.0273879558043554,0.080399378491193,0.0444260017037391,0.0007925238460302,0.0244860015809535,0.033768143504858
4.464105712890628,-0.0263109376899898,0.0470486052922904,0.0125087684392929,0.0037889964878559,0.0262147672474384,0.026480121538043
4.474069824218752,-0.0209752757504582,0.0541537611223757,-0.0301548997670412,0.0021048132330179,0.0187083818018436,0.0245189685374498
4.48403466796875,-0.0184853586308658,0.036711627934128,-0.0729103379100561,-0.0013131210580468,0.0176974944770336,0.01993996091187
4.493998535156251,-0.0304467223204672,0.0501397031754255,-0.0508422984868288,-0.0106245968490839,0.0162253007292747,0.0227013919502496
4.503963623046879,-0.0525616696253418,0.0351633755788207,0.009403203639388,-0.0162345133721828,0.0246011577546596,0.0204075817018747
4.513927734375002,-0.0310481222797185,0.040482670905441,0.0507172108024358,-0.0178542472422122,0.025363091379404,0.0256915595382452
4.523892822265623,0.0060631724964827,0.0316695421136915,0.0509112720698118,-0.0188198685646057,0.0203238260000944,0.0276095904409885
4.533856689453117,0.038949798782356,-0.003335428033024,0.0413239440351724,-0.0225991606712341,0.0180034134536981,0.0277771018445491
4.5438217773437515,0.0808692610252648,-0.0503428245320916,0.051416298982501,-0.0172129217535257,0.019058272242546,0.0281834490597248
4.553785644531253,0.1208495353665202,-0.088665102533251,0.0453092142790555,-0.0147569552063941,0.0193243231624364,0.0338852778077125
4.563750732421873,0.1379927586734294,-0.1103004496276378,0.0017886369824409,-0.0089221643283963,0.0176443737000226,0.0358694195747375
4.573714599609374,0.1605302057066932,-0.1253287996724247,-0.0204389769166708,0.0001355130225419,0.0160073284059762,0.0428285263478755
4.583679443359372,0.1427282992953434,-0.1110430846884846,-0.011691606837511,0.0009992718696594,0.0195694789290428,0.0503455698490142
4.593643554687503,0.1144311562241986,-0.0672111033551395,-0.005656418326497,0.0016083372756838,0.0194435119628906,0.0522388108074665
4.603608886718753,0.0855838684570044,-0.0181926592946052,-0.0085468790709972,0.0074971076101064,0.0229309033602476,0.0580923818051815
4.613572753906247,0.076917016268149,0.031162323243916,-0.0316115283161401,0.0147678041830658,0.0229543391615152,0.0643825009465217
4.6235366210937485,0.0807602111602202,0.0492355939425528,-0.074454644742608,0.0176142528653144,0.0181153304874897,0.0716649517416954
4.633501708984376,0.0820299388350918,0.0182746384896337,-0.0920639511913061,0.0238804053515195,0.0125980582088232,0.0796704143285751
4.643465576171877,0.0894809489607811,-0.0412944256797432,-0.0705155517280101,0.0329109095036983,0.0115836430341005,0.0898156762123107
4.653430419921875,0.0847299550414085,-0.0610310995459556,-0.0483686018496751,0.0358523726463317,0.0111234486103057,0.0964298993349075
4.663394531249999,0.0886497223010286,-0.0636515111774206,-0.0038917467415332,0.0299988184124231,0.0106563009321689,0.1003357768058776
4.673359863281249,0.0749695719948038,-0.0290253112152218,0.0413642760455608,0.0222295802086591,0.0194039866328239,0.1035326421260833
4.683323974609372,0.0612557386146858,-0.0167652568399906,0.0791220520317554,0.0168341100215911,0.0258662700653076,0.1095936372876167
4.693288574218748,0.0687579674709588,-0.0163818104803562,0.0607417612105607,0.0076541928574442,0.0234129652380943,0.1147846654057502
4.703252685546879,0.0752357486503198,-0.0136905255697667,0.0126280109047889,0.0013399953022599,0.0182894375175237,0.121800273656845
4.713217529296877,0.0931027561871334,-0.0226220200441777,0.0017547347128391,-0.0084292786195874,0.0145833827555179,0.120323546230793
4.7231816406250005,0.1019418231377378,-0.0229550513908267,0.0438484940767288,-0.0129673797637224,0.0152532458305358,0.1238261461257934
4.733146484374998,0.1063209150047972,0.0070750529527664,0.0850303992927074,-0.0233901925384998,0.0219537578523159,0.1233065649867057
4.743110595703122,0.0977458327526226,0.0132034727051854,0.1193541091769933,-0.0283484868705272,0.0351569280028343,0.1216964051127433
4.7530756835937495,0.0716554424781352,0.0110195527948439,0.1365431443870067,-0.0336015708744525,0.0456199534237384,0.1223637983202934
4.763039794921873,0.0682556074393913,-0.0137092302702367,0.1050952821999788,-0.0323732867836952,0.0518069639801979,0.1199136599898338
4.773004882812501,0.0627427623020485,-0.0291335938952863,0.0251870482265949,-0.0220849644392728,0.0480633564293384,0.1208843812346458
4.7829685058593725,0.0807912638856098,-0.0448465652033686,-0.0402197821855545,-0.0170978140085935,0.0426282696425914,0.1256594359874725
4.79293359375,0.1135057484749704,-0.0744635587014257,-0.0677840809375047,-0.0080587789416313,0.0358920693397522,0.128703698515892
4.802897705078124,0.1120633311143144,-0.0939813291199505,-0.0896434460461139,-0.0027853371575474,0.0250582229346036,0.1275777220726013
4.812862792968751,0.0872060628313571,-0.0714811818897724,-0.0620925912976264,0.0008855639025568,0.0262326765805482,0.1312984377145767
4.822826660156252,0.0583883664848282,-0.0544929299488663,-0.0299497325837612,0.0008925031870603,0.0270920433104038,0.1316403448581695
4.832791748046873,0.0329800401903688,-0.0032277298748493,0.0046826048582792,-0.003728347364813,0.034357413649559,0.131194531917572
4.8427558593750035,0.0097948698380962,0.0359239846877753,0.0188169286727905,-0.003306005615741,0.0443493761122226,0.1329040378332138
4.8527207031250015,0.0186622495677322,0.0559087880961596,-0.0227986917853355,0.0023457547649741,0.0393125414848327,0.1406000405550003
4.862684570312503,0.0402661786105483,0.0365272112779319,-0.1005775125145912,0.0127482321113348,0.0281079150736331,0.1406730115413665
4.872649414062501,0.0283348447330296,0.0177437464833259,-0.1203723463088274,0.0218895319849252,0.0175202526152133,0.1434666663408279
4.882613525390624,0.0038994551239535,-0.0044071489177644,-0.0979261212229728,0.0339036993682384,0.0130047537386417,0.1418706476688385
4.892577636718748,-0.0098678985416889,0.0036124914087355,-0.0772556736379861,0.0322876945137977,0.0166082773357629,0.150125116109848
4.902542724609383,0.0068083283079788,0.0635160482294857,0.0028209026396274,0.0218655653297901,0.0150528335943818,0.1319772601127624
4.912506591796877,-0.0801234476266428,0.0802187612272799,0.0333989962548017,0.0187936089932918,0.0095781739801168,0.1219182312488555
4.922471679687497,-0.0835259495465084,0.0239309106856584,0.0958119055479764,0.0143680302426218,0.0273949429392814,0.1135277077555656
4.932435791015628,-0.0760099478932097,0.0426810577325522,0.1461544378191232,0.0062911948189139,0.0444048158824443,0.1071917787194252
4.942400390625004,-0.0415814989928156,0.038356472531706,0.1141594631433486,0.0007596872746944,0.0474734045565128,0.1046646386384964
4.952364501953127,-0.0124930594135075,0.0310785904832184,0.0531646039545536,0.0014153569936752,0.0417553298175334,0.0999524444341659
4.962329833984377,-0.0080814169837161,0.0485809294261038,-0.0246726689636707,-0.0029021385125815,0.0376301296055316,0.0969754010438919
4.972293945312501,0.0009735577398911,0.0326689284145832,-0.0402332261890172,-0.0083184754475951,0.0366056114435195,0.0967349261045456
4.982258544921876,0.0024314649306237,0.0041729017704725,0.0059030865639448,-0.0194694548845291,0.0362375751137733,0.0951199010014534
4.99222265625,0.0073558426555246,-0.0177453539185225,0.0538268672555685,-0.026635754853487,0.0418398007750511,0.09796042740345
