time,ax,ay,az,gx,gy,gz
0.0,0.0328903891455382,0.0462269136458635,-0.0151712656468152,0.0334351770579814,-0.0229616537690162,0.0495525784790515
0.00996508789063455,0.0330728330403566,0.0385217460960149,-0.0368418301850557,0.0316220968961715,-0.0313271656632423,0.0499387271702289
0.019929199218751137,0.0309318389562889,0.0231511584848165,-0.0142120652258396,0.0332551449537277,-0.023255655542016,0.0503938607871532
0.02989306640625955,0.0385969302240759,-0.0102722415588796,0.0518412463963031,0.026358088478446,-0.0154003966599702,0.0489746630191803
0.03985815429687989,0.0169447415927425,-0.0439534157559275,0.0664765054702758,0.0231100991368293,-0.0069725569337606,0.0513014681637287
0.04982226562501069,0.0248221239043399,-0.0604828180134296,0.0657300710171461,0.0232105869799852,-0.0078501496464014,0.0559329651296138
0.059786865234386255,0.0330842677498236,-0.054330286733061,0.021473580661416,0.0215501058846712,-0.0173581670969724,0.0596259720623493
0.06975097656250284,0.0400975440453737,-0.0510408897988498,0.0174912330269813,0.0225126557052135,-0.0179446656256914,0.0610265173017978
0.07971508789063364,0.0236060626454651,-0.0246139245137572,0.0578016161054372,0.0202806629240512,-0.013020216487348,0.0671150311827659
0.08968017578125398,0.0187231129094958,-0.028621260458976,0.0772235249340534,0.0147214876487851,-0.0031299325637519,0.0710634291172027
0.0996437988281258,0.0368456295773386,-0.0340993996091186,0.0484779074430465,0.01506317127496,-0.0028124838136136,0.0693906992673873
0.10960913085938273,0.0410164124559611,-0.0623981501154601,0.0262935481637716,0.0200267843902111,-0.0032554189674556,0.07024747133255
0.11957324218749932,0.0384392554443329,-0.0805539845310151,1.87047004699e-05,0.0210688784718513,-0.0091708321124315,0.0702453404664993
0.12953808593751148,0.0404841504764743,-0.0494531822159886,-0.0177478381365537,0.0196643210947513,-0.0094051696360111,0.0704075098037719
0.13950195312500568,0.0594015073164366,-0.0145049106925725,-0.01891103669703,0.0214907173067331,-0.0016250109765678,0.0689475685358047
0.14946606445313648,0.061367418828234,-0.0089298870392143,0.0106698625743389,0.025637786835432,0.0045239720493555,0.0665576383471489
0.15943090820313444,0.0458120309683494,-0.0345741775140166,0.0009662146836519,0.0285760536789894,-0.0002516082022339,0.0668079778552055
0.16939477539062864,0.0600918642007745,-0.0669194269321858,-0.012728548669815,0.0351472496986389,-0.0030408920720219,0.0689422786235809
0.17936010742188557,0.0638463396297767,-0.0553689821310341,-0.033504794716835,0.0363190397620201,-0.0171263515949249,0.0689614489674568
0.18932421875000216,0.062665313151665,-0.003775573015958,-0.0172498254865407,0.0292452275753021,-0.017157569527626,0.0667347684502601
0.19928808593751057,0.0434532659477554,0.0330086817629635,0.102107206299901,0.0213167332112789,-0.0107934139668941,0.06443752348423
0.2092531738281309,0.0230666402728296,-0.0025528993532061,0.1924590928763151,0.0101337628439068,0.0054101487621665,0.0609485134482383
0.2192170410156251,0.0051201194927096,-0.0732122434660792,0.213890003439784,-0.0011585722677409,0.0145565094426274,0.0591330379247665
0.22918188476562307,0.008345785274636,-0.1209909165985882,0.1909399204850196,-0.0130439978092908,0.016908623278141,0.0526514276862144
0.23914599609375387,0.0122192657071165,-0.0948674643047153,0.1435369487971067,-0.0233304575085639,0.0143301505595445,0.0500652305781841
0.24910986328124807,0.0047281245004385,-0.0417332554884254,0.1218377426862716,-0.0232931803911924,0.0168162435293197,0.0518766939640045
0.259075195312505,0.0268515656390227,0.0087865330457687,0.0818640442162752,-0.0241722911596298,0.0136617282405495,0.0520556606352329
0.2690390624999992,0.0602251717242412,0.0662909197703003,-0.0333726927697658,-0.0206135995686054,0.0003998212050646,0.0481692999601364
0.27900415039063375,0.0922515279189683,0.0828133077651262,-0.1017600002974271,-0.0177925117313861,-0.0010172468610107,0.0417846366763114
0.28896801757812796,0.1105037719137035,0.0622033581957221,-0.0405851083666086,-0.0096459696069359,0.0047407830134034,0.0372964590787887
0.2989328613281259,0.0811153082082048,0.018423399310559,0.0003489595681428,-0.0004482101649045,0.0106271672993898,0.0367222838103771
0.3088969726562567,0.0688676201242022,0.0033949031352996,0.011769932770729,0.0065241148695349,0.0156489387154579,0.0364471636712551
0.3188610839843733,0.0763024097674526,-0.0189060682609677,0.027607553371787,0.0225459598004817,0.0194450058043003,0.0395297743380069
0.32882617187500784,0.0714967630513943,-0.0436088401019573,0.0334609555751085,0.0300919283181428,0.0143712656572461,0.0447013527154922
0.33879003906250205,0.0403008480651304,-0.0357499432951211,0.0333417131096124,0.033021941781044,0.0087261637672781,0.050091590732336
0.3487551269531366,0.0118805170057341,-0.0140248720906674,0.042758945274353,0.0347387790679931,0.008054656907916,0.0539163872599601
0.3587192382812532,0.0072444547029212,-0.008938800998032,0.0622065730661153,0.032434344291687,0.0098312515765428,0.0556090921163558
0.3686831054687616,-0.0024945384957827,-0.0133509183518588,0.05764730232656,0.0291754361242055,0.0065699447877705,0.0553398467600345
0.37864794921875955,-0.0075501048523001,-0.001214051964879,0.0899462283849716,0.0264400150626897,0.0081143947318196,0.0528455339372158
0.38861206054687614,-0.0004496069310232,-0.0273601544819772,0.0992863036602735,0.0226388126611709,0.0109560079872608,0.0514735132455825
0.3985769042968741,-0.0163739377011545,-0.0345480201594531,0.0883820478081703,0.0158075392246246,0.0101538635790348,0.0522575490176677
0.4085407714843825,-0.0279584309023804,-0.0498680466271936,0.0790899033278226,0.0104946112260222,0.00779664888978,0.0495871752500534
0.4185046386718767,-0.0473102519031614,-0.0303473535992205,0.0790484022736549,-0.0070433705113828,0.0086999926716089,0.0476151034235954
0.42846997070313364,-0.0777454116499982,-0.0216590202309191,0.1105944641381502,-0.019796535372734,0.0115107642486691,0.0425822734832763
0.4384340820312502,-0.0734082592285238,-0.0061491702795028,0.1150508590251207,-0.0362844318151474,0.0184853170067071,0.0421234108507633
0.4483986816406258,-0.0533517605571076,-0.0311060630120337,0.099231358602643,-0.0461847409605979,0.0252116955816745,0.0369826927781105
0.4583627929687566,-0.0311865078371018,-0.0960129810780286,0.0699035573095083,-0.0441799126565456,0.0306687764823436,0.0379891023039817
0.4683269042968732,-0.0151528714735992,-0.1258446402400732,0.0347983416587114,-0.040110245347023,0.0317837409675121,0.0372700542211532
0.47829174804688535,-0.0136444944709539,-0.1338352006025612,-0.0304617737591266,-0.0354497134685516,0.0143959615379571,0.0310084298253059
0.48825561523437955,-0.0208733862785622,-0.1214228782750666,-0.0464192213475704,-0.0303311999887228,0.0076694209128618,0.0284773726016283
0.4982209472656365,-0.0436658675188198,-0.0583406914182007,-0.007659574842453,-0.0290691293776035,0.0073482440784573,0.0257220659404993
0.5081848144531307,-0.0579035421099513,-0.0180311851225793,0.0227840787380933,-0.0385634750127792,0.0133591722697019,0.0175118092447519
0.518149902343751,-0.0520518021407537,-0.0030626024410128,0.0507154572367668,-0.0480528473854064,0.0221055261790752,0.0150156281888484
0.5281137695312594,-0.0364025802512653,-0.0060891106553375,0.0487988099604845,-0.046378169208765,0.0264224391430616,0.0033672174904495
0.538077880859376,-0.0306064063942059,-0.0335021643683314,-0.0192091428607702,-0.0398614145815372,0.0219464637339115,0.0017655924893915
0.548042724609374,0.007148045123741,-0.0591045153975486,-0.0784650494277477,-0.0260940268635749,0.01917633600533,-0.0014395238831639
0.5580068359375048,0.0233127239883877,-0.0563745059117674,-0.1210737725764513,-0.0091619146987795,0.009537823498249,-0.0048275981098413
0.5679716796875027,0.0033098552003502,-0.0625682459853589,-0.1533300285369157,0.0025535095483064,-0.0011019555386155,-0.0060387994162738
0.5779355468750111,0.0024049605161882,-0.0474839279696345,-0.1410574069410562,0.0100215459242463,-0.0080394903197884,-0.0113765727728605
0.5878999023437501,-0.0129235415189526,-0.0402462318010628,-0.0755155519723892,0.0188585296273231,-0.0034061742480844,-0.011706561781466
0.5978649902343847,-0.0200850671787746,-0.0653534927897155,-0.0471557189285755,0.0331083089113235,-0.00599583145231,-0.0069954292848706
0.6078288574218789,-0.0008405424773693,-0.0858903771229088,-0.0499321979045867,0.0479835718870162,-0.007979548536241,-0.0011029089801013
0.6177937011718768,0.0363985068643465,-0.1001728772364556,-0.0663350511729717,0.0636898279190063,-0.0092304358258843,0.004138458520174
0.6277578125000076,0.0574402902460657,-0.0798281544744968,-0.0609533581346273,0.0823969617486,-0.0168002769351005,0.0083228629082441
0.6377216796875018,0.0511186860091052,-0.0340362712450325,-0.0447188471704721,0.0846286863088607,-0.021388903260231,0.0076506808400154
0.6476865234374998,0.0324687844662927,0.0030868600994348,0.0152028298288583,0.0828150510787963,-0.0167463794350624,0.00844157487154
0.6576506347656306,0.0176765081997029,-0.0033835049584507,0.1094336036652326,0.0802094116806984,-0.0053760129958391,0.0028763676527887
0.6676159667968733,-0.005267912199255,-0.0124085229352116,0.1363566819041967,0.0753460451960563,0.0032716514542698,0.0026079609524458
0.6775800781250041,0.0054746137524954,-0.0110645609803497,0.1239922903716564,0.0721185654401779,0.0082680080085992,0.001076909713447
0.6875437011718759,0.0193235264880582,0.0008602700911462,0.0781365481257438,0.0698781237006187,0.0064857993274927,-0.0025735273957252
0.6975087890625105,0.0440498070687986,0.0037191666536033,0.005078326177597,0.0717670992016792,-0.0023359218612313,-0.0039708875119686
0.707472900390627,0.051285293013975,0.0043599487751722,-0.02389057867527,0.0623731687664985,0.0023116739466786,-0.0055032311938703
0.717437744140625,0.0410415103645995,0.0037367023102939,0.0172030637353658,0.0530193522572517,0.0027513618115335,-0.0070835505612194
0.7274016113281334,0.0208391734817065,-0.0109163846813142,0.0566828412085771,0.0438733324408531,0.0047657750546932,-0.0097012249752879
0.73736572265625,-0.0143732836695387,-0.045003363200277,0.073242346343398,0.0386077314615249,0.0069311913102865,-0.0096908388659358
0.7473310546875069,-0.0201705169725231,-0.0500303975820541,0.0433563266456127,0.0381461307406425,0.0044901398941874,-0.0074132499285042
0.7572946777343788,0.0024230258958414,-0.0520901065908372,0.0268733938783407,0.0307971332222223,-0.0042410334572196,-0.0083538778126239
0.7672597656249991,0.0018208770179189,-0.0623939123317599,0.0330032749354839,0.0239972751587629,-0.0077363816089928,-0.0064372331835329
0.7772238769531299,-0.008897555672191,-0.0689319357983768,0.0808943224012851,0.0149119012057781,-0.0060471394099295,-0.0103563424199819
0.7871879882812607,-0.0195604587827809,-0.0212307118162512,0.1156289511740207,-0.0020560612902045,0.0025504566729068,-0.0105392597615718
0.7971525878906363,-0.0235274809839203,0.0252433084584772,0.1138058274000883,-0.011159811168909,0.0074232425540685,-0.0145505126565694
0.8071166992187528,-0.0238891356368549,0.0419401762373745,0.1041758292675018,-0.0119555760174989,0.0131733352318406,-0.0227482952177524
0.8170817871093732,-0.030558603463415,0.0362897492602467,0.0753887107223272,-0.0136338993906974,0.0150796258822083,-0.0250316858291625
0.827045898437504,-0.0197377881110645,-0.0045243455566465,0.0340688583403825,-0.0041629895567893,0.0171111766248941,-0.0288301557302474
0.8370097656249982,-0.0006545914512127,-0.0337444486916065,-0.0242377846777439,0.0056821843609213,0.0144149921834468,-0.0312320627272129
0.8469748535156327,0.0310198460333049,-0.0215796713843941,-0.0987321769088506,0.0168361291289329,0.0089703034609556,-0.0324642844498157
0.8569389648437493,0.0270476544667035,0.0040242870800197,-0.1294791973501443,0.0296142436563968,-0.0014663578476756,-0.0375458635389804
0.8669038085937615,-0.0023731771384365,0.006040741468966,-0.1500625511735677,0.0344637855887413,-0.0058701205998659,-0.0388771481812
0.8768676757812557,-0.0213933184994384,0.0302853942789137,-0.1067564934104681,0.0404084920883178,-0.0048344172537326,-0.0400705076754093
0.8868325195312536,-0.0350913332559168,0.0524745758637785,-0.0789408502459526,0.0436573550105094,-0.0071455491706728,-0.0405853278934955
0.8967966308593844,-0.0455560651795938,0.0392519600667059,-0.0395329689651727,0.0474379807710647,-0.0045582875609397,-0.0382340215146541
0.906760742187501,-0.0337150216677226,0.0413017322033643,-0.0312169760406017,0.0554864034056663,-0.0058321496471762,-0.0348928309977054
0.916726074218758,-0.0203085920026525,0.0519897149562835,-0.0762836137354373,0.0584909841418266,-0.0173005200922489,-0.0373464040458202
0.9266896972656298,0.0048455220687203,0.003937777840346,-0.0754728818744421,0.0599552765488624,-0.0228370577096939,-0.0372475981712341
0.9366547851562501,0.0088599270755425,-0.0334581790961325,-0.0093891751140356,0.055943489074707,-0.0220343805849552,-0.0335585847496986
0.9466188964843809,0.0034369887113571,-0.0398988796681165,0.0717810416191816,0.049708142876625,-0.011050583794713,-0.0369906239211559
0.9565827636718751,-4.15741194039e-05,-0.047232145165652,0.1342442197948694,0.0416392982006073,-0.0022861207835376,-0.0395589768886566
0.9665476074218731,-0.0092192801735363,-0.0606879851967096,0.1630325073838233,0.0329527035355567,0.0026759631000459,-0.0380925796926021
0.9765117187500039,-0.0107449553708545,-0.0502913866057991,0.1364560506254434,0.0284644793719053,0.0019811443053185,-0.0379165448248386
0.9864770507812608,0.0089541081650182,-0.0197980486646294,0.0564618919342756,0.0212370082736015,-0.00688591087237,-0.0330802612006664
0.9964406738281326,0.0391352200855501,-0.0355154038868844,0.0381125807732343,0.0150408968329429,-0.0035441764630377,-0.0293233394622802
1.0064047851562492,0.0476810031780041,-0.0714364659652113,0.0942173298329114,0.0106708230450749,0.0068017840385437,-0.0282258689403533
1.0163698730468838,0.0410111334926448,-0.0684700173750519,0.1074240174084901,0.0085679898038506,0.0173769295215606,-0.020841721445322
1.0263339843750003,0.0479447504144161,-0.038918928720057,0.0599193389117717,0.0066649988293647,0.01196257956326,-0.0200224965810775
1.036298583984376,0.0483058753443881,-0.039373979011178,0.0259451731175184,0.0040897224098443,0.0097899725660681,-0.021506143733859
1.0462626953125067,0.0330408669995144,-0.0270263924829661,0.036352585363388,0.0031585795804858,0.0124258371070027,-0.0241411030292511
1.0562268066406233,0.0296801583947613,0.0131999655738472,0.0655254883557558,0.0054110810160636,0.0140357175841927,-0.0232468135654926
1.0661918945312578,0.0229711988080292,0.0317827932298183,0.0240951613366603,0.002478776499629,0.0112840067595243,-0.0211958847939968
1.076155761718752,0.0382606474744156,0.0348155850544571,0.0021849428236484,-0.0007977108471095,0.0142720732837915,-0.0222097504884004
1.0861208496093866,0.0590425195446237,0.0276566532105207,0.0054413142710924,-0.0025586918927729,0.0112633565440773,-0.0238454863429069
1.0960849609375032,0.0512395176434889,0.0079302084773778,0.0077402388632297,-0.0040524587966501,0.0047295577824115,-0.029873551800847
1.1060488281250116,0.0252210235614329,0.0324864114545285,0.0238444014459848,-0.0065349712967872,0.0085100997239351,-0.0303547885268926
1.1160136718750095,0.0123436044728383,0.0356362537875771,0.0660720163226127,-0.0132751651108264,0.0144955534487962,-0.0345681756734848
1.1259777832031261,0.0225670384539291,0.0241866390123963,0.0832727419704198,-0.0175115503370761,0.0182115752249956,-0.0361415892839431
1.135942626953124,0.0258563988555222,0.0322387203037738,0.0577934327989816,-0.0233127139508724,0.022161841392517,-0.0386633351445198
1.1459069824218773,0.0256359975704923,0.039684506265074,0.0324614231437444,-0.0180367175489664,0.0139728570356965,-0.0422274209558963
1.1558708496093857,0.0389149101320654,0.0178761406913399,0.0005137947410345,-0.0180540271103382,0.0116684241220355,-0.0383117757737636
1.1658356933593836,0.0541866404786705,0.0411836587816476,-0.0318435835063457,-0.0187978222966194,0.0030298542696982,-0.0348283164203166
1.1757998046875002,0.0727773226475343,0.0321243001438677,-0.0215267721533775,-0.0237979069352149,0.0021448859479278,-0.0352323167026042
1.1857648925781348,0.0765810257794335,-0.0578138910651206,0.0503974773287773,-0.0250228159129619,0.0106914229691028,-0.0351394340395927
1.195728759765629,0.0507596982372924,-0.1332875035919249,0.1193137771666049,-0.0289975851774215,0.0191701278090477,-0.0313545502722263
1.2056928710937598,0.0183808388104662,-0.1188276010848581,0.1203074643790721,-0.0289658103138208,0.0195884983986616,-0.0291910450905561
1.2156577148437577,0.012327201327309,-0.0644711569972336,0.0490828875988721,-0.0289554242044687,0.0187035296112298,-0.0279068667441606
1.225621582031252,0.0249808215973898,-0.0555767796628177,0.0060918871343135,-0.0272549837827682,0.0238374713808298,-0.0274639222770929
1.2355866699218865,0.0356962768791243,-0.0581966067723929,-0.0111655371367931,-0.0156526565551757,0.0239314809441566,-0.0232566613703966
1.245550781250003,0.0307964125409722,-0.0235258370161056,-0.0613853198111057,-0.0082850288599729,0.0149611961096525,-0.0193242635577917
1.2555158691406234,0.0445110496386885,0.0643020840406417,-0.0990729531705379,-0.0080160498619079,0.001831013825722,-0.0205085705965757
1.2654799804687542,0.0346226197656244,0.0524263528078794,-0.0605728343844413,-0.0128342360258102,0.0055450280196964,-0.0250266045331954
1.275443603515626,0.0115233741311356,0.0095880586870014,0.0286976866960525,-0.0114006558433175,0.014215481467545,-0.0212640911340713
1.2854086914062606,-0.0005006429985165,-0.0135905723266303,0.0472626864343881,-0.0111139295622706,0.0198926758021116,-0.0183157324790954
1.2953728027343772,0.002758395330049,0.0152598207131028,-0.0270639480143785,-0.0091016450896859,0.0047102593816816,-0.0178576670587062
1.3053366699218856,0.0127023913152515,0.0046617082007229,-0.0713239455014467,-0.010399580001831,0.0004190159961581,-0.0159590989351272
1.315301757812506,0.0123818175913766,-0.0276395559452474,-0.0207101950734853,-0.0064636943861842,0.0026949534658342,-0.0114016328006982
1.3252658691406367,0.0200119836762547,-0.0364906786598265,0.019819383713603,-0.0075859408825635,0.001953212544322,-0.0114583261311054
1.335230957031257,0.0275298850256949,-0.0321333602331578,0.0170265381246805,-0.0090221837162971,-0.0038673921953886,-0.0097158197313547
1.3451945800781289,0.0247207824217155,-0.0825949888393282,0.0232633866876363,-0.0168916527181863,-4.6310015022e-06,-0.0090124923735857
1.3551596679687492,0.0188082704422995,-0.1005665527291595,0.0667699354588985,-0.0187220424413681,0.0011114997323602,-0.0091738812625408
1.36512377929688,0.0053731078730896,-0.0626635230533778,0.0955278279095888,-0.029252540320158,0.0114960763603448,-0.0057024648413062
1.3750878906250108,0.0015465718548744,0.0153550977811217,0.1455266613095998,-0.0320469960570335,0.0223745573312044,-0.0004477817565202
1.3850529785156311,0.0134796958306804,0.0661021191999316,0.1539928763598203,-0.0371724218130111,0.0321543626487255,-0.0044046849943697
1.3950168457031253,0.0240247264489531,0.0591841565050184,0.0663835664898157,-0.048232264816761,0.0255265515297651,-0.0048425090499222
1.40498193359376,0.0473521548161283,0.0126454004310071,0.0118926823675632,-0.0407324507832527,0.0346475876867771,-0.0060135419480502
1.414945800781254,0.0740823408314958,-0.0344070042535662,-0.0004863222122192,-0.0294369235634803,0.0284264460206031,-0.002526665572077
1.4249108886718744,0.0878934605736285,-0.1135876546047627,-0.1054839892566204,-0.0228218957781791,0.0055466862395405,0.0021818093955516
1.43487548828125,0.0655490153618156,-0.1385192667655646,-0.0883224265754222,-0.0148316146805882,-0.0040718526579439,0.0045839808881282
1.4448395996093808,0.0197626120250672,-0.1034437156006693,0.0554553452402353,-0.0236582085490226,0.009412296116352,-0.0025724307633936
1.4548046875000011,-0.0366123688107356,-0.0512695839881897,0.1351426299393177,-0.0320189371705055,0.0249595642089843,-0.0010309931822121
1.464768798828132,-0.0589792450500652,0.0119398825101554,0.1280582246363163,-0.0326624512672424,0.0326722227036953,-0.004836150445044
1.4747326660156261,-0.0439120973648503,0.0553574378237128,0.0218336461454629,-0.03715680539608,0.0364547073841095,0.0042572128586471
1.484697509765624,0.0766168277451768,0.0781711810477077,-0.0209177003443241,-0.0320264883339405,0.0300106387585401,-0.0033223973587155
1.4946616210937549,0.0822785067686811,0.021068799252808,-0.0564747514158487,-0.0210606567561626,0.0123107377439737,-0.0067160641774535
1.5046267089843752,0.0683235581090673,-0.0398885044045746,-0.1177718084216117,-0.0167796276509761,0.0018847377505153,-0.0066707958467304
1.5145905761718836,0.0393163670724257,-0.0275274738729,-0.0586906738996505,-0.0133492089807987,0.0034836996346712,-0.0077927862294018
1.5245546875000002,0.0189503823267295,-0.0395640947557985,0.0191045134425163,-0.0150237176567316,0.0121756428852677,-0.0055852960795164
1.5345197753906348,-0.006730440766178,-0.0237574538148939,0.0568874238699674,-0.0124580282717943,0.0152377448976039,-0.0083214277401566
1.544483642578129,-0.0063742842722684,-0.0407518432356417,0.0337689986109733,-0.0126071628183126,0.0152566339820623,-0.0075022270902991
1.554448486328127,0.004948379654996,-0.0504641128242015,-0.000178863698244,-0.0081231985241174,0.0129151828587055,-0.0033655390143394
1.5644125976562577,0.0249986860476434,-0.0424248910143971,-0.0314677359312772,-0.0052278102375566,0.0044836928136646,-0.0003650020807981
1.5743767089843743,0.0301002469703555,-0.0402021003983914,-0.0625257220178842,-0.0036757197231054,-0.0013116120826452,0.0001793480478227
1.5843417968750089,0.02706584771052,-0.0372514338992536,-0.026081951239705,-0.0042630350217223,0.0005968231707811,-0.0005918587557971
1.594305664062503,0.0157541435686871,-0.0505004993118345,0.0429985992491245,-0.0057978145778179,0.0078550027683377,-0.0076982378959655
1.6042707519531234,0.0005903671085834,-0.0379271412037312,0.0546089575439691,-0.0062682135030627,0.0099994409829378,-0.010184814222157
1.6142346191406318,0.0028210487700998,0.007538286550343,0.0105219785362482,-0.0024066301994025,0.0111986631527543,-0.0090958476066589
1.624198486328126,0.0216872599447146,0.0231489665277302,-0.0186439101934432,-0.0025317152030766,0.0061863334849476,-0.0102237546816468
1.6341635742187606,0.0182524997230619,-0.0226521229214966,-0.035071313381195,-0.0014483411796391,0.0105184977874159,-0.0095603605732321
1.6441276855468772,0.0098844843503087,-0.0343140652731061,-0.0253904618442058,0.0023953085765242,0.0072468579746782,-0.0118282865732908
1.6540927734375117,0.0042381490264087,-0.0239329565122723,-0.0221685771882534,0.0030128955841064,-0.0015386440791189,-0.0125678479671478
1.6640568847656283,-0.0019050299037247,-0.0103147655263543,-0.0333563261568546,0.0038735410198569,-0.0017545539885759,-0.0147055573761463
1.6740207519531367,-0.0002125102395191,-0.0005617255359888,-0.0171241532802581,0.0007355380803346,-0.0022967737168073,-0.0116711519658565
1.6839855957031347,0.0053236061755567,0.0017499124072492,0.0162725048869848,-0.0037469142116606,0.0105573115870356,-0.0097992056980729
1.6939497070312513,0.0085591905632987,0.0165833244018256,0.0225800805985927,-0.000879755243659,0.0084480885416269,-0.0064252465963363
1.7039147949218858,0.0387540204819291,-0.0078835928566753,-0.0379594360381364,-0.0028287363238632,-0.004139301367104,-0.0068574487231671
1.71387866210938,0.0639097967874258,-0.0483124877482652,-0.0648614714890718,0.0021210145205259,-0.0093740103766322,-0.0044424938969314
1.7238425292968742,0.0755528152428567,-0.0895057911410927,-0.0193593649864196,0.0008848551660776,-0.0069377915933728,0.0006827302277088
1.7338078613281311,0.0791106903875246,-0.0976094564892351,0.0309083484828472,0.0022380072623491,0.0002402260433882,0.0051049091853201
1.7437717285156253,0.0660697878329083,-0.0923164646476507,0.0452384871304035,-0.0007378086447715,0.0001856312155723,0.0117146093398332
1.7537365722656233,0.0507581273347139,-0.092592797371,0.0340489845961332,-0.0041386652737855,0.0013100177748128,0.0145444832742214
1.763700683593754,0.0496852008735761,-0.101517715974152,0.0387479560673236,-0.0038944534026086,0.0014572906075045,0.0186998136341571
1.773664794921885,0.0438270494299009,-0.0942186450071632,0.0422428124457597,-0.0037277396768331,0.0024019139818847,0.0215659067034721
1.7836298828125052,0.0340750323528423,-0.0870955151289701,0.0164484459757804,-0.0053640725091099,0.0021441916469484,0.0238834004849195
1.793593505859377,0.0247697726625949,-0.0962717781446874,0.0319172332644462,-0.0050428952090442,0.0004560139495879,0.023070603609085
1.8035585937500116,0.005263729214482,-0.0923113500811159,0.0362789356052875,0.0033797919750213,0.0078701581805944,0.0268623642623424
1.8135227050781282,0.0052620852466672,-0.0617873247407376,0.0279009833604097,0.0044069727882742,0.0060557471588253,0.03030876070261
1.8234865722656366,-0.0003464022848755,-0.0127165659710764,-0.0434708929359912,0.008170997723937,-0.0068070301786065,0.0301937498152256
1.833451660156257,0.0119451797397807,0.0191192726202309,-0.1013613563686609,0.0073368959128856,-0.0104600889608263,0.0264557376503944
1.8434157714843735,0.0119981155034154,0.031285365101695,-0.0504430700361728,0.0057363407686352,-0.0132822720333933,0.0243246965110301
1.8533806152343857,-0.0031453853536397,0.0105069270975887,0.0071621467143297,-0.0042385291308164,-0.0103389453142881,0.0195568390190601
1.8633444824218799,-0.0223980750951915,-0.009280161781609,0.0519371079862117,-0.0137650137767195,-0.0051374230533838,0.0138965472579002
1.8733085937500107,-0.0352364773476496,-0.0110423491485416,0.1085322709113359,-0.017907828092575,0.006646797992289,0.0116371214389801
1.883273681640631,-0.0330762305738404,-0.0247296598479151,0.1029734677404165,-0.0246806051582098,0.0096709299832582,0.0063707060180604
1.8932377929687618,-0.0226752115361392,-0.0260622236259281,0.0586246229261159,-0.0276436377316713,0.0079851485788822,0.0040510925464332
1.9032026367187598,-0.021278459948115,-0.0056366907127201,0.0278068753361701,-0.0297046601772308,0.0043768710456788,-0.0002685785293579
1.9131667480468764,-0.021997239209339,0.0189864400207996,0.009412555989623,-0.0285925231873989,0.0006337980739772,-0.0009791096672415
1.9231308593750072,-0.020574585995078,0.0479880780994892,-0.022853636842966,-0.0320079326629638,-0.0067158890888094,-0.0053706178441643
1.9330957031250051,-0.0037981136413291,0.0415431397438049,-0.0236573544412851,-0.0324297770857811,-0.0066983122378587,-0.0096330074593424
1.9430595703124993,-0.0020012202871963,0.005144523281604,-0.0284966111660003,-0.0334019251167774,-0.0055362326093018,-0.0105997677892446
1.9530246582031339,0.0051833939872682,0.004610124143958,-0.0262391876280307,-0.0332591794431209,-0.0050448798574507,-0.0153138283640146
1.962988525390628,-0.009197671129927,0.0640853725500404,-0.0008452186524868,-0.0291838310658931,-0.0125179132446646,-0.0205011181533336
1.9729526367187589,-0.0295193418098613,0.0662888739436864,-0.0312596461385488,-0.0221387036144733,-0.0200743656605482,-0.0248740278184413
1.9829177246093792,-0.0216810128670185,0.0302262114375829,-0.0075479311615228,-0.0181403215974569,-0.016096331179142,-0.0291521195322275
1.99288183593751,-0.0163395422412082,-0.016036211913079,0.0147767133712768,-0.0077457372099161,-0.0073225470259785,-0.0278804618865251
2.002846679687508,0.0164854900505393,-0.0436954954721033,-0.0085866265594959,-0.0007688687182962,-0.0062612257897853,-0.0298746116459369
2.0128107910156245,0.0274340599684044,-0.0521960511833429,-0.0503553917527198,0.0066927755251526,-0.0161567330360412,-0.0260415226221084
2.022774658203133,0.0253988643463701,-0.0888831291981041,-0.0453553915083408,0.0079595427960157,-0.0143909137696027,-0.0265012197196483
2.032739501953131,0.0195826158156618,-0.0717418786525726,0.027568390405178,0.0060503222048282,-0.0081303557381033,-0.0241448543965816
2.0427036132812617,0.0164943674767389,-0.0650651773676276,0.0847884072303771,0.0041442969813942,0.0003203970845788,-0.0187969673424959
2.052668701171882,0.0057046413823962,-0.0769848938725888,0.1152384905517101,0.0016009779646992,0.0090278685092926,-0.0126802194863557
2.0626328124999986,0.0188928069205954,-0.0859675340123474,0.0944622445046901,0.0058993222191929,0.0140377869829535,-0.0058129793033003
2.072596679687507,0.036060434016399,-0.0796938605703413,0.0343979441642761,0.0087758032605052,0.0046924883499741,0.0036460361443459
2.0825617675781274,0.0822875668579712,-0.0668580521337687,-0.009794833305478,0.0071788839995861,-0.0004332156386226,0.0080916546285152
2.092525878906258,0.1011093178363516,-0.07909940180853,-0.0295405672609806,0.0064339973032474,-0.0097782481461763,0.0146619388833642
2.1024904785156338,0.0912968758089467,-0.0689031480953097,0.0030213936477899,0.0023569641634821,-0.0071957800537347,0.01510242652148
2.1124545898437503,0.0676884385433048,-0.0546237167216837,0.0550736524462699,-0.002552839461714,-0.0006446705665439,0.0176561325788497
2.122418701171881,0.0445893390392884,-0.0460205774188041,0.1103174007624387,-0.0046216761693358,0.0070056482218205,0.0188076607882976
2.1323837890625015,0.0337782048307359,-0.0463594539843499,0.0987006127268076,-0.0041218008846044,0.0092046204954385,0.0221635103225708
2.1423474121093733,0.0241515676990151,-0.0432128265216946,0.0540875640183687,-0.0001263376325368,0.00787865370512,0.0210178606212139
2.1523127441406302,0.0210074975196272,-0.0231420983955264,-0.0014659808993339,0.0003929790109395,0.004069001879543,0.0295373126864433
2.162276855468761,0.0308045593148097,0.0296473886363208,-0.0156862294316291,-0.0004952861927449,-0.0011833591852337,0.0276341550052166
2.1722407226562552,0.0328035876449197,0.0553802341774106,-0.0042792847543954,-0.0026250160299241,-0.000234208535403,0.0244556739926338
2.182205566406253,0.0176805450540035,0.0210426418982446,0.0399579163789749,-0.0065719094127416,0.0035693810787051,0.0202990248799324
2.192169677734384,0.0136808444259688,0.012015285833925,0.079745736888051,-0.0088459821417927,0.0081486869603395,0.0196185875684022
2.202134521484382,0.004688450077176,0.0113122521311044,0.0685375296533107,-0.0106339398771524,0.0084647014737129,0.0142603162676095
2.212098388671876,0.0041267610738053,-0.0040863925307989,0.0406686949968338,-0.005146762356162,0.0041120313107967,0.0130147561430931
2.222062500000007,0.0071812167409807,0.0008339666061103,0.0241197112560272,-0.0050416532903909,0.00390330189839,0.0124059729278087
2.2320278320312497,0.0082793141759932,0.004568184698373,0.023508301359415,-0.0058864075690507,-0.0023788285907357,0.0075052240863442
2.241991699218758,0.0025494652871042,0.0292969677634537,0.0288373874276876,-0.0134140122681856,-0.003460410516709,0.0039453664794564
2.2519567871093784,-0.0179289668571203,0.0631282179556787,0.0680798490136861,-0.0167956948280334,0.0009290113812312,-0.0014272942207753
2.261920654296887,-0.0135902435330674,0.0730180360682308,0.0959007528752088,-0.0245115812867879,0.0126415025442838,-0.0009106388315558
2.2718847656250034,-0.012317848977074,0.0376597224391996,0.086955814397335,-0.0266695413738489,0.0144380703568458,0.0007237428799271
2.2818496093750014,-0.0167819522464647,0.002280804413557,0.055702013477683,-0.0229621566832065,0.0068483669310808,0.0083334352821111
2.2918134765625098,-0.0145748341236263,-0.0253491069205105,0.0077092592030763,-0.0247648507356643,-0.0050993720069527,0.0136371199041605
2.3017788085937525,-0.0386751830920577,-0.0528331800431013,-0.0196995567262172,-0.0259628277271986,-0.0143428854644298,0.0194625407457351
2.311742675781261,-0.0496821686662733,-0.0609232552573084,0.0127039987504482,-0.0314012691378593,-0.0169967263936996,0.0236490294337272
2.3217067871093775,-0.051611419695802,-0.0526493479087948,0.0532709869384765,-0.0368886217474937,-0.01189686357975,0.02551244571805
2.3316716308593755,-0.0485970768433064,-0.0355259252808988,0.0761386523067951,-0.0414807125926017,-0.0056086080148816,0.022158995270729
2.3416357421875063,-0.0373629679823294,-0.0499666846960782,0.0625654695063829,-0.0449004806578159,-0.0050080362707376,0.022314503788948
2.351600585937504,-0.0085107117790728,-0.0600257218956947,0.0320960969626903,-0.0453851744532585,0.0010780857410281,0.0193232409656047
2.361564697265635,-0.0009447335042059,-0.0636373365215957,0.024614216774702,-0.042935062199831,-0.0009691056329756,0.0169088318943977
2.371528564453129,0.0007748568300157,-0.0615716361634433,-0.0058154082804918,-0.0401153080165386,-0.0018426224123686,0.0144486036151647
2.381493408203127,0.008128836322017,-0.0153686879150569,-0.0052992754518985,-0.038059614598751,-0.0016484877560287,0.0076383743435144
2.3914577636718803,0.0064153104024007,0.0497663398183882,0.0131336223393678,-0.039641797542572,-0.0024743338581174,-0.0062886262312531
2.4014228515625007,0.009212576438114,0.0622189941562712,0.0272428117126226,-0.0392359346151351,0.0063748667016625,-0.0135971680283546
2.411386718750009,0.0330472602076828,0.0307851604945957,0.0638777211487293,-0.0331538096070289,0.0167579986155033,-0.0191669035702943
2.421353271484378,0.0361397463303059,0.0136197984211146,0.056101241928339,-0.0178186167031526,0.0180824715644121,-0.0259390510618686
2.431318115234376,0.0405578185008838,-0.0045114860750734,-0.0159855046391487,-0.0057750027626752,0.0084839053452014,-0.0314198359847068
2.4412822265625067,0.0358100759845226,-0.0056406362354755,-0.0963905822187662,0.0066095842048525,-0.0071095461025834,-0.0330984145402908
2.451247314453127,0.0280527763886377,0.0061304655790328,-0.0950964507550001,0.0155167933553457,-0.0155656142160296,-0.0345594212412834
2.4612111816406355,0.0052669440848752,0.0403584600038826,-0.0321311682760715,0.0180583372712135,-0.0094188647344708,-0.0324925445020198
2.4711750488281297,0.0070994202090427,0.0625968875579535,-0.0133463883072137,0.0211880840361118,-0.0114436661824584,-0.0309556350111961
2.48114013671875,0.0216571936000138,0.0784001674979925,-0.0417962377220392,0.0163740627467632,-0.0195912383496761,-0.035683549940586
2.491104248046881,0.0318144304770976,0.0524579169899225,-0.0390676895409822,0.0164829865097999,-0.0211321450769901,-0.037569336593151
2.501068115234375,0.0444719597373157,-0.0162825878895819,0.0047042321681976,0.0156704578548669,-0.0245854463428258,-0.0360841006040573
2.5110332031250095,0.0461431078199297,-0.054910424708575,0.0386602777838707,0.0094381272792816,-0.023744685575366,-0.0345503874123096
2.520997314453126,0.0589280628520995,-0.0741109458714723,0.0622732085615396,0.0041495412588119,-0.0188399385660886,-0.0363788604736328
2.530962158203124,0.0501464982423931,-0.1055057626970112,0.1031762968361377,-0.0026258062571287,-0.0104951914399862,-0.0352052077651023
2.5409260253906325,0.0523957384739071,-0.1345788585767149,0.1087678332328796,-0.0136895608156919,-0.0049917427822947,-0.0342944748699665
2.550890136718749,0.042580812228471,-0.0964579483665525,0.0696188951492309,-0.0217533446848392,-0.0042039798572659,-0.0345866233110427
2.5608552246093836,0.0435890759555622,-0.0169758308507502,0.0675695614039897,-0.0269945375621318,-8.82768072187e-05,-0.0349796861410141
2.570819091796878,0.0253296350350603,0.0442263874784112,0.0734971978873014,-0.0239723827689886,0.0058236746117472,-0.0379339307546615
2.580784179687498,0.0336634558772668,0.0501255285196006,0.0452408252179622,-0.023474633693695,0.0078252470120787,-0.0388417690992355
2.5907480468750066,0.042958596032299,0.0284425428912043,-0.0238280348330736,-0.0145644955337047,-0.0009032634552568,-0.0427259877324104
2.6007124023437598,0.0575363527653738,0.0246200619935989,-0.1135702650785446,-0.001735960599035,-0.0078440755605697,-0.0382936894893646
2.6106772460937577,0.0760140395464375,0.0135240829616785,-0.1284416709959507,0.0105313574895262,-0.0094369128346443,-0.0352457016706466
2.620641113281252,0.0719761623324826,-0.0208192084059119,-0.1053922193199396,0.0205829236656427,-0.0115836570039391,-0.0307913180440664
2.6306062011718865,0.0656506125727668,-0.028569968663156,-0.0669879621237516,0.0281835868954658,-0.0191227979958057,-0.0268109571188688
2.6405700683593807,0.0493626909209415,-0.0521359915591776,-0.0447808064907789,0.0320195145905017,-0.0224207658320665,-0.0264037624001503
2.6505341796875115,0.0134632561525329,-0.0490999848641455,0.0277887551575899,0.0297731384634971,-0.0146712325513362,-0.0205394811928272
2.6604990234375094,0.0030623832453042,-0.046644700666517,0.0889279912531375,0.0237102750688791,-0.0033696400932967,-0.0146712213754653
2.670463134765626,0.0303274067897349,-0.0211903798058629,0.0877425808608532,0.0166773982346057,0.0017769187688827,-0.014593455940485
2.6804282226562606,0.0479714922908693,-0.0140402157902717,0.0529892473876476,0.0134335793554782,0.0030451887287199,-0.0091917589306831
2.690392333984377,0.0522887709680944,0.0005411211393773,0.0147965871155261,0.0060326540842652,-0.0026915264315903,-0.0107137542217969
2.7003562011718856,0.0531144081372767,-0.0051151510566473,0.0203103821009397,0.0110713569447398,-0.0017644416075199,-0.0047123441472649
2.7103210449218835,0.0537430979622527,-0.0154721482895314,0.0245797299832105,0.0094662709161639,-0.0037801882717758,-0.0049256635829806
2.72028515625,0.0410278471654281,-0.0332229090355336,0.0143909289240837,0.0068700416013598,-0.004251146223396,-0.0044441507197916
2.7302502441406347,0.0295963891014456,-0.0418695952191948,0.0408335301697254,0.011582238599658,-0.0005512165371328,-0.0071632382459938
2.740214111328129,0.0034704891221597,-0.0298429112084209,0.0558726938694715,0.0101929558441042,0.0058163097128272,-0.001758084166795
2.750177978515623,0.0001257818041369,0.0273282980389893,0.0131961661815643,0.0098347598686814,-0.0005353295709937,-0.0016339807771146
2.76014331054688,0.0137417808329686,0.0752671301692724,-0.0303799406945705,0.0097071984782814,0.0002358630299568,-0.0030414261855185
2.770107421875011,0.0486424868876114,0.0712768914893269,-0.022314707660675,0.0068275230005383,0.0058431485667824,-0.0098668411374092
2.7800720214843864,0.0473419622156769,0.0347230844654142,-0.0032902737170457,0.0036454852670431,0.0073919082060456,-0.0161157082766294
2.790036132812503,0.0385224402157589,-0.0055367374695837,0.0136176064640283,0.0053400546312332,0.0134641816839575,-0.0202286951243877
2.8000002441406338,0.0225448631547391,0.0089035835541784,0.0262608149379491,0.0099386256188154,0.0149733331054449,-0.0206633377820253
2.8099650878906317,0.0325865108281374,0.0980120459407568,-0.0211421567499637,0.0098163858056068,0.0034200069494545,-0.0201988816261291
2.819928955078126,0.0568575767209753,0.1480761996619403,-0.0701233375400304,0.0084285251796245,-0.0019128622952848,-0.0227129198610782
2.8298940429687605,0.066679298033379,0.0595415916405618,-0.0550169538229703,0.0070431483909487,-0.0014329606201499,-0.0233896300196647
2.8398583984374994,0.076673745564185,-0.0536778141736984,0.0088853172451257,0.0077345985919237,0.0059790858067572,-0.0232532899826765
2.849822265625008,0.0724878747142851,-0.1293006259128451,0.0513309587866067,0.0108086857944726,0.0103264302015304,-0.0184955522418022
2.859787109375006,0.0752563530469313,-0.0850245540738105,0.0616705664932727,0.0112724229693412,0.0122160594910383,-0.012694620527327
2.8697512207031366,0.0807820941984653,0.0116791857473552,0.0170300452560186,0.0183220766484737,0.0041866293177008,-0.0048659918829798
2.8797160644531345,0.1024598921950906,0.0316951149463653,-0.0554161822736263,0.0137062920257449,-0.0045544574968516,-0.000638720113784
2.889680175781251,0.0993160777440294,0.0033816052623093,-0.0167599961429834,0.0110319452360272,0.0027167713269591,0.0016771648079156
2.8996440429687595,0.0790368579663336,-0.0451266973190009,0.0575274753391742,0.011121510528028,0.0175430793315172,0.0090242652222514
2.90960913085938,0.0737480673758313,-0.0636632016152143,0.0509562802553176,0.0106637133285403,0.0143781788647174,0.0179700888693332
2.919572998046874,0.1022241837430745,-0.0553593375198543,0.0031289456754922,0.007797353900969,0.009953336790204,0.0214369930326938
2.929537109375005,0.1091768158925697,-0.0671449062511324,0.0203372701078653,0.0010025659576058,0.009309098124504,0.0254397355020046
2.9395021972656252,0.0815146827893331,-0.0893866948060691,0.0845733031749725,0.0013737250119447,0.0158296450972557,0.0303042829036712
2.949466308593756,0.0460566351128742,-0.0512571628980338,0.0945814869701862,-0.0048956223763525,0.0230987407267093,0.0336723811924457
2.959431152343754,0.0578065114762634,0.0103973292432725,0.0308867211729288,-0.0074256304651498,0.0179559625685215,0.0362183339893817
2.969395019531248,0.0635732583094388,0.0095056411005556,-0.0072924950957298,-0.0109585793688893,0.0138762649148702,0.0350595936179161
2.979359130859379,0.0434757883068174,-0.0204703949682414,-0.0041582887232303,-0.0091241030022501,0.0159986820071935,0.0369275547564029
2.989323974609377,0.0275294831668958,0.0019087562307715,-0.0054208560049533,-0.0060646636411547,0.0146985277533531,0.0383576713502407
2.9992880859375077,0.0197000681828707,0.0116758247464895,-0.0440180054247379,-0.0005808612331748,0.0074320100247859,0.0369174294173717
3.0092534179687505,0.0176087949920445,-0.0194639944046735,-0.0311725523769855,-0.0010501099750399,0.0043009314686059,0.0401475802063941
3.019217285156259,-0.0122136214176192,0.0190945765703916,0.0167658413618803,-0.0042683612555265,0.0082744499668478,0.0349869094789028
3.029181152343753,-0.0132032535094767,0.0566796263381838,0.051349078965187,-0.0025085443630814,0.0108457328751683,0.0365991853177547
3.0391462402343734,-0.0042582419663667,0.0537516100622713,0.026852351090312,-0.0046357028186321,0.0080977473407983,0.0334158837795257
3.049110107421882,0.0102873295301571,0.058451019924879,-0.0299169993579387,-0.0082805044949054,-0.0008105260785669,0.0306057147681713
3.0590749511718798,0.0116907665872946,0.0502222668923437,-0.0120680389344692,-0.0124904289841651,0.0010758102871477,0.0308025106787681
3.0690390625000106,0.0070619012102484,0.0638821050629019,0.0436170234084129,-0.0195083916187286,0.0097601125016808,0.0229725539684295
3.079003173828127,0.004429908738844,0.0287640299305319,0.0747848996102809,-0.0278057307004928,0.0131100239232182,0.0226642061024904
3.088968505859384,0.0083636314585804,-0.0298462722092866,0.0818985310077667,-0.031238280236721,0.0141680976375937,0.0203933268785476
3.098932128906256,-0.0066322410887107,-0.0827292827434837,0.0639835196107626,-0.0214753113687038,0.0133502269163727,0.0251619406044483
3.1088972167968763,0.0133275740088894,-0.0974259166158735,-0.0214350022166967,-0.0100876353681087,0.0029188918415457,0.0321535356342792
3.118861328125007,0.046625301846303,-0.0998743326812982,-0.1049181720674037,0.0007028700783848,-0.0123319122940301,0.029985211789608
3.1288251953125013,0.0381573332304134,-0.1053610935293137,-0.0890273599743843,-0.0006345696747303,-0.0079731177538633,0.0337549149990081
3.138790039062499,-0.0129018594101071,-0.061534811284393,-0.0053325931996107,-0.0018562483601272,-0.0002194496337324,0.0311156921088695
3.14875415039063,-0.0440076666938141,0.05671016760692,-0.005723638343811,-0.0013340022414922,-0.0012279886286705,0.0279766246676445
3.1587192382812503,-0.0711720794079825,0.1023239177905023,0.0122089087098836,0.0023851003497838,0.0114427404478192,0.0210060998797416
3.1686831054687588,-0.0726675055975094,0.1166315523453056,0.040920039409399,0.00514333602041,0.0226426646113395,0.0172947198152542
3.1786472167968753,-0.0472446758536621,0.0862545342601835,0.0029383915394544,0.010474806651473,0.0149958580732345,0.0076239733025431
3.18861230468751,-0.0249601806681603,0.0762315912872552,-0.0737882897883653,0.0129347685724496,0.0028401252347975,-3.906898200511933e-07
3.1985764160156265,-0.0232103047935292,0.0624523645207285,-0.064251230636239,0.0166856534779071,0.0042019542306661,-0.0036188135854899
3.2085400390624983,-0.0303366860747337,0.0401518315158784,0.0043815760850906,0.0152339665219187,0.0046594850718975,-0.008933151140809
3.218505126953133,-0.0472863961035385,0.0585299303799867,0.0477864180475473,0.0093791848048567,0.0071989595890045,-0.0137135619297623
3.2284692382812494,-0.0440471949866041,0.0630469694130122,0.0539256514549255,0.004449407570064,0.0060647195205092,-0.0172915197908878
3.2384340820312616,-0.0253500567685812,0.056503977510333,0.0606049830883741,-0.0009517450816929,0.009588249027729,-0.0178523212671279
3.248398193359378,-0.0091570103259757,0.0328786256425082,0.0820475840896368,-0.0062959105707705,0.0184078402817249,-0.0175497867166996
3.258362304687509,-0.0085334716001525,0.0140394851379096,0.0646107115983962,-0.00699303438887,0.0181000307202339,-0.016564767807722
3.268327148437507,0.0064719359604641,0.0044696927599608,0.027469606205821,-0.0099352952092885,0.0125710433349013,-0.0128754898905754
3.2782912597656235,0.0312765607407316,0.0040457682594656,0.0129682026445865,-0.009557488374412,0.0093292221426963,-0.0111761027947068
3.2882561035156357,0.0436684248020872,-0.0168105572864413,0.0156026428014039,-0.0130938999354839,0.0033070161007344,-0.0097917905077338
3.2982202148437523,0.0401639238124713,-0.0073923022083938,0.0257850141197443,-0.0179019719362258,0.0041610822081565,-0.0098341302946209
3.308184326171883,0.0254766422903165,0.0026835399955511,0.0511935961425304,-0.022672226652503,0.0058870771899819,-0.0065459255129098
3.318149169921881,0.0198043322749435,-0.0349776437483727,0.0581073210537433,-0.0261303409934043,0.0075381882488727,-0.0054793003946542
3.3281130371093752,0.0066800622858107,-0.0448639547295868,0.0574094019174575,-0.0282893665134906,0.0157692208886146,0.0003998940810561
3.3380781250000098,0.0101868648303672,-0.040713849312812,0.0127495914578437,-0.029266569763422,0.0120763359591364,0.0001308959908783
3.3480422363281264,0.0132398226602002,-0.0399646383807063,-0.0269943899095058,-0.0264942198991775,0.0058227013796567,0.000279233790934
3.3580061035156348,0.0172452223766595,-0.0365846405535936,-0.038896424627304,-0.0247684903442859,0.0040524979121983,0.005845240317285
3.367971191406255,0.0235220010912045,0.006453852314502,-0.0394330157220363,-0.0280598923563957,0.0056775589473545,0.0039666467346251
3.3779350585937493,0.0376869757723063,0.0248809048868715,-0.0447521649181842,-0.0264081917703151,0.0085881846025586,0.0010770834051072
3.387900146484384,0.0497279440367594,0.0316575594149529,-0.0235725987672805,-0.024598840624094,0.0120284557342529,-0.0047565712593495
3.397864013671878,0.0428041361229494,0.0298407192513346,-0.0188064072787761,-0.0254447534680366,0.0139318034052848,-0.00539540220052
3.407828125000009,0.0430540557634085,0.0145351597003638,-0.0144394442409276,-0.0164081156253814,0.01329823769629,-0.0035338522866368
3.417793212890629,0.038064978771843,-0.0423005339823663,-0.0267804548978805,-0.0104628764092922,0.0145669868215918,-0.0033293338492512
3.4277543945312487,0.0455889445358887,-0.0629486236050725,-0.072037646728754,-0.0019548754207789,0.0040299240499734,0.0007381117902696
3.4377185058593795,0.0608782105391845,-0.0393735406197607,-0.0775192930102348,0.0099457297474145,0.0022930775303393,0.0044571761973202
3.4476833496093775,0.0715166915945708,-0.013406447931379,-0.0566881019055843,0.0178425349295139,-0.0012494593393057,0.0046925996430218
3.457647216796886,0.0603391717590391,0.0121804132677614,-0.027725042271614,0.018062774091959,0.0052227829582989,0.0030782143585383
3.4676123046875063,0.0492483803588897,0.0211386496186256,0.0134305594593286,0.0225576572120189,0.008896879851818,0.0039615845307707
3.4775761718750005,0.0497549416415393,0.0221013571709394,-0.0039765024155378,0.0209748521447181,0.0075888177379965,-0.0008877618238329
3.4875402832031313,0.0569186592584475,0.0111895025342702,-0.0080839377343654,0.0262367241084575,0.006986410357058,0.0015892442315816
3.4975053710937516,0.0477094072885811,-0.0317576587885618,0.0029091654449701,0.0362577587366104,0.0047484836541116,0.0038412038702517
3.5074694824218824,0.0329717472860589,-0.0559366990163922,-0.0290115749508142,0.0380085185170173,5.33305574208e-05,0.0031101661734282
3.5174343261718803,0.0330595716999843,-0.0555469690464437,-0.0208621707648038,0.0419085472822189,-0.0033566255588084,-0.0038170074112713
3.527398437500011,0.0221134129349142,-0.0390865403719246,0.0166103585392236,0.0407093241810798,-0.0036306644324213,-0.005724097136408
3.5373623046875053,-0.0042755584273487,0.0006514496460556,0.0441138670146465,0.0325381197035312,0.0024733450263738,-0.0090122763067483
3.5473271484375033,-0.0031175109660252,0.0456007445715367,0.0509913515686988,0.0224141143262386,0.0054630097001791,-0.0120821027085185
3.557291259765634,-0.0182958274081349,0.0502516391173005,0.0462052863359451,0.0197683535516262,0.0090555511415004,-0.01661242172122
3.5672551269531283,0.0027664690386503,0.0482698176503181,0.0351718511462211,0.0186045542359352,0.009573801420629,-0.0144962733611464
3.5772202148437486,0.0161664506966248,0.0628336189232766,0.0092272625505924,0.0162974540144205,0.0030873292125761,-0.0175285004079341
3.587184082031257,0.0276260754091665,0.0723050654932856,0.0061211132287979,0.0078349933028221,0.0002260289620608,-0.0201831422746181
3.5971494140624998,0.0254541381975635,0.0729343033075332,0.0223345814049243,0.0015389248728752,0.0039630881510674,-0.020796213299036
3.6071135253906306,0.0216223414823412,0.0478105295754969,0.0621224019140005,-0.0052995402365922,0.0076632839627563,-0.0195514522492885
3.6170773925781248,0.0221711344715207,0.026715134576708,0.0586105944007635,-0.0085800196975469,0.0068752355873584,-0.0206369459629058
3.627042236328137,0.0260652558332309,-0.0234397661678493,0.0394283395469188,-0.0079291434958577,0.0092065669596195,-0.021212987601757
3.6370063476562535,0.0194687801776453,-0.061151511055231,0.0512082091897726,-0.0041295243427157,0.0098880166187882,-0.0188414640724658
3.646971435546874,0.0093146851057186,-0.0863582868956029,0.024722353324294,0.0005427254363894,0.0063454797491431,-0.0155109148472547
3.65693505859376,0.0203301827799528,-0.0784780550397932,-0.0121077864229679,0.0015097195282578,0.0041281026788055,-0.0140554793179035
3.6668991699218765,0.0317451281005516,-0.0404416082426905,-0.0237280815899372,0.0069297850131988,0.0042077312245965,-0.0074913203716278
3.6768645019531334,0.0444230060290545,-0.0047001405149698,-0.0340016383230686,0.0129372589290142,0.0006166177336126,-0.0064599197357892
3.6868283691406276,0.052010319352895,0.0189354404859244,-0.0471399368375539,0.0163905788213014,0.0013865375658497,-0.0061733638867735
3.6967932128906256,0.0648360082542523,0.006268120484054,-0.0433721087366342,0.023008182644844,0.0037230299785733,-0.0004172138869762
3.7067573242187564,0.0679601316241547,-0.0195639476478099,-0.0302682970136404,0.0248625427484512,0.0001642478164285,0.0001242067664861
3.716721435546887,0.0760115187957882,-0.0414893637299537,-0.0447539184838533,0.0262986905872821,-0.0032719650771468,0.0030078913550823
3.7266860351562485,0.0842523275922983,-0.0544561050698161,-0.0581587589800357,0.0260528810322284,-0.0096275992691516,0.0073624262586236
3.7366501464843793,0.0859245351208373,-0.0869189895182847,-0.0119184013307094,0.0203560218214988,-0.0073217619210481,0.0080870818346738
3.7466154785156363,0.0810608015419915,-0.0879131151221692,0.0449433035761117,0.0194263122975826,-2.39009968936e-05,0.0094745885580778
3.7565793457031305,0.0786128969332203,-0.0610084493227303,0.0654734659075736,0.0176134128123521,-0.002004194073379,0.0092586390674114
3.7665432128906247,0.0806524399368092,-0.0876743379302322,0.0397299528419971,0.0146178882569074,-0.0038676080293953,0.0096964631229639
3.776508300781259,0.0805709721984341,-0.0915836203284561,0.055340194427967,0.0091244960203766,0.0036269249394536,0.0109031163156032
3.786472412109376,0.0705367406465113,-0.0950708779223263,0.0722083271205425,0.0061257760971784,0.0157400462776422,0.0075834859162569
3.7964365234375066,0.0700151279252022,-0.0909662190824747,0.0366805021435022,0.0075213639065623,0.0145998839288949,0.0141377765685319
3.806401123046882,0.0756030110601335,-0.0429645508490502,-0.026139818906784,0.0119454069063067,0.0124605670571327,0.0131231117993593
3.8163652343749987,0.0660056000228971,-0.0220104640170931,-0.0398784214019775,0.0235192347317934,0.0068798745051026,0.0125521533191204
3.8263303222656333,0.058072213207744,0.0238765501499176,-0.0332967049241065,0.0275672394782304,0.0064276698976755,0.0138280726969242
3.83629443359375,0.0558502263093367,0.029904286006838,-0.0371504577428102,0.0249417275190353,0.0072961109690368,0.014621652662754
3.8462583007812583,0.063539027246274,0.0074744275338947,-0.0395341380089521,0.0268038101494312,0.0041583743877708,0.0134397419169545
3.8562233886718786,0.0404642219332978,-0.0204357620462775,-0.0217249250739812,0.0291483663022518,-0.0060566393658518,0.0143745196983218
3.866187255859387,0.0085721596427261,-0.0225390179358422,0.0064145432174205,0.0243291072547435,-0.0065876729786396,0.0135585274547338
3.8761523437500074,-0.009849230373837,-0.0232325531579554,0.0405085359990596,0.0185086913406848,-0.0051750042475759,0.0126391816884279
3.8861162109375016,-0.0215208904018625,-0.0413284740798175,0.0784329007238149,0.0180351808667182,0.0032672162633389,0.0170312672853469
3.8960803222656324,-0.0293923178967088,-0.0319929288491606,0.0900321531027555,0.0163914784789085,0.0015116604045033,0.0192219819873571
3.9060451660156303,-0.0310800517879426,-0.0204847157545387,0.0633762013673782,0.0127932811155915,0.0014115255326032,0.019824655726552
3.9160095214843835,-0.0352639133438468,-0.0250932324633002,0.0607546206921339,0.0077226078137755,0.0027835017535835,0.0193599835038185
3.9259733886718777,-0.0111022261096164,-0.0075726272113621,0.0417734413683414,0.0052232313901185,-2.93289776891e-05,0.0182108301669359
3.9359382324218757,0.0136700673036277,-0.0040538054354488,0.0379313789874315,-0.0091489609330892,-0.0061245784163475,0.015795599669218
3.9459023437500065,0.0270363658877089,-0.0533376224339008,0.0457236402988433,-0.0179690830409526,-0.0029050826560705,0.0103393150493502
3.955867431640627,0.0155816365459933,-0.1164820608720183,0.0981669442415237,-0.0290242210030555,-0.0016035137232393,0.0087773753330111
3.9658312988281352,-0.0146478262946009,-0.0918428557865321,0.1437251648455858,-0.0366488508880138,0.0061002122238278,0.0051030120812356
3.9757951660156294,-0.0294645428827032,-0.0147550860613584,0.1065928272813558,-0.0466442257165908,0.0031510372646152,0.002538647968322
3.9857602539062498,-0.0216974890777841,0.0116786012254655,0.0594260024368762,-0.0491832867264747,0.0125519959256052,0.0006438088603317
3.995724121093758,-0.0267832313768565,0.0020624854877591,0.053286769029498,-0.0559911206364631,0.0171787049621343,-0.0033123167231678
4.0056892089843785,-0.0250438768962398,-0.0527818882472813,0.0539724132061004,-0.0468136072158813,0.0264792628586292,-0.0020976494997739
4.015653320312509,-0.0088685487734153,-0.0847347773469984,0.0023655600875616,-0.0347566753625869,0.021615007892251,0.000669902190566
4.025617431640626,0.0080456515505909,-0.0747787621304392,-0.0783949068009853,-0.0197124779224395,0.0132281817495822,0.0021197274327278
4.0355825195312605,0.0349295302903279,-0.062664984358102,-0.1381324594050645,-0.0070343920961022,0.0026032170280814,0.0013596205972135
4.045546142578132,0.0486616299794986,-0.016521072820574,-0.1290039810538291,0.0071282982826232,-0.006326894275844,0.0056837950833141
4.055511230468753,0.0559836068980395,-0.0334242768265306,-0.1358703596919775,0.0247747432440519,-0.0098976287990808,0.0053059780038893
4.065475341796883,0.048649976074323,-0.0677531012773513,-0.1034101055920124,0.036770150065422,-0.0165155846625566,0.0092684952542185
4.075439208984378,0.0414927977960556,-0.0792474319770932,-0.0678366879075765,0.0408610329031944,-0.0168375018984079,0.0110658276826143
4.085404296875012,0.0413343192987143,-0.0434944199420511,-0.0522048190116882,0.0435236580669879,-0.0212706010788679,0.0092735197395086
4.095368408203129,0.0328805253386497,-0.0159052790097892,-0.0136661217808723,0.040807768702507,-0.0181379243731498,0.0026534339413046
4.1053325195312595,0.0202990935219451,0.0225358030654489,0.0573924507826566,0.03415172919631,-0.0068146958947181,0.0042430749163031
4.115297119140635,0.016134301992692,0.0176399938479065,0.1369295133560895,0.0292361564934253,0.0047255079261958,0.001176169142127
4.125261230468752,0.0191681167306378,-0.0156207629799842,0.1113748008608817,0.0228965021669864,0.0078515261411666,-0.000469131860882
4.135226318359386,0.0182860001338645,-0.0587561403512954,0.0852788210958242,0.0219379477202892,0.0119044445455074,-0.0014886073768138
4.145190429687503,0.0174641623569652,-0.0820731569223105,0.0954290437102317,0.0184100605547428,0.0151561647653579,0.0001503019593656
4.155154052734375,0.0240328732227906,-0.0899850990906357,0.064779053902626,0.0183034408837556,0.0084970034658908,-0.002199662849307
4.165119384765632,0.0158633760968223,-0.0846205033175647,0.0104939214855432,0.0182576347142457,0.0001916694454848,-0.0017210934311151
4.175083496093748,0.0035352979866787,-0.0737950117900967,0.0336298824012279,0.0126054473221302,0.0002398451324552,-0.0002974011003971
4.18504833984376,0.0017764350879937,-0.0388525854855775,0.0439139605283737,0.0057502044364809,-0.0013322187587618,-0.0032188887707889
4.1950122070312545,0.0049907574919983,-0.0031008886247873,0.0562993948489427,-0.0023954398930072,0.0023448630236089,-0.0024343030527234
4.204976318359385,-0.0126335638627409,-0.0070939037837088,0.0778016170829534,-0.0091111334040761,0.0057334690354764,-0.003233783878386
4.214941162109383,-0.0001596475411206,-0.0251065303362905,0.0673924512714147,-0.0128018409013748,0.0066304476931691,-0.0013391748070716
4.2249052734375,-0.0248186167730018,-0.0348052097909152,0.0591249736636877,-0.0150037426501512,0.005402997136116,-0.0006454214453697
4.234869140625008,-0.0095294238349422,-0.0493045675255358,0.0393377386540174,-0.0145485121756792,0.0055680773220956,0.0047391927801072
4.244834472656251,-0.0043977965675294,-0.0227292798109352,0.0001923077017068,-0.0102331256493926,-0.0030331336893141,0.0042568943463265
4.254798339843759,7.7083824202e-06,-0.0064484454870223,-0.0324959099352359,-0.008477734401822,-0.0067882370203733,0.0028437974397093
4.26476342773438,0.0052774289462715,-0.0393221026934683,-0.0013338789522647,-0.0063687767833471,-0.0060785040259361,0.0024019791744649
4.274727294921874,-0.0111694461269304,-0.0458181867145001,0.0185953948765993,-0.0088048791512846,-0.008306230418384,0.0058849062770605
4.284691406250005,0.0075489540748298,0.0173981479160487,0.0120633627593517,-0.010160693898797,-0.0101685794070363,0.0012675174511969
4.294656250000003,0.0012377981666475,0.0220291687175631,0.031235096219182,-0.0154177770018577,-0.0080742985010147,-0.0047946190461516
4.304620117187511,-0.0110201007841154,-0.0305260711669921,0.0892687675148248,-0.0236448142677545,-0.0027144197374582,-0.0090740527957677
4.3145852050781315,-0.0253661676531657,-0.0743031074427068,0.1335784493625164,-0.0225071907043457,0.004150834865868,-0.0115329902619123
4.324549072265626,-0.036151582898572,-0.0317675956606864,0.0713905809968709,-0.0248137563467025,-0.006382499821484,-0.0084767453372478
4.334513427734379,-0.0101491266358643,0.0416593134693801,-0.0238075765669345,-0.0255182422697544,-0.0079219620674848,-0.0120821464806795
4.344478515624999,0.0221984243372455,0.0495480208925902,-0.0091512747049331,-0.025963257998228,-0.0044566574506461,-0.0131274368613958
4.354442382812508,0.0358349912300705,0.0013812252253293,0.0173246442884206,-0.0281650833785533,-0.000505739590153,-0.0162049531936645
4.364406250000002,0.019441636442393,-0.0471083726555109,0.0534931052565574,-0.0233319792896509,-0.0003680540248751,-0.0141758890822529
4.374371337890636,0.0064258317964151,-0.0356992360211908,0.037085575813055,-0.0226724036037921,-0.0002476065419614,-0.0127375060692429
4.384335205078131,0.0109105394624173,0.0342347164265811,-0.0193178639322519,-0.0209282990545034,-0.0082027353346347,-0.0095177451148629
4.3943000488281285,0.0265357594218105,0.0473341442354023,-0.0544815317720174,-0.0181622356176376,-0.0091921063140034,-0.011423016898334
4.404264160156259,0.0393568452132865,-0.0104889530494809,-0.0214905317962169,-0.0128260590136051,-0.0095724062994122,-0.0088442778214812
4.414228271484376,0.0430970181223005,-0.0792925862930715,0.0076093059599399,-0.0012658271007239,-0.007317897863686,-0.006387174129486
4.424197998046878,0.0496741314902901,-0.1395025787144899,0.0131786305248737,0.0014636470004916,-0.003359108697623,-0.0023402338847517
4.434162109375009,0.0503404499119147,-0.1547372649863362,0.006682254242897,0.0033714585006237,-0.003675295272842,0.0032321012113243
4.4441271972656295,0.0355693625638261,-0.0807784409366548,-0.0028624036937952,0.0070061404258012,-0.0052620060741901,0.0033572698011994
4.454091064453124,0.0266192729867994,-0.0001755026973783,0.0299006327450275,0.0085919583216309,-0.0048789801076054,0.0028281142003834
4.464054931640632,0.0059583969477564,0.0270158710889518,0.067908584100008,0.0080236392095685,0.0008113961666822,0.0006331368349492
4.4740200195312525,0.0027168942758813,0.0481722024947404,0.0756096599966287,0.0117505546659231,0.0039287908002734,-0.0018691625446081
4.483984130859383,0.0197612968508154,0.0850106716789305,0.0132972884684801,0.0073914919048547,-0.0047155637294054,-0.0098091112449765
4.493947753906255,0.0198535417115315,0.0988181016266346,-0.018099720314145,0.0064887702465057,-0.0077164955437183,-0.0150520810857415
4.503913085937512,0.0018616291534155,0.0480661117717623,0.0803828657478094,0.0042067077010869,-0.0013142565730959,-0.0178950056433677
4.513877197265629,-0.0251727639729157,0.0133443424805998,0.1223597207337617,-0.0015584174543619,0.0071286614984273,-0.0256868712604045
4.523842041015627,-0.0682904595570638,0.0318752938188612,0.1040092405289411,-0.0052615432068705,0.0044178296811878,-0.0223885476589202
4.533805908203135,-0.0431145172463729,0.0153689801760017,0.0729793114930391,-0.005757865961641,0.0063306959345936,-0.02382692694664
4.543770019531252,-0.0390310473250225,-0.0030564649611711,0.0591530307143926,-0.0047171022742986,0.0084303319454193,-0.019905686378479
4.553735107421886,-0.0015890958223491,-0.0505697651557624,0.0253776023626327,-0.0036720726639032,0.0049333637580275,-0.0147801842540502
4.56369897460938,0.0206540444394573,-0.0866730519331991,-0.0087286653786897,0.0003929762169718,0.0021426370367407,-0.0076644830405712
4.573664306640623,0.0569900805268436,-0.0530439001843333,-0.0708656803399324,0.0035014990717172,-0.0126681299880146,-0.0008976343087852
4.5836281738281315,0.0752339585520327,-0.0032318215280771,-0.0490945780366659,-0.003568394575268,-0.0179899241775274,0.0034766078460961
4.593592285156248,0.0681884239546954,0.0188058227568864,0.0523053567767143,-0.0141371507197618,-0.0057599283754825,0.0015908456407487
4.60355712890626,0.0289158960239961,0.0060778586089611,0.1386696350216865,-0.0191737208515405,0.0092166233807802,0.0017088237218558
4.613520996093754,-0.0049599604949355,0.0213704125478863,0.1145399868935346,-0.0241144113242626,0.0125834494829177,0.0019460781477391
4.623485107421885,-0.0081796897264197,0.0280474060937762,0.0414461091101169,-0.0296362116932868,0.0109293600544333,-0.0002446384169161
4.633449951171883,0.0080018124088644,0.0158370360791683,0.0211380650967359,-0.0248258337378501,0.0135265281423926,-0.0040601287037134
4.6434140625,0.0003091390144079,0.0016138649374246,-0.0051490533262491,-0.0162627063691616,0.0162235125899314,-0.0044865012168884
4.653379150390634,0.0065382791949436,0.0096647771850228,-0.0421796840816736,-0.0104193668812513,0.0126463277265429,-0.0044351373799145
4.663343261718751,0.0123551122475415,0.008035276287049,-0.0926917277008295,0.0006977329030632,0.0004423926584422,-0.0034116846509277
4.673307128906259,0.030858371861279,0.0063249652378261,-0.1003957262068986,0.0070327697321772,-0.0065166307613253,-0.0056657809764146
4.68327221679688,0.0455765599783509,0.0260090321339666,-0.071185413813591,0.0085092261433601,-0.0101116318255662,-0.0047608390450477
4.693236083984374,0.0382681731937453,0.0468444610223174,-0.0094879593133926,0.0090015605092048,-0.0077032344415783,-0.0071576912887394
4.703200927734386,0.0294077346615493,0.0466425087094306,0.0104378073841333,0.0067123072221875,-0.0102042090147733,-0.0074402526952326
4.713165039062503,0.0335042467275634,0.031402854001522,0.0064484454870223,0.0055911019444465,-0.0118186920881271,-0.0063512423075735
4.723128906250011,0.0320974121369421,-0.0190349553376436,0.0034457565397024,0.0011153938248753,-0.0108346547931432,-0.0094578191637992
4.733093994140631,0.0188133484762161,-0.020270634612441,0.0294441211491823,-0.0057364758104085,-0.0090342760086059,-0.0123002063482999
4.743058105468762,0.0117383685886859,-0.005602350051701,0.0475397498100996,-0.0123110208660364,-0.0053897397592663,-0.0124560017138719
4.753022216796879,0.01599357834775,0.0093359836220741,0.0667640902400016,-0.0206999778747558,-0.0004189205355942,-0.0105262929573655
4.762987304687499,0.0307586743464693,0.0282911517217755,0.0710620796948671,-0.0225356929004192,0.0082022650167346,-0.0095326686277985
4.7729511718750075,0.0414744584217667,0.0302034150838851,0.0421481198996305,-0.0216864012181758,0.0112263308838009,-0.0093009993433952
4.7829160156250055,0.056856444209814,0.0109849198728799,-0.001762333497405,-0.0199377704411745,0.0096438806504011,-0.0062615335918962
4.792880126953136,0.0591814896238967,0.0049855333276093,-0.0084849197506904,-0.0162002872675657,0.0116868000477552,-0.0005163014866411
4.8028439941406305,0.0761200937367975,-0.0141901456549763,-0.0269967279970645,-0.0079945558682084,0.008462244644761,0.0043719303794205
4.812808837890628,0.0762609269795939,-0.0662435734972357,-0.0328004458397626,0.0037562036886811,0.009675508365035,0.0069200345315039
4.822773193359382,0.060708918386884,-0.1102355676978826,-0.0154851539015769,0.0115845669060945,0.007237649988383,0.0112849557772278
4.832738281250002,0.0357941112304106,-0.0645233255758881,-0.0361427420049905,0.0166846774518489,-0.0010855097789317,0.0176387652754783
4.842701904296874,0.0371981328094378,-0.0342445071682333,-0.0670423226594924,0.0195217430591583,-0.0049316473305225,0.0199160352349281
4.8526660156250045,0.0154304645722731,-0.0234935421817004,-0.0381423913896083,0.0213817842304706,-0.0001598778180778,0.0204635765403509
4.862631103515625,0.0064681731007993,-0.0080200787179172,-0.040754035192728,0.0267168954014778,-0.0011955809313803,0.0182443652302026
4.872595214843756,0.0143332439200952,0.000911854147911,-0.0620195260614156,0.0318341627717018,-0.0053064366802573,0.0223490968346595
4.88255908203125,0.0108594668623059,0.0247407657638192,-0.0780295806199312,0.0284452885389328,-0.013929751701653,0.0210231058299541
4.892523925781262,0.0034059725185856,0.0510382594503462,-0.0129109194993972,0.0262825340032577,-0.0109440917149186,0.0162232965230941
4.902488037109379,-0.0113714349724352,0.0451361957997083,0.0396674089998006,0.0267760157585144,-0.0021090547088533,0.0117526492103934
4.912453124999999,-0.0181182058189064,0.012080460024625,0.0740402187228202,0.024046815931797,0.0028820037841796,0.0061554675921797
4.922416992187507,-0.0169993213241919,-0.0323148542799055,0.0770996062934398,0.023576233536005,0.0071907322853803,0.0011809491552412
4.932381103515624,-0.0217373461641371,-0.0477896329179406,0.0337678295671939,0.0213754829019308,-0.0009213672019541,-0.0028670439496636
4.9423461914062585,-0.0431564201593399,0.0089021222494542,-0.0268120190799236,0.024703899398446,-0.0136768436059355,-0.002803660929203
4.952310058593753,-0.0302061184976249,0.0717239046044647,-0.0295294613450765,0.0248533207923173,-0.0129033960402011,-0.0083345510065555
4.962273925781261,-0.0159436382587999,0.0805680130563676,-0.0171615626811981,0.0140243750065565,-0.0149915814399719,-0.0107596237212419
4.9722390136718815,-0.0070889718802645,0.028252865538001,0.0352875864803791,0.0103381006047129,-0.0030969951767474,-0.011472781188786
4.982203124999998,-0.0006943754723295,0.0244802151314914,0.0872334622949361,0.003858096897602,-0.0025161600206047,-0.0127007635310292
4.992168212890633,0.0049340954013168,0.0973814929522573,0.0485088871031999,-0.0038043521344661,-0.0029510925523936,-0.0100663425400853
