time,ax,ay,az,gx,gy,gz
0.0,-0.0762224581327289,0.0329641119688749,0.0002115969240665,-0.0057953838258981,-0.0685861855745315,-0.1861929893493652
0.009965087890627444,-0.0328917773850262,0.0393013521663844,0.0030173019945621,0.0017275139689445,-0.065201312303543,-0.1925451606512069
0.019929443359373522,0.0071759560439735,-0.0156974814780056,0.0088403090596199,0.0011147204786539,-0.0588675141334533,-0.1978254169225692
0.02989428710937858,0.0259953872011043,-0.0642442163735628,0.0020452420920133,0.0058350451290607,-0.0610282234847545,-0.1995011419057846
0.039858398437502274,0.02384757978376,-0.0683852617010474,-0.0257213012337684,0.0059745954349637,-0.0632698088884353,-0.2027808278799057
0.04982324218750023,0.0129290214116685,-0.0737742612630128,-0.0072322893410921,0.0041998689994215,-0.0627197176218032,-0.2027277201414108
0.059787109375001535,-0.0034514556281268,-0.0808615891754627,0.0334586174875497,0.0119083886966109,-0.0646068304777145,-0.2022361010313034
0.06975122070312523,-0.0394068583674728,-0.0712049952968955,0.0390887323290109,0.0225017685443162,-0.0690165534615516,-0.2014198750257492
0.07971630859375267,-0.0410871944035403,-0.0417800172396004,0.0347650239109992,0.0189845319837331,-0.0604174733161926,-0.1962703913450241
0.08968017578125398,-0.0228291417225264,-0.0148763743534684,0.0465454780757427,0.0248979702591896,-0.0554115772247314,-0.1946302354335785
0.09964526367187432,0.0115355760255828,-0.0203618200272321,0.010389876589179,0.0266165062785148,-0.0673191025853157,-0.196042776107788
0.10960937500000512,0.0393631836225278,-0.0325925021775066,-0.0274473943740129,0.0295728892087936,-0.072533868253231,-0.1980026364326477
0.11957446289062545,0.0287756655693985,-0.0287215059630572,-0.0189794257581233,0.0328062362968921,-0.0762300640344619,-0.2023931145668029
0.12953808593750438,0.0072751421021297,-0.0431724945113062,0.0040127427726984,0.0306108742952346,-0.071469709277153,-0.2054558396339416
0.13950219726562807,-0.0003108377811498,-0.0383373294398188,0.011477087303996,0.027461152523756,-0.0722084641456604,-0.2054238766431808
0.1494672851562555,-0.0357433308912441,-0.0174226978354156,0.0282663095414638,0.027203943580389,-0.0728550478816032,-0.2125798761844635
0.1594313964843792,-0.0637552272802218,-0.0006225158125162,0.0434206240534782,0.0244832597672939,-0.0699002742767334,-0.2163447886705398
0.16939624023437716,-0.0716057215848937,0.0261753286115825,0.0562742604076862,0.0188524797558784,-0.0594681538641452,-0.2189162075519561
0.17936035156250085,-0.0314291574865579,0.0276565070800483,0.0471446130126714,0.0216133780777454,-0.0521455258131027,-0.2208320945501327
0.1893251953124988,-0.0096133392587304,0.0270930279783904,-0.0037052842587232,0.0278484430164098,-0.0572650171816349,-0.2253765016794204
0.1992893066406296,0.0156393032836727,0.0484385983459651,-0.059116790357232,0.0309534203261137,-0.0617729537189006,-0.2302921563386917
0.2092531738281238,0.0456583017113618,0.0354378086060285,-0.0466892704606056,0.0344367884099483,-0.0595383122563362,-0.2335517555475235
0.21921826171875125,0.0678204674251377,0.0529503766819834,-0.0352682972580194,0.04164569824934,-0.0568570420145988,-0.2358958572149276
0.22918237304687494,0.0715016584222204,0.0718102677136659,-0.03966857804358,0.0457571223378181,-0.0575184188783168,-0.2352345436811447
0.23914721679688,0.083294990334846,0.0053491059429943,-0.034737551382184,0.0489656999707222,-0.0587922111153602,-0.2352425307035446
0.2491113281250037,0.0974447309141978,-0.0405010833449661,0.0028249942928552,0.0448814034461975,-0.0592500381171703,-0.2383095473051071
0.25907617187500165,0.0871182201511226,-0.0503797955416142,0.0268237095177173,0.042166844010353,-0.0625049546360969,-0.238800898194313
0.26904028320312534,0.0912204678381793,-0.0452927015356719,0.0657271484076976,0.0246336013078689,-0.0563249923288822,-0.2379778176546096
0.2790053710937528,0.089188085227739,-0.040775516372174,0.1230722529172897,0.0115612084046006,-0.0509038604795932,-0.2404705435037613
0.2889692382812541,0.0891921586146578,-0.0572317072629928,0.1721130549401044,0.0023961933329701,-0.0334676131606102,-0.2387250363826751
0.2989331054687554,0.1030928198037669,-0.0452051693826913,0.1547439869880676,-0.0088117206469178,-0.0298688821494579,-0.2332490384578704
0.30889819335937574,0.1394523828972131,-0.0255643571063876,0.0917635069400072,-0.0103248246014118,-0.0280072819441556,-0.2260091453790664
0.31886230468749943,0.1767980344185605,-0.0408931514024734,0.0275882641494274,-0.0115565359592437,-0.0378428697586059,-0.216531217098236
0.3288271484375045,0.2148618441466241,-0.0926475962981581,-0.0058721069037914,-0.0095232482999563,-0.0409500151872634,-0.205716922879219
0.3387912597656282,0.2210497024687007,-0.1402373227298259,0.0190478148192167,-0.0032171495258808,-0.0394594445824623,-0.1902013421058654
0.3487563476562485,0.2248560176827944,-0.1567320920653641,0.024349428358674,0.0043116742745041,-0.0368348471820354,-0.1809178739786148
0.3587204589843793,0.2091426445159129,-0.1474981075130403,0.0387561393737792,0.0135097000747919,-0.0344678312540054,-0.1663099080324173
0.36868408203125114,0.2099364069757983,-0.1160949612505733,0.0343786549419164,0.012682962231338,-0.0307389181107282,-0.1562243998050689
0.37864965820313046,0.2184281765923835,-0.0912256006710231,0.0353033685714006,0.017627652734518,-0.0268211439251899,-0.1448172777891159
0.38861376953125415,0.219169332082197,-0.0956602221176028,0.0573562104254961,0.0222990252077579,-0.0164582878351211,-0.1307864487171173
0.3985786132812521,0.2224421614740975,-0.0693041301116347,0.0399953257799148,0.0344473049044609,-0.019705481827259,-0.1231735423207283
0.4085424804687534,0.2179654179188422,-0.0446418364115059,0.0091144498258829,0.041920531541109,-0.018524432554841,-0.1163304150104522
0.41850756835937375,0.2194801515970379,-0.0166791859917342,-0.0381312854737043,0.0528402924537658,-0.0244590211659669,-0.10419812053442
0.42847143554687506,0.2172086630010977,0.0058988487802445,-0.0638403117477893,0.0544515885412693,-0.0242655090987682,-0.0973064377903938
0.4384367675781249,0.2033912048497237,0.0207629481740295,-0.014940379500389,0.0574188828468322,-0.0197418630123138,-0.0925050303339958
0.4484008789062486,0.1771679454431869,0.0218311619274318,0.038622283861041,0.0525107607245445,-0.0119982734322547,-0.0880369767546653
0.4583647460937499,0.1505810586223378,0.0155528123103082,0.0683370386451482,0.0479828491806983,-0.0059837903827428,-0.086502194404602
0.46832958984375495,0.1377945692202076,-0.0089918463595211,0.071216977995634,0.0431053563952446,-0.0078033609315752,-0.0836950168013572
0.47829370117187864,0.1333859407314099,-0.0366826941005885,0.0623562106698751,0.0397556312382221,-0.0075391754508018,-0.082748532295227
0.488258789062499,0.1154518775740638,-0.0469593195736408,0.0695154347747564,0.0303731486201286,-0.006512610707432,-0.0814611613750457
0.4982224121093779,0.100057251500152,-0.0401890947863459,0.0858306097596883,0.0232902057468891,-0.0003591103013604,-0.0783194303512573
0.5081875000000053,0.1013179738846607,-0.0236728442713618,0.0951630862504243,0.0109087564051151,0.0023846726398915,-0.0742196515202522
0.518151611328129,0.1194723652618005,-0.012409691978991,0.0551905568242073,0.0050207739695906,-0.0029184801969677,-0.0707631334662437
0.5281166992187494,0.1360405103608034,-0.0025647359214723,0.0335001185417175,-0.0041081393137574,-0.0056243129074573,-0.0688988640904426
0.5380805664062507,0.1420490665932186,0.0045253684699535,0.0694680885016918,-0.0117290411144495,-0.0004372736439108,-0.0606015212833881
0.5480446777343744,0.1636417801222764,-0.0057280222579836,0.1158119065254926,-0.0237262528389692,0.0068358527496457,-0.0541663281619548
0.5580095214843794,0.1648017272797413,-0.0510543338023126,0.1234264731824398,-0.0364819951355457,0.0108337895944714,-0.0467574149370193
0.5679733886718736,0.1577977302691899,-0.1096741344228386,0.1150099424928426,-0.0404773317277431,0.0155970863997936,-0.0361883267760276
0.5779384765625011,0.14435427479567,-0.1307696755520999,0.1032493620723485,-0.0350279733538627,0.0085799228399991,-0.0258837547153234
0.5879025878906248,0.1263928852399811,-0.114981300920248,0.0842009627312421,-0.0306880250573158,0.0036192832048982,-0.0165767911821603
0.5978676757812522,0.1366164836178533,-0.1142236144207417,0.0857879396617412,-0.030139148235321,0.0064704632386565,-0.0087058190256357
0.6078317871093759,0.1555894979014992,-0.0959450304083526,0.0610275924146175,-0.031482707709074,0.015724278986454,-0.0012384029105305
0.6177966308593739,0.1810708528995513,-0.0828935333944857,0.0356488210082054,-0.0292773433029651,0.017039880156517,0.0063140555284917
0.6277604980468752,0.1828215872907079,-0.0523027264282107,-0.0354027372926473,-0.0308937542140483,0.0140562793239951,0.0164544396102428
0.6377246093749989,0.1769696098594926,-0.0334399127870798,-0.0578659135133028,-0.0257842130959033,0.0117968535050749,0.0258154515177011
0.6476896972656263,0.1810925350083969,-0.0480824783846735,-0.0293657952159643,-0.0235362332314252,0.0102809844538569,0.0348016731441021
0.6576535644531276,0.1404340508783236,-0.0767749043837189,0.0389800112575292,-0.020384382456541,0.0137542784214019,0.0441549606621265
0.6676186523437551,0.1269448565669357,-0.0921697496533393,0.0887590644270181,-0.018583919852972,0.0248850435018539,0.0497300326824188
0.6775827636718788,0.1360326741142198,-0.0596292699240148,0.0859171189993619,-0.0185274593532085,0.027306655421853,0.0556028336286544
0.6875478515624991,0.1602415249584242,-0.0354699573099613,0.0344482130467891,-0.0163465328514575,0.0233905110508203,0.0578326322138309
0.697511474609378,0.1760597284729592,-0.0157237849630415,-0.0169569800198078,-0.0123877450823783,0.0212637092918157,0.0682876706123352
0.7074765625000055,0.1968174342162907,-0.0096481183111667,-0.074531217110157,-0.0089578963816165,0.0139514496549963,0.064634196460247
0.7174406738281291,0.1796675985055044,-0.041716450484097,-0.059407882258296,-0.0072071338072419,0.0137248151004314,0.0713299140334129
0.7274047851562528,0.1659930194235406,-0.0819639974594116,0.0022486557096242,0.002302099019289,0.0191501416265964,0.0791961550712585
0.7373693847656284,0.1495012274963781,-0.1042144077122211,0.0168429982513189,0.009875064715743,0.0180902034044265,0.0858263596892356
0.7473334960937521,0.1278643460320308,-0.0783579357914626,-0.0035141456007957,0.0128080258145928,0.0152341146022081,0.0941715091466903
0.7572985839843795,0.1352063976242206,-0.0603648907221853,0.0012286650121212,0.0124551570042967,0.0188051462173461,0.099744439125061
0.7672626953125103,0.1227187998371198,-0.0585410362958908,0.0451712671130895,0.0123132383450865,0.0224270597100257,0.0985655114054679
0.7772275390625012,0.1106320379358716,-0.0475892880402505,0.0829202752709388,0.0029178718104958,0.0302285235375165,0.1027757003903389
0.7871916503906249,0.1178626285102218,-0.026194910094887,0.1132780041337013,0.0015432480722665,0.0361346676945686,0.1036745980381965
0.79715649414063,0.1525873204108327,-0.0363794733703136,0.1010457145482301,-0.0021327133290469,0.0413360893726348,0.1086206212639808
0.8071206054687536,0.1617450065902434,-0.0601556318856775,0.065562313234806,-0.0070488383062183,0.0456712134182453,0.108345627784729
0.817084472656255,0.1309115682408213,-0.0763492263175547,0.0743716426342725,-0.0078800106421113,0.0501277483999729,0.1119720563292503
0.8270495605468753,0.1286101228980347,-0.0977379051744937,0.0281336230725049,-0.0072198808193206,0.0478788092732429,0.1159060597419738
0.837013671874999,0.1331383043795824,-0.092332538999617,-0.0124918173044919,-0.0085075190290808,0.0477930568158626,0.1184983775019645
0.8469787597656264,0.1390038719447329,-0.0803821350954473,-0.0250812497645616,-0.0156885683536529,0.0432210229337215,0.1227456778287887
0.8569426269531277,0.1256047305369749,-0.0208940272077918,0.0193944362998008,-0.0139963962137699,0.0453805811703205,0.1261324286460876
0.8669074707031257,0.1155562147313728,0.0956334802411496,0.0523942041039466,-0.0192591995000839,0.0531614683568477,0.1240681633353233
0.8768715820312494,0.1133376618990674,0.1472517315365374,0.0336637846708297,-0.0208461768925189,0.0598534606397151,0.1250122636556625
0.8868366699218768,0.1229574674312025,0.0969995078973472,0.0043745618224143,-0.0106156794354319,0.056673627346754,0.1290238052606582
0.8968002929687486,0.1487153012830764,-0.0109131698109209,-0.0850894360035657,0.0067806215956807,0.0456385537981987,0.1386322230100631
0.9067646484375018,0.1645867876211181,-0.07970102096349,-0.1327963590741157,0.0175808817148208,0.0318724475800991,0.1453112065792083
0.9167297363281293,0.1586947339078411,-0.1150434063710272,-0.0663379737824201,0.0226424857974052,0.0298859942704439,0.1530048102140426
0.926693847656253,0.1333995856642723,-0.1176363454736769,0.0506990906238555,0.0204536262899637,0.0342017784714698,0.1580202281475067
0.9366584472656285,0.0933633068194612,-0.0790478177517652,0.1153676698893308,0.0185824893414974,0.044308740645647,0.1635433584451675
0.9466225585937522,0.0647796384245157,-0.0380303093172609,0.1101572417646646,0.0051527312025427,0.0508377626538276,0.1659143418073654
0.9565876464843797,0.0932391689831391,-0.054852557041496,0.0965636006981134,-0.0045286579988896,0.0496172383427619,0.171769306063652
0.9665515136718739,0.1091567229526117,-0.1019771501794457,0.0848603034228086,-0.0065543260425329,0.0494768545031547,0.180332601070404
0.9765168457031237,0.1083028095370158,-0.1255441959887742,0.0536684618234634,0.0004982566460967,0.0452999509871006,0.1809240877628326
0.986480712890625,0.0898184372868388,-0.0860850229121744,-0.0219499660015106,0.0048512304201722,0.0414799302816391,0.1887693554162979
0.9964448242187487,0.0819580791752785,-0.01676160357818,-0.046996144452691,0.0011904491111636,0.0391075871884822,0.1895925402641296
1.0064096679687538,0.0819966576199978,0.0217594118654727,-0.0043055882394313,-0.0020533511415123,0.0434988439083099,0.1885599344968795
1.016373535156255,0.0669014894166961,0.0514447944246232,0.0270353064417839,0.0070008635520935,0.0514824613928794,0.1935509592294693
1.026338378906253,0.0633570948081091,0.0611230156131088,-0.0134013333648443,0.0051755355671048,0.0538067407906055,0.1951199173927307
1.0363024902343767,0.058326261034049,0.004592442356795,-0.0179869075894355,0.0007379101589322,0.0554389916360378,0.192670077085495
1.0462678222656265,0.0585065860370174,-0.058339083983004,0.0438829808682203,0.0038976203650236,0.0591246075928211,0.1963191777467727
1.0562316894531278,0.0503009581517428,-0.0936117651551961,0.0651250908613205,0.0052417181432247,0.0609145164489746,0.197229191660881
1.0661965332031258,0.0541417053584009,-0.100326898754388,0.0311690452456474,0.00318418815732,0.0562826283276081,0.1982554495334625
1.0761606445312495,0.0530325750727206,-0.0762352445490658,0.0292547360569238,0.0007865438237786,0.0532623380422592,0.2027918845415115
1.0861247558593803,0.0620982173208147,-0.0443396385945379,0.0548924506604671,-0.009810340590775,0.0572034642100334,0.1984288096427917
1.0960893554687487,0.0492521066859364,0.0300499780878424,0.0629261195123195,-0.0179039537906646,0.0608669146895408,0.1979294568300247
1.1060534667968795,0.045373840480484,0.0936728476926684,0.0431751248598098,-0.0248146560043096,0.0661900043487548,0.2018486261367797
1.1160185546874999,0.0900127177499234,0.0565495702177286,0.0261105928122997,-0.0319913402199745,0.066027283668518,0.2052031457424163
1.1259826660156236,0.1204508183725178,-0.0407258320115506,0.0346738384962081,-0.030090432614088,0.065625250339508,0.2058997303247451
1.135947753906251,0.1189497661598026,-0.0861782541535794,0.0457791698783636,-0.0200894623994827,0.0640055164694786,0.2050842642784118
1.1459116210937523,0.0875497617024928,-0.1054220299363136,0.0465665208637714,-0.0145110860466957,0.0654994845390319,0.2117416858673095
1.1558767089843798,0.1017001598689705,-0.1053174005180597,0.0386199457734823,-0.0185622870922088,0.0675149634480476,0.2168648093938827
1.165840576171874,0.1178125422907993,-0.0865859581716358,0.0339537075281143,-0.013171749189496,0.0658362582325935,0.220504343509674
1.1758044433593753,0.1103585364904254,-0.0273274212561547,0.035187048715353,0.002206408418715,0.0664945915341377,0.2270554453134536
1.1857695312500027,0.1096173627343028,0.0022723288461565,-0.0032815058887004,0.0046417023986577,0.0594516396522522,0.2340711802244186
1.1957336425781264,0.1279851959327235,-0.030173896728456,-0.0233621708869934,0.007998083718121,0.0566670410335063,0.2412340193986892
1.2056987304687539,0.1310731154780834,-0.0975762848719954,0.0111292967796325,0.0082109710201621,0.0566159598529338,0.2436743378639221
1.2156625976562552,0.1288261037362739,-0.11790084162876,0.0241910229265689,0.0078024426475167,0.0640056952834129,0.2486030608415603
1.2256274414062531,0.0865093858040869,-0.0724593792721629,-0.006008885025978,0.0094348276033997,0.0566538423299789,0.2522367238998413
1.2355915527343768,0.0574226632578298,-0.0297838744975626,-0.0098012630462646,0.0045615099370479,0.0562844611704349,0.2569305300712585
1.2455566406250043,0.0390690777804702,0.0255684487596154,0.0295820683151483,0.0017644288018345,0.0579070076346397,0.2590869665145874
1.255520751953128,0.0203452342186123,0.0523065258204936,0.0491910241484642,0.0048624835908412,0.0697668641805648,0.254187524318695
1.2654853515625035,0.0202112691080197,0.0641696898326277,0.0135889648914337,0.0012465417385101,0.0654046535491943,0.2576161026954651
1.2754497070312496,0.0718300683926791,0.071049220213294,-0.0374298592060804,0.0028140787035226,0.060490321367979,0.2544738352298736
1.2854138183593804,0.0736142483957111,0.0443267791129648,-0.03610650164783,0.0080637652426958,0.0527015440165996,0.2519003450870514
1.2953786621093784,0.0682790248475968,-0.0034421032778918,-0.0405459453999996,0.0101365037262439,0.0515963323414325,0.2491234689950943
1.3053425292968797,0.039935777612403,-0.0280132115632295,-0.0387263287574052,0.0112574268132448,0.0463395155966281,0.2492939084768295
1.3153076171875,0.0088315412312746,-0.0193706170327961,-0.0288894098758697,0.0056195156648755,0.0441764965653419,0.2487756609916687
1.3252717285156237,-0.0250618144117295,-0.0259885738678276,0.0451683445036411,-0.0036840047687292,0.0496635288000106,0.2478240579366684
1.3352365722656288,-0.0539583116155117,-0.0420038891233503,0.142490070092678,-0.0155020486563444,0.0572902858257293,0.2487513720989227
1.34520043945313,-0.051047904061526,-0.0443362775936722,0.1502478446125984,-0.024042772129178,0.0597501322627067,0.2506057620048523
1.3551655273437504,-0.0337024361807853,-0.0536539949066936,0.0785492205798625,-0.0302274320274591,0.0485262386500835,0.2528638839721679
1.365129638671874,-0.0239920297557488,-0.0488695371091365,0.0417886389374732,-0.0404392667114734,0.0495241284370422,0.2503910064697265
1.3750893554687522,-0.0093945088762789,-0.0514889258272945,0.082455580368638,-0.041238747537136,0.0596414804458618,0.2493944615125656
1.385054687500002,-0.0122333124987781,-0.0521757390476763,0.1133744502454996,-0.0375807508826255,0.0642975717782974,0.2475666403770446
1.3950185546875105,-0.0137793728969991,-0.0288122529864311,0.0281827229112386,-0.0291252117604017,0.0599496997892856,0.2482343018054962
1.4049833984375013,-0.0162585128942504,-0.0360679232031106,-0.0421346758961677,-0.018423069268465,0.0527522265911102,0.2457236796617508
1.414947509765625,-0.0114416506644338,-0.0590313040308654,-0.0593412467628717,-0.0130195152014493,0.0504169017076492,0.2487402409315109
1.4249125976562524,-0.0288383372757583,-0.0716948246404528,-0.0360948112100362,-0.0072195501998066,0.0506641082465648,0.2527729272842407
1.4348762207031243,-0.0025780337944626,-0.0499815900042653,-0.0367699339926242,-0.0025449036620557,0.048122651875019,0.2507736980915069
1.444841552734374,0.0091612115770578,-0.0351546077504754,-0.0551636688172817,0.0002795485779643,0.0446217469871044,0.2461961805820465
1.4548056640625049,-0.0025686814442276,-0.0037923780202865,-0.0360918886005878,0.0057203872129321,0.0468739829957485,0.244179368019104
1.46477050781251,-0.0003191124191507,0.0071846508070826,-0.0243418295741081,0.012592070735991,0.0494903698563575,0.2408209145069122
1.4747343750000041,0.0183169797940179,0.0189428931400179,-0.0535714311897754,0.016892809420824,0.0484003387391567,0.236534297466278
1.4846984863281278,0.027634916302748,0.018323592197895,-0.0462543861746788,0.0217213220894336,0.046548742800951,0.2374292761087417
1.4946635742187553,0.0678068407585844,0.0100863635979592,-0.0355348392397165,0.02224862575531,0.0477495603263378,0.2309194505214691
1.5046274414062495,0.0799967159744352,0.0064443538337945,0.0014841010779142,0.0234434213489294,0.0499100983142852,0.2302454710006714
1.5145922851562545,0.0856153961064293,-0.0266569746486842,0.0137198977947235,0.0287180785089731,0.0574718751013278,0.2218751609325409
1.5245563964843782,0.1039777494121342,-0.0473338519744575,0.0174304427504539,0.0343015752732753,0.0512579977512359,0.2218459695577621
1.5345214843749986,0.1196515577536076,-0.0406952907428145,0.0263256968677043,0.0366661958396434,0.0507338903844356,0.2225575596094131
1.5444855957031294,0.1248923079513013,-0.0421833373434841,0.0504641128242015,0.0383211001753807,0.0486969985067844,0.2172216176986694
1.5544504394531273,0.11568276372049,-0.0422726230621337,0.0875929432570934,0.0384262949228286,0.0557961873710155,0.2194685339927673
1.564414550781251,0.0884814895946532,-0.0130750240199267,0.0989753380149602,0.0354863703250885,0.0577434487640857,0.216796725988388
1.5743784179687523,0.0704916959283873,0.0134144851073622,0.0981967548578977,0.0268686488270759,0.0603008829057216,0.2161732912063598
1.5843435058593798,0.0635534576304256,0.0258317758709192,0.1041682304829359,0.0221857763826847,0.0685669556260109,0.2200003117322921
1.594307373046874,0.0753999627687037,0.0286085471078753,0.0859679724037647,0.0188970379531383,0.0748464241623878,0.2328548580408096
1.6042724609375014,0.0945825098834931,0.016514496949315,0.0089414313465356,0.0234128478914499,0.0686579570174217,0.2460026741027832
1.6142365722656251,0.1270372475581243,-0.0130143798738718,-0.0814437729775905,0.0242275074124336,0.0519136004149913,0.2595874667167663
1.6242016601562526,0.1163162027858197,-0.0818716430008411,-0.0959212111413478,0.0239120796322822,0.0418505370616912,0.2679125964641571
1.6341652832031244,0.0947574645915999,-0.1031209133870899,-0.0130757546722888,0.0203381180763244,0.0464341044425964,0.2739052176475525
1.6441303710937518,0.0563644594417884,-0.0591615062817931,0.076224577024579,0.0178920291364192,0.0566798411309719,0.2862653732299804
1.6540944824218755,0.0440690780248492,-0.0231372760899364,0.0852618699610233,0.0101952264085412,0.063203252851963,0.2939491271972656
1.6640593261718735,0.0367484162805601,0.0100320030622184,0.0396773458719253,0.0048964945599436,0.0606085546314716,0.2991575598716736
1.6740231933593748,0.0312782777737826,0.0236534089185297,0.0219487969577312,-0.0017494242638349,0.0610586293041706,0.3024830520153045
1.6839885253906246,0.0384069606099277,0.0018545418255031,0.0202577751308679,0.0007320903241634,0.0630746856331825,0.3076802492141723
1.6939526367187554,0.0551689295142889,-0.0395319460518658,0.0181628486782312,-0.0035537350922822,0.057546492666006,0.3098115622997284
1.7039165039062496,0.0403704792352393,-0.0610217471957206,0.0342962373554706,-0.0068705650046467,0.0586375184357166,0.3108493685722351
1.7138813476562547,0.0123341059921309,-0.0558010899379849,0.0828209065496921,-0.0133585575968027,0.0707245469093322,0.3105588257312774
1.7238454589843784,-0.0038546296015381,-0.0048779812999069,0.1001531496226787,-0.0167493298649787,0.065880075097084,0.314943790435791
1.7338103027343763,-0.0080814900489524,0.0139269646741449,0.0483610030651092,-0.0248906128108501,0.0587702319025993,0.3183089792728424
1.7437744140625,-0.0107131171941757,-0.0440241429045796,0.052022448182106,-0.0324968211352825,0.060778297483921,0.3157819807529449
1.7537397460937498,-0.028405352685973,-0.1231516017638146,0.0844885475009679,-0.035842016339302,0.0653168559074401,0.312044233083725
1.7637036132812511,-0.055260480255261,-0.0965535176955163,0.0854132611304521,-0.0370390713214874,0.0668473914265632,0.3097509741783142
1.773668457031249,-0.0675515142906457,-0.0489516624346375,0.031128713235259,-0.0326533764600753,0.051990944892168,0.310110479593277
1.7836325683593799,-0.0694043756157159,-0.0227649356462061,0.0525187072664499,-0.0350713990628719,0.0510397367179393,0.3068526685237884
1.7935974121093778,-0.0728468259534798,-0.0117770931638777,0.0629553456068039,-0.031124860048294,0.058955181390047,0.3056694269180298
1.8035612792968791,-0.0648550417482852,0.0205908064775168,0.0264338334172964,-0.0336897373199462,0.0554223582148551,0.2959046363830566
1.8135263671874995,-0.0577158923170529,-0.0039946225941181,-0.0064689037531614,-0.0333872027695179,0.0501066893339157,0.2858844697475433
1.8234907226562527,-0.0877825658113695,-0.0266476222984492,-0.0007248071432113,-0.0354772098362445,0.0497041977941989,0.2764192521572113
1.8334555664062506,-0.0964214157484471,0.0020566402688622,0.0126660048276185,-0.0338084734976291,0.052369225770235,0.2603880763053894
1.843419433593752,-0.1260643474053591,0.0616962854564189,0.00656476534307,-0.0358757637441158,0.0511554963886737,0.2444958984851837
1.8533835449218756,-0.1487494227483868,0.0572488045282661,0.0294499663680791,-0.0306114926934242,0.0551020354032516,0.2348171770572662
1.8633483886718736,-0.1561867879412136,0.039468963818252,0.0338315424531698,-0.0253783538937568,0.0625084713101387,0.2241575121879577
1.8733122558593749,-0.1465846824625506,0.0641278965175151,-0.0281049814999103,-0.0207708217203617,0.0568050444126129,0.2139182090759277
1.8832773437500023,-0.1122687722922302,0.086030808506906,-0.1081762970805168,-0.0187922418117523,0.0410350784659385,0.2062372416257858
1.893241455078126,-0.0905735665030777,0.0713306675031781,-0.078397244888544,-0.0159980524331331,0.0327140279114246,0.1977691799402237
1.9032065429687535,-0.097341179208178,0.0327134982086718,0.0100321491926908,-0.0180122628808021,0.0352977588772773,0.1861426532268524
1.9131706542968772,-0.1299793471583165,0.0099934246174991,0.084137834367156,-0.0215848926454782,0.0424992144107818,0.170273408293724
1.9231354980468751,-0.1699133346724324,-0.0086586688823997,0.1184475157260894,-0.0294149462133646,0.0407964996993541,0.1592659056186676
1.9330993652343764,-0.1834133791713975,-0.0038918928720057,0.1543687239348888,-0.0351324900984764,0.0463486574590206,0.146435871720314
1.9430644531250039,-0.1846547392683103,0.00967003788203,0.1594751071631908,-0.0332002863287925,0.0578783117234706,0.1363759636878967
1.9530285644531276,-0.1635737563873641,0.0272650235444307,0.0925426746189594,-0.0294947661459445,0.0593683496117591,0.128206193447113
1.9629934082031255,-0.1298448705910705,0.035804303830862,0.0025865093618631,-0.0228157211095094,0.0533801466226577,0.1210034042596817
1.9729575195312492,-0.1062779343795962,0.0350504167236387,-0.0387146383196115,-0.0116533478721976,0.0464423447847366,0.1154262125492096
1.9829226074218766,-0.0764730353603139,0.0495060814470052,-0.0569862080693244,0.0007783584296703,0.0450557023286819,0.1087789312005043
1.992886474609378,-0.0749463007170706,0.0398339977383613,-0.0937894598096609,0.0148102883249521,0.0436279848217964,0.1017202213406562
2.0028503417968793,-0.0764242277825251,-0.0040073359452188,-0.0973725789934396,0.0269304886460304,0.0364807806909084,0.0960818380117416
2.0128154296874996,-0.0885841462515294,-0.0500834429435431,-0.0727057552486658,0.0413320660591125,0.0379460491240024,0.0901072993874549
2.0227795410156304,-0.1128643818315118,-0.0588275981523096,-0.0470569347292184,0.0477727577090263,0.042739387601614,0.0859421044588089
2.0327443847656284,-0.0958613707128912,-0.0437878499306738,-0.0396194782048463,0.048164777457714,0.0385475717484951,0.0775379687547683
2.0427082519531297,-0.0858153391253203,-0.0237821498647332,-0.0131803840905427,0.0504504889249801,0.0353144705295562,0.0697014108300209
2.0526735839843795,-0.0704926092438399,-0.0053698564700782,-0.0047539165288209,0.0526936687529087,0.0359722711145877,0.0634248778223991
2.0626374511718737,-0.0538463756736367,0.0446858216837048,-0.028439328020811,0.0565116703510284,0.0296266451478004,0.062597282230854
2.072602539062501,-0.0251737503536045,0.0281577346004545,-0.0631903234064579,0.0535238683223724,0.0275986474007368,0.052318550646305
2.0825664062500024,-0.010804375674203,-0.0362049935862422,-0.0161953479975461,0.0524241477251052,0.0314016230404377,0.0472534447908401
2.0925312500000004,-0.007765994358994,-0.0739578011363744,0.0283639246970415,0.055179189890623,0.0306982826441526,0.0444246344268322
2.102495361328124,-0.0307044599412009,-0.0915321824021637,0.0406686949968338,0.048175074160099,0.0335318855941295,0.0386061631143093
2.112460693359374,-0.0352687721820548,-0.070508245204389,0.0424842199862003,0.0413134805858135,0.0370023660361766,0.0359635241329669
2.1224245605468752,-0.0451223499374464,-0.044832828938961,0.0562134701311588,0.0297743789851665,0.0418615154922008,0.029239697381854
2.1323894042968803,-0.0538743231264874,-0.0238499544039368,0.0639478637754917,0.0249125137925148,0.0433297157287597,0.0267720129340887
2.142353515625004,-0.0475677337955683,-0.0380390771456062,0.0097626846015453,0.0260238274931907,0.0443233512341976,0.0268267765641212
2.1523176269531277,-0.0359275283517315,-0.0603355184972286,-0.0558832152634859,0.0352109335362911,0.0330539159476757,0.0269194543361663
2.1622824707031256,-0.0236204930296167,-0.0867034470714628,-0.1071966383934021,0.0436836257576942,0.0240644607692956,0.032147143036127
2.172246337890627,-0.0262235516674816,-0.0825534877851605,-0.0970873323112726,0.0554409474134445,0.0136416489258408,0.0319031998515129
2.1822114257812544,-0.0413927349550649,-0.017228782698512,-0.0733721102029085,0.0600764527916908,0.010877919383347,0.0318470560014247
2.192175537109378,-0.0653860433524474,0.0727145230770111,-0.0478735118091106,0.0583573803305625,0.0092784250155091,0.0371358282864093
2.2021406250000055,-0.0501980457665398,0.1118259056292474,-0.0014086977541446,0.0583028867840766,0.0148908533155918,0.034307487308979
2.2121044921874997,-0.0309672755958512,0.0489503472603857,0.0279921687752008,0.0574538707733154,0.0213855039328336,0.0308642890304327
2.2220693359375048,-0.0630982977414503,-0.0270487504452466,0.0446042808800935,0.0619826205074787,0.0213608779013156,0.0302026458084583
2.2320334472656285,-0.05286116402857,-0.0644628275603056,0.0186187757521867,0.0651504546403884,0.0168883651494979,0.0328751280903816
2.241998535156249,-0.0302878054317086,-0.0974992741130292,-0.0147270290106534,0.0650023967027664,0.0092457523569464,0.032850544899702
2.25196240234375,-0.0312475538419559,-0.1052173011444509,-0.0102115974128246,0.0646420717239379,0.0058057475835084,0.0291737876832485
2.2619274902343776,-0.0459381963649764,-0.06624021249637,0.0259931039124727,0.0573121681809425,0.0084947478026151,0.0300703048706054
2.2718916015625013,-0.0525356949338689,0.0071796823710203,0.0506178420811891,0.0430871620774269,0.0143233416602015,0.0277211312204599
2.281856445312499,-0.0442719801858067,0.0395420290544629,0.0646563043057918,0.0278906002640724,0.0210301987826824,0.0273914225399494
2.2918203125000005,-0.0253306944809854,-0.0079037588618695,0.0506032290339469,0.0270626209676265,0.0192152522504329,0.0245122797787189
2.301784423828124,0.0029163258381187,-0.0712349520437419,0.0135170686990022,0.0269716307520866,0.0160677190870046,0.0283467713743448
2.3117495117187516,-0.0039484453648328,-0.1146338026568293,-0.009675590839982,0.0323224514722824,0.0067338719964027,0.0278697982430458
2.3217136230468753,-0.0012671703916043,-0.1404816528797149,0.0246352595627307,0.0339256003499031,0.0089088454842567,0.0329868607223033
2.331678222656251,-0.0026040084859356,-0.1301842768795788,0.07003098308146,0.0324675217270851,0.010749090462923,0.0355490855872631
2.341642578125004,-0.0090115374406799,-0.1445297592267393,0.1009708957463502,0.0281639751046895,0.0099301077425479,0.0374610982835292
2.351607421875002,0.0060832289038226,-0.1334369950652122,0.0898264013975858,0.0242339465767145,0.0126084499061107,0.0407234728336334
2.3615715332031257,0.0160341660864651,-0.1100280624270439,0.0826075560599565,0.0263622254133224,0.0099549358710646,0.0424136482179164
2.371536621093753,0.0052132411362603,-0.064223173585534,0.0949655178517103,0.0357749015092849,0.0107155349105596,0.0441902428865432
2.3815012207031288,0.0034440395066514,-0.0476402875751256,0.0965063175529241,0.0439587160944938,0.0137702524662017,0.0477411486208438
2.391466308593749,0.0252828002186492,-0.0411328053772449,0.0578588992506265,0.0504509732127189,0.0163809489458799,0.0507686324417591
2.40143041992188,0.0578746448090299,-0.0270659938409924,0.0102478377699851,0.0549344941973686,0.0135599188506603,0.0465814135968685
2.411395263671878,0.0532114753035828,0.011695406229794,-0.0014431845456361,0.0533088967204093,0.0084546385332942,0.0459209494292736
2.4213593750000015,0.054330615526624,0.0347732072174549,0.0064501990526914,0.0554262138903141,0.0118769835680723,0.0450663305819034
2.431324462890629,0.0209042198082432,0.0571373069778084,0.0174351189255714,0.0568552650511264,0.010815180838108,0.0376456975936889
2.4412883300781303,-0.0209427982529625,0.0604062456458806,0.0158949037462472,0.0645215511322021,0.0114802150055766,0.0375681072473526
2.451252441406254,-0.0237707151552662,0.0443847929105162,-0.0016278934627771,0.0641279369592666,0.0100919092074036,0.0246632304042577
2.461217285156252,-0.0759301606552675,0.0984083517819642,-0.0200321496814489,0.0639512911438942,0.0123864598572254,0.0262233708053827
2.4711813964843756,0.0099783001136034,0.0893649213656783,-0.0246218155592679,0.0674450919032096,0.0113864429295063,0.0247935205698013
2.4811462402343736,0.0226562145747244,0.1271454937055706,-0.0774912359595298,0.0639276131987571,-0.0003534434363245,0.0134222730994224
2.4911103515625044,0.009298866482079,0.1005523780733346,-0.093254037758708,0.0586510896682739,-0.0079373270273208,0.0063702231273055
2.501075683593754,0.0223600446397438,0.0215916540831327,-0.0234217921197414,0.0542162917554378,-0.0037939979229122,0.0019847559742629
2.511039306640626,-0.0189249190919101,-0.0192772396609187,-0.010841127488017,0.0547880679368972,-0.0098609449341893,-0.001906388439238
2.5210043945312535,-0.033976832675375,-0.0522056957945227,-0.0312777663171291,0.0510417893528938,-0.0175284780561923,-0.0016282233409583
2.530968505859377,-0.025409239609912,-0.0682277330517768,-0.0185334355562925,0.0457037463784217,-0.0240199323743581,0.0014836802147328
2.540933349609375,-0.0280207007499411,-0.0472375519931316,-0.0093032503962516,0.0471149161458015,-0.027259150519967,0.001954557839781
2.5508972167968764,-0.0362882879555225,-0.0140726567551493,0.0197661922216415,0.048726662993431,-0.0207125674933195,0.0072872713208198
2.5608625488281263,-0.017815533077903,-0.0012260346636176,0.0172843122780323,0.0467628836631774,-0.0171881262212991,0.010446548461914
2.57082666015625,-0.0203196613859385,-0.0094382749527692,0.0478922165095806,0.0445444732904434,-0.0139806140214204,0.0164818037301301
2.580791503906255,-0.0067209057528525,-0.0239162976384162,0.0761725545763969,0.0411001220345497,-0.011161713860929,0.0207332037389278
2.590755371093749,0.0091296108623966,-0.0422135863512754,0.082103113669157,0.0370222888886928,-0.0089552849531173,0.0242043677717447
2.60071948242188,0.0078263097114861,-0.0311579393297433,0.1030395187139511,0.0271065644919872,-0.0053606629371643,0.0189092550426721
2.610684326171878,-0.0118001087132841,-0.0156219320237636,0.1504477510988712,0.0229586903005838,0.0007025557570159,0.017483664676547
2.6206481933593793,-0.0078883055644109,-0.0275283506557345,0.1178045416474342,0.0129174860194325,0.0100875459611415,0.0163181666284799
2.6306132812499996,-0.0003134498633444,-0.0265919465884566,0.0628203210502862,0.0097808139398694,0.0109267085790634,0.0073686139658093
2.6405773925781304,-0.0022795257719233,0.0174576230183243,0.0356219330012798,0.0049772057682275,0.0152416611090302,-0.0003521782346069
2.6505424804687507,-0.000853621154651,0.0492044681519269,0.0510696775019168,0.001710838638246,0.0262423790991306,-0.0084465909749269
2.6605065917968744,-0.0266625641392543,0.0796288325101137,0.0568131895899772,0.0072896284982562,0.0303641539067029,-0.0125382710248231
2.67047119140625,-0.0097772976487874,0.1079410270199179,-0.0255114578753709,0.0102558573707938,0.0254167988896369,-0.0130714364349842
2.6804353027343737,-0.0037265827750787,0.1195464168787002,-0.1131289510518312,0.0150897642597556,0.0076677314937114,-0.0180906448513269
2.690400390625001,-0.0137072940414771,0.1113204403251409,-0.111068511390686,0.0200491026043891,0.0015160957118496,-0.0168461501598358
2.700364501953125,-0.003422046870552,0.1041685227438807,-0.0642249271512031,0.014373293146491,-0.001675029285252,-0.0122978128492832
2.7103281250000038,0.0402391079405322,0.0654395636379718,-0.0507949522137641,0.0121338404715061,-0.0042029018513858,-0.0114277563989162
2.7202934570312536,0.071059266683273,0.0055877370044589,-0.0280687411427497,0.0131675554439425,-0.0108278561383485,-0.012874873355031
2.7302575683593773,0.069113283714652,-0.0370250777974724,0.0245195242285728,0.0083229998126626,-0.0087958630174398,-0.0095709543675184
2.7402224121093752,0.0630400282155722,-0.0284843362063169,0.0541489388167858,0.0042677614837884,-0.007377739995718,-0.0058588315732777
2.7501862792968765,0.0733098220890387,-0.0267450913235545,0.0476683446258306,0.0029492303729057,-0.0097207892686128,-0.0009303861297667
2.760151367187504,0.0976474504120647,-0.0250157833129167,0.0316705650269985,0.0014276662841439,-0.0114666735753417,0.003268364816904
2.7701154785156277,0.1074166012870147,-0.0222413501635193,-0.0012619827598333,0.0025866739451885,-0.0122666871175169,0.0071821464225649
2.7800803222656256,0.0978675594361498,-0.0070201078951358,0.0233259305298328,0.0047361813485622,-0.0114638488739728,0.0079218167811632
2.790044189453127,0.0809538340361788,0.0184331900522112,0.0389484470754861,0.0073689827695488,-0.0034376138355582,0.0079873306676745
2.8000092773437544,0.0501604537025094,0.0558791236102581,0.0301695128142833,0.0124312862753868,0.0022778797429054,0.0077782832086086
2.809973388671878,0.0311391615640372,0.0885515591561794,0.0078290861904621,0.0111228749155998,0.0002376320771872,0.0058983578346669
2.8199384765625055,0.0283934065198525,0.1256301207065582,-0.0193406602859497,0.0082923304289579,0.000787909142673,0.0015678354538977
2.8299023437499997,0.0298514598410576,0.1109244267448782,0.0087865330457687,0.0060174595564603,0.0025410682428628,-0.0047539761289954
2.8398664550781305,0.010850114512071,0.0621007746040821,0.0555921233624219,0.0038551250472664,0.010654310695827,-0.0018659923225641
2.8498312988281285,0.0053257250674068,0.0127671271145343,0.0658925681024789,0.0074533224105834,0.0089477580040693,-0.0017315028235316
2.859795410156252,-0.0068824895227327,0.0099251816868782,-0.0008545710027217,0.0132290991023182,-0.0005791902076452,0.0016842382028698
2.8697604980468796,-0.0083211440237239,0.0356558352708816,-0.0408124873816967,0.0118130957707762,-0.00986616499722,0.0015830378979444
2.879724365234374,-0.0091451006924733,0.0532055204868316,-0.0308604176878929,0.0078766783699393,-0.0142084509134292,-0.0012593539431691
2.8896894531250013,-0.024096439978294,0.0789443573772907,-0.0077408233851194,0.0007079811766743,-0.0153424236923456,-0.005359822884202
2.899653564453125,-0.0320480565698817,0.0659989510864019,0.0294739317655563,-0.0080949934199452,-0.012445124797523,-0.0048041199333965
2.90961840820313,-0.0336060631342232,0.0721694564148783,0.0658142421692609,-0.0202547200024127,-0.0064982865005731,-0.0074076256714761
2.919582275390624,-0.0259852859321981,0.0686062109753489,0.1018570309311151,-0.0338769927620887,0.0021599573083221,-0.0129365883767604
2.9295473632812516,-0.0220108658758923,0.0467012531593441,0.0981862334638833,-0.0414409004151821,0.005556552670896,-0.0189579967409372
2.9395114746093753,-0.0172881482029333,0.0346750075399875,0.0443880077809095,-0.0451069250702858,0.0071129235439002,-0.0197286028414964
2.949476562500003,-0.0003137055916711,-0.0007511106282472,0.0093014968305826,-0.0453287661075592,0.0120003577321767,-0.0225142687559127
2.959440429687504,0.0316476956080645,-0.0370139718815684,-0.03149988463521,-0.0428618341684341,0.0111648328602314,-0.0227889139205217
2.969404541015628,0.0268664892135187,-0.0403051223814487,-0.0705225659906864,-0.0332938954234123,0.0048313033767044,-0.0261301174759864
2.9793693847656257,0.0159978891966864,0.0200298115938901,-0.057902738392353,-0.0193982739001512,-0.0002737306058406,-0.0262620132416486
2.989333251953127,-0.0088907240726053,0.0726852969825267,-0.0714250677883625,-0.0101603008806705,-0.0029603273142129,-0.0262969005852937
2.9992983398437545,-0.0006159034086391,0.0718476771146058,-0.0625683921158313,-0.0033146836794912,-0.0064177592284977,-0.0317329615354537
3.0092622070312487,0.009340477134101,0.0434644631952047,-0.0791641376078128,0.0028518661856651,-0.0065695592202246,-0.0359290353953838
3.0192275390624985,0.0198657801385968,0.0450496865600347,-0.0391349095582962,0.0021463399752974,-0.0091145150363445,-0.0415100641548633
3.0291916503906293,0.0160666435839608,0.0299772051125764,-0.0030915362745523,-0.0017549251206219,-0.0105006918311119,-0.0431881211698055
3.039156250000005,-0.0046937473068013,0.0171036950141191,0.0357376683354377,-0.0030463011935353,-0.0101942904293537,-0.0456410758197307
3.0491203613281286,-0.0030963951127603,-0.0119531803831458,0.0626613310962915,0.0027079908177256,-0.0060637262649834,-0.0512028187513351
3.059085449218749,-0.0224843651391565,-0.0293108501583337,0.0710503892570734,-0.000312773976475,-0.0034825529437512,-0.0544525682926178
3.0690493164062502,-0.0381562007192522,-0.0257961200356483,0.0826204155415296,-0.0027628825046122,0.0037439346779137,-0.0579093508422374
3.0790131835937515,-0.013222761927545,0.0067103112936019,0.072183192679286,-0.0059579112567007,0.0062265181913971,-0.0682003051042556
3.0889785156250014,0.0231502451693639,0.0549774985954165,0.0296738382518291,-0.0087260007858276,0.0012016654945909,-0.0725545734167099
3.098942626953125,0.0520581770826131,0.0921975144430995,0.0111976858407258,-0.0104318549856543,-0.0036816895008087,-0.077459305524826
3.10890747070313,0.0596956131584942,0.0910658800646662,-0.0060983168751001,-0.0187017694115638,-0.0066609680652618,-0.0929879322648048
3.1188713378906243,0.0254143907090649,0.1091559557676315,-0.0209720608800649,-0.0242220032960176,-0.0069150496274232,-0.0993914678692817
3.1288364257812518,0.0176814218368381,0.0971618588522076,0.0319382760524749,-0.0306444820016622,0.0013684469740837,-0.1015667393803596
3.138800292968753,0.0222322900742292,0.0513669068828225,0.0680962156265974,-0.0367467403411865,0.012984000146389,-0.1023307219147682
3.1487653808593805,0.0415107353115454,-0.0185614926069974,0.0723281541079282,-0.0303966999053955,0.0196229945868253,-0.0944304540753364
3.1587292480468747,0.0645859424833208,-0.0790045631319284,0.0293897606134414,-0.0208367146551609,0.0182733200490474,-0.084644965827465
3.1686943359375093,0.075472845341824,-0.1220586919605731,-0.0447270304769277,-0.0050806542858481,0.0102532096207141,-0.0737073570489883
3.178658447265626,0.1065923158247023,-0.1620370666056871,-0.1014203930795192,0.0123271569609642,0.0023196914698928,-0.0636804550886154
3.1886235351562604,0.1190722600283101,-0.1333873107045888,-0.139690794762969,0.0295535456389188,-0.0041866777464747,-0.0549852326512336
3.198587158203125,0.1340578669099137,-0.070761927704513,-0.1323673200070858,0.0434508547186851,-0.0053279097191989,-0.0498557612299919
3.208551269531249,0.1331366969443857,-0.02859977927953,-0.0989566333144903,0.0496240630745887,-0.0030186832882463,-0.0434790886938571
3.2185163574218763,0.1211752601895481,0.0130880296319723,-0.0451063851833343,0.0585176199674606,0.0022223871201276,-0.0454359129071235
3.22848046875,0.0903121390879154,0.0173591310799121,-0.0476905564576387,0.0592638403177261,0.0001895963214337,-0.0388152971863746
3.238445312500005,0.0802211358474567,-0.0064428925290703,-0.0531143350720405,0.0591788813471794,-0.0071777724660933,-0.0384480468928813
3.2484094238281287,0.0669497124725952,-0.0350961555615067,-0.0214034380346536,0.061108611524105,-0.0089240074157714,-0.0388278141617774
3.258374511718749,0.0630570524156093,-0.0232744926035404,0.0261971020519733,0.0566202439367771,-0.0094825346022844,-0.0407611355185508
3.2683383789062503,0.0319584785902872,-0.0037257425248622,0.0689087010532617,0.0427845939993858,-0.0016917234752327,-0.0417081527411937
3.278303466796878,0.0124164139807224,0.0253147662594914,0.1227156945645809,0.0292568691074848,0.0048571564257144,-0.0467186011373996
3.288267333984379,-0.0016399492267519,0.0642541532456874,0.1358575002104043,0.0156214842572808,0.0083983615040779,-0.0470861196517944
3.298232177734377,0.0108933325992897,0.0783604200094938,0.0946305868089199,0.0097925905138254,0.0054012197069823,-0.0480830855667591
3.308196289062508,0.0282141044301912,0.0682335782706737,0.0629091683775186,0.001828140579164,-0.0021677503827959,-0.0526099279522895
3.3181604003906244,0.0248006061922758,0.0478323030158877,0.0654658671230077,0.001731913536787,-0.0085227759554982,-0.0582077875733375
3.328125488281252,0.011266695956327,0.0526429181680083,0.0597866524428129,-0.0015464378520846,-0.0085275694727897,-0.0603995695710182
3.338089355468753,-0.0046146541886031,0.0780561763659119,0.0376835417062044,-0.0124587211757898,-0.0122925881296396,-0.0646342933177948
3.3480544433593735,-0.0023808672545477,0.0975131565079092,0.0712140553861856,-0.0210040062665939,-0.0091726947575807,-0.072703942656517
3.358018310546875,-0.0103932741226628,0.0722691173970699,0.1027887588232755,-0.034081045538187,-0.0041758809238672,-0.0758951604366302
3.36798315429688,-0.016617409334518,0.0274286896735429,0.0959071826159954,-0.0463803224265575,0.003451412776485,-0.0778893381357193
3.3779472656250036,-0.0280091929752379,0.003097673754394,0.0683686028271913,-0.0464973710477352,0.0045750690624117,-0.0770173743367195
3.387912353515624,-0.0375946578463539,-0.0086094229131937,0.0287801042824983,-0.0505989044904708,0.0025856879074126,-0.0676678121089935
3.3978764648437547,-0.009923062795028,-0.0031888591691851,-0.0020101707786321,-0.0449204668402671,-0.0052787503227591,-0.0595724545419216
3.4078410644531303,0.0190393392518162,-0.0081023501738905,-0.0274655145525932,-0.0432959347963333,-0.0099571254104375,-0.0540447942912578
3.417805175781254,0.0139842112867161,-0.0230982592537999,-0.0282066883087158,-0.0366102904081344,-0.0130814956501126,-0.0482056178152561
3.4277692871093777,0.0243859609767794,-0.0416097752392292,-0.0508083962172269,-0.0287579633295536,-0.0189974438399076,-0.0412782058119773
3.437734375000005,0.0445405314614996,-0.0624500264331698,-0.053471477946639,-0.0244557633996009,-0.0215803775936365,-0.0339232236146926
3.4476982421874993,0.0546354802247136,-0.084236618566513,-0.0176268421053886,-0.0224565267562866,-0.0197902005165815,-0.0271497406065464
3.4576633300781268,0.060036572083272,-0.0783268100008368,-0.0027589433193206,-0.0212102681398391,-0.0257065966725349,-0.0239190477877855
3.467627197265628,0.0506266099095344,-0.059394730515778,0.0246557178288698,-0.0225783325731754,-0.027882931753993,-0.0223171561956405
3.4775922851562555,0.0562461668243631,-0.0607411766886711,0.0531342088162899,-0.0208969805389642,-0.0229825321584939,-0.020010070875287
3.4875561523437497,0.0488872188962996,-0.0814855662927031,0.0721188952714204,-0.0188679173588752,-0.0221172720193862,-0.0191685128957033
3.497521240234377,0.0452678593553602,-0.0664881959080696,0.0545686255335807,-0.0175872668623924,-0.0273149982094764,-0.0162636488676071
3.507485351562508,0.0498596806576475,-0.0543430000841617,0.0435129785120487,-0.0214800108224153,-0.03172492608428,-0.0199478659778833
3.517449218750002,0.0514550600903108,-0.0274637609869241,0.0518745641440153,-0.0281489323824644,-0.0359507426619529,-0.0264271441847085
3.5274143066406296,0.0223463814405724,0.0125686819329857,0.0723456897646188,-0.0396103784441947,-0.0368152037262916,-0.0334978401660919
3.537378173828124,-0.002226407345198,0.0564966709867119,0.09256021027565,-0.056069478392601,-0.0311921928077936,-0.0431901812553405
3.547343261718744,-0.0081634692439809,0.0726113549634814,0.1230833588331937,-0.0763372033834457,-0.0217808466404676,-0.0502195954322814
3.557307373046875,-0.0024816607479006,0.0415533688768744,0.1013221934020519,-0.0778445824980735,-0.0146559830754995,-0.0572276636958122
3.5672719726562505,0.008813676781021,-0.0489490320861339,0.0049386254459619,-0.0796616524457931,-0.0264737587422132,-0.0609132125973701
3.5772363281250037,0.0518954608015716,-0.1336412854656577,-0.0984936919778585,-0.0733484327793121,-0.0463658683001995,-0.0616970993578434
3.587201416015624,0.0845524065174162,-0.1163213173523545,-0.1101519810676574,-0.0701808705925941,-0.0496218502521514,-0.0527211800217628
3.597165527343755,0.0779810287704691,-0.059320203974843,-0.0361672919243574,-0.0647878348827362,-0.0442444570362567,-0.0490844957530498
3.6071301269531304,0.0528085205258801,-0.0809539436340332,0.0445516739100217,-0.0715629160404205,-0.034906081855297,-0.0449499376118183
3.617094238281254,0.0503492908054962,-0.1302580727681517,0.0916401728212833,-0.0674774274230003,-0.0265268813818693,-0.0432567223906517
3.627058349609378,0.0516604830019176,-0.1135349015042185,0.0692459701836109,-0.0625457912683487,-0.0227260179817676,-0.0328970253467559
3.6370231933593757,0.0760751220839098,-0.1402519357770681,0.0095569328963756,-0.0545958876609802,-0.021105833351612,-0.0224337447434663
3.646987060546877,0.0933165085356682,-0.1939367642134428,-0.0420528428316116,-0.039572462439537,-0.0163848493248224,-0.0082058068364858
3.656952392578127,0.1123148216573521,-0.1875675214424729,-0.0253776023626327,-0.0247548688203096,-0.0217516347765922,-0.0029474301263689
3.666916259765628,0.0531654807373881,-0.1717924446836113,-0.0620908377319574,-0.0129738431423902,-0.0282188542187213,0.0120719987899065
3.6768813476562485,0.0573279707117006,-0.1959928199604153,-0.032292496317625,0.0085879750549793,-0.0226308442652225,0.0122725581750273
3.68684521484375,0.0064241512959823,-0.0557405919224023,-0.049676177316904,-0.0003778226673603,-0.0267014857381582,0.0210567284375429
3.696810058593755,0.0850289014553651,-0.0373024334341287,-0.0168815766960382,-0.0044946372509002,-0.0201921034604311,0.0160931404680013
3.7067741699218786,0.0771479389471933,0.0343669645041227,0.0466916085481643,-0.0180306863039731,-0.015662332996726,0.0185485742986202
3.7167395019531284,0.099292002748698,-0.0190039756774902,0.0831464852422475,-0.0215448588132858,-0.0047710025683045,0.0131597146391868
3.7267033691406297,0.0657314592566341,-0.0314265271380543,0.0529237809360027,-0.0283348523080348,-0.0048186732456088,0.0067188590764999
3.736667236328124,0.0231213478684425,-0.0481418073564767,0.0233335293143987,-0.0342931374907493,-0.0046161394566297,0.0079242996871471
3.7466323242187443,0.0248435685511678,-0.0492347171597182,0.0640466479748487,-0.028370801359415,0.0012337600346654,0.00598551845178
3.756596435546875,-0.0114002226755023,-0.0331008900910615,0.0191857619851827,-0.0257245581597089,-0.0023314827121794,0.003414538456127
3.7665610351562506,-0.0229319262435659,-0.0269881062991917,0.0009650456398725,-0.0262228362262249,-0.0036518778651952,-0.0024020718410611
3.7765251464843743,-0.041232649022527,0.0247910346463322,0.0225935246020555,-0.0294860415160655,0.0117323892191052,-0.0008251802064478
3.7864902343750018,-0.0236459927970543,0.0363010013066232,0.0357230552881956,-0.0208747088909149,0.0172832161188125,-0.0087297074496746
3.7964543457031255,-0.0351067134881392,0.0077582129113376,-0.057962359625101,-0.0177391692996025,0.0072027179412543,-0.0119431018829345
3.806419433593753,-0.0072595792068168,-0.0391753876991569,-0.115400987637043,-0.0110738109797239,-0.0082457466050982,-0.0074945567175745
3.816383300781254,0.0379585227226838,-0.0551955252602696,-0.0974766238898038,-0.0061640734784305,-0.0166343376040458,-0.0123726911842823
3.826347412109378,0.0456447298437356,-0.0450979096159338,-0.049372225934267,-0.0076666288077831,-0.016940601170063,-0.0158491823822259
3.836312255859376,0.0254968448281288,-0.0632553514666855,0.0334229616522789,-0.0157968271523714,-0.0096694212406873,-0.0184635054320096
3.846276123046877,-0.0027172230694442,-0.0791942404851317,0.1052764839857816,-0.0236203949898481,0.000966178253293,-0.024545632302761
3.8562412109375046,-0.0175139563154429,-0.0662540948912501,0.0860953981757163,-0.0333989150822162,0.0027835532091557,-0.0318982414901256
3.8662053222656283,-0.0236988189628347,-0.0236208218231797,0.0528583144843578,-0.0422288924455642,0.0045670722611248,-0.0370115078985691
3.8761704101562486,-0.016377938022837,0.008007219236344,0.0496750082731246,-0.0538422465324401,0.0032845756504684,-0.0419728830456733
3.88613427734375,0.0110281379600986,0.0348237683609128,0.0561082561910152,-0.0601944178342819,0.0052707614377141,-0.0434173829853534
3.896099121093755,0.0384577409490942,0.0360455652408301,0.0470563502073288,-0.0721511468291282,-1.5983823686e-06,-0.0428381226956844
3.9060632324218787,0.0485821350025013,-0.0278381472572684,0.070864511296153,-0.0776436477899551,0.0017971005290746,-0.0373251102864742
3.916028320312499,0.0532400072783231,-0.0990697383001446,0.11945347789824,-0.0865472555160522,0.0083976797759532,-0.0515659600496292
3.92599243164063,-0.0611168050680309,-0.0641385640420019,0.1483475639492273,-0.0962619334459304,0.0194122474640607,-0.0460255220532417
3.9359560546875088,-0.0372889528980478,-0.074021075630933,0.1729541819393634,-0.0923449248075485,0.0295081697404384,-0.0337816774845123
3.945921142578129,0.0263226646604016,-0.060043842074275,0.0548912816166877,-0.0819266363978385,0.0207852516323328,-0.0281914360821247
3.955885498046875,0.0554905626840889,-0.0565802576169371,-0.0939928734272718,-0.074827954173088,-0.0004756734706461,-0.0148431695997715
3.9658503417968802,0.1003981008270755,-0.1049481288142502,-0.1089566338032484,-0.0629481226205825,-0.0072307819500565,-0.0076973759569227
3.9758142089843744,0.1156232886182144,-0.1504421981409192,-0.0179062435686588,-0.0460348166525363,-4.73868567496e-05,0.0034224679693579
3.985779296875002,0.0940280178058892,-0.1802950462214648,0.0094879593133926,-0.0324289947748184,0.0014868600992485,0.0126087758690118
3.9957434082031256,0.0729987833784893,-0.1665481142893433,-0.0307657251417636,-0.0177333429455757,0.0011084548896178,0.0168935507535934
4.0057082519531235,0.0693761724345386,-0.0962152256518602,-0.0484551110893487,-0.0073504783213138,0.0017071334877982,0.020817719399929
4.015672119140625,0.0627193448938429,-0.0033517946459352,-0.0599649316191673,0.0034212116152048,0.0082558495923876,0.0161384604871273
4.0256362304687485,0.0285574014425277,0.0689719755478203,-0.0626116467356681,0.0158523153513669,0.0100335096940398,0.0150976963341236
4.035601318359376,0.0424377139633521,0.0816761204287409,-0.0765092391848564,0.0293945893645286,0.0115399733185768,0.0170277617871761
4.045565185546877,0.0767198862608522,0.0810169258676469,-0.1055284129202365,0.0435189306735992,0.0027613951824605,0.0162551812827587
4.055530273437505,0.0976523457828909,0.0359999725334346,-0.1092494792699813,0.0570819191634655,-0.0020120344124734,0.0123079102486372
4.065494140624999,0.0917757818996906,-0.026908172930777,-0.0490811340332031,0.0672783702611923,-0.0010197404772043,0.0111259995028376
4.075459228515626,0.0620240195734426,-0.0682739102810621,0.0197498256087303,0.0719889849424362,0.0015676672337576,0.0080262999981641
4.08542333984375,0.0230521916223689,-0.0838587251648306,0.0760918905556201,0.070731446146965,0.0042585250921547,0.0045008077286183
4.095388183593755,0.0089872797822579,-0.0469566892251372,0.1137929679185152,0.0676131770014762,0.0105224307626485,0.0046979384496808
4.105352294921879,0.0219888732397928,-0.0273572318725287,0.1026753615766763,0.0706931203603744,0.0122966291382908,-0.0007303827442228
4.1153164062500025,0.0218720053944736,-0.022760405601561,0.0624976649671792,0.0582498088479042,0.0040818606503307,-0.0023190760985016
4.12528149414063,0.0298590220930054,0.0099554306946694,0.0584334842681884,0.053904328495264,0.0056715016253292,-0.0086331646889448
4.135245117187509,0.0332019393127411,0.0518704724907875,0.0774257695078849,0.0423124805092811,0.0041515496559441,-0.0113271456211805
4.145210205078129,0.0156046155627816,0.0662856590732932,0.0811421596825122,0.0317716896533966,0.0081332419067621,-0.0140723325312137
4.15517431640626,0.0230030552510172,0.0441496689803898,0.0899830532640218,0.023057572543621,0.0107848215848207,-0.014919739216566
4.165139160156251,0.0312754282295703,0.0416936541303992,0.0694523064106702,0.015595662407577,0.006661981344223,-0.0101180598139762
4.175103027343752,0.0466163148222491,-0.0041790392503142,0.052054012364149,-0.0013756724074482,0.0009724971605464,-0.0059609864838421
4.185068359375002,0.0578929841833189,-0.0678529083900153,0.0813894124418497,-0.013237657956779,0.0033533631358295,-0.0061697787605226
4.195032470703126,0.044439116913639,-0.054532677437365,0.1109936925888061,-0.0245915502309799,0.0067528774961829,-0.0061945994384586
4.204997314453124,0.0214877187846228,-0.0136148299850523,0.125574591127038,-0.0324052646756172,0.0108624007552862,-0.0068505364470183
4.214961181640625,-0.0093224665533751,-0.0035794659219682,0.1554302156865596,-0.0382696464657783,0.0105186710134148,-0.0045159985311329
4.224925292968749,0.0001779138501733,0.0028374153830111,0.1433043090850114,-0.0498597212135791,0.0150873241946101,-0.0040440862067043
4.234890136718754,0.027506686813198,0.0311444953262805,0.0821112969756126,-0.0553319528698921,0.0173564851284027,-0.000953612383455
4.244854248046877,0.0474322708476334,0.0312685600973665,0.0357400064229965,-0.0625690966844558,0.018107496201992,0.0021284641698002
4.254819335937505,0.0757628777969628,0.0256453133881092,-0.0086234514385461,-0.0648068413138389,0.0147217391058802,0.0077628185972571
4.264783203124999,0.0921352993944659,0.0109720603913068,-0.0231833071887493,-0.0597425773739814,0.0115381963551044,0.0138638541102409
4.2747482910156265,0.0779070502188056,-0.0102373163759708,-0.0212011934608221,-0.0506638549268245,0.0096637299284338,0.022205501794815
4.28471240234375,0.0750497610915452,-0.0625255758874118,-0.0176548991560935,-0.038233283907175,0.0139128034934401,0.0332741290330886
4.294676269531244,0.08973010141626,-0.0806175512865185,-0.0093757311105728,-0.0325504690408706,0.0160752404481172,0.0406163856387138
4.304641113281249,0.1031918962640687,-0.0767344262428581,-0.0111930096656084,-0.0227862559258937,0.0151737602427601,0.0521627850830554
4.31460522460938,0.1347199840804561,-0.1050825688488781,-0.0356722018837928,-0.0097732357680797,0.009791512042284,0.0614145323634147
4.32457055664063,0.1417243098845705,-0.1247192894719541,-0.0470060813248157,0.0030608037486672,0.0062558986246585,0.0656894370913505
4.334534179687509,0.1240908188426867,-0.1219547931946814,-0.0621972207158803,0.0149220423772931,0.0010855381842702,0.069568432867527
4.344499267578129,0.1028669386260211,-0.1174221182011067,-0.0856599293678998,0.0208449140191078,-0.0043318644165992,0.0746145844459533
4.35446337890626,0.0554190683504566,-0.1208602759562432,-0.0571218171477317,0.0233586020767688,-0.010745720937848,0.0767019540071487
4.364428222656251,0.023333273586072,-0.0848760855138301,-0.0176250885397195,0.0188621208071708,-0.0113566508516669,0.0781949162483215
4.374392089843752,-0.0015482888879254,-0.0568473841205239,0.0159533559352159,0.0147790610790252,-0.0059643648564815,0.0760417357087135
4.384356689453128,-0.019815218995139,-0.0656793637432158,0.033584874215722,0.0156568400561809,0.0012330941390246,0.0778926387429237
4.3943208007812515,-0.0023245339574292,-0.0673684858739376,0.0346913741528987,0.0172310974448919,0.002736079506576,0.0748660638928413
4.404284912109375,-0.0064744932437315,-0.0511613013081252,-0.0058159928023815,0.0167775601148605,0.0016915878513827,0.0744290351867675
4.414249511718744,0.013699987517856,-0.0179858846761286,-0.0270692087113857,0.0194786433130502,-0.000256861327216,0.0687723830342292
4.4242136230468745,0.0089158950464799,0.0229942143574357,-0.0136491706460714,0.0232819039374589,0.0024547690991312,0.0636769607663154
4.434178710937509,-0.0072735346669331,0.0921571824327111,0.0011906710892915,0.0234286487102508,0.0090725915506482,0.0581523291766643
4.444142578125003,-0.0158932963110506,0.1304034725882112,-0.0033820436537265,0.022027026861906,0.0117701068520545,0.0562609508633613
4.454107421875001,-0.0103648152131587,0.0806556913398206,0.0019452888488769,0.0193734653294086,0.016280835494399,0.052231952548027
4.464071777343754,0.0143948013816028,-0.0034543782375752,0.0151373633772134,0.0233373139053583,0.0184622313827276,0.0551281385123729
4.474036621093752,0.0249252920178696,-0.0587834667496383,0.0013543372184038,0.0343882478773593,0.0110059967264533,0.0574350580573082
4.484000732421876,0.0366667658790946,-0.0832113671720027,-0.0315676891744136,0.0388743430376052,0.003455402329564,0.0589370802044868
4.493964599609377,0.0411794940631836,-0.0639364655986428,-0.0300187061667442,0.0427548810839653,-0.0046917237341403,0.0571451894938945
4.503929443359375,0.0218577211407944,-0.0051401393674314,0.0296194777160882,0.0372160412371158,0.0047071040607988,0.0523224733769893
4.513893554687499,-0.0137813456583768,0.0497492425531148,0.0847369693040847,0.0300798192620277,0.0132237588986754,0.0518691912293434
4.523858642578126,-0.0128357353713363,0.0414699283771216,0.0885468829810619,0.0225481316447258,0.0162128917872905,0.0509088523685932
4.533822509765628,0.0066023574071004,0.0114487379923462,0.064652212652564,0.0178945232182741,0.0143577326089143,0.0507677048444747
4.543787597656255,0.0321332871679216,-0.0081134560897946,0.0674760379016399,0.0144694335758686,0.0136948721483349,0.0477958843111991
4.553751708984379,0.0380741849916055,-0.0347135859847068,0.0768880093693733,0.0071535501629114,0.0118962079286575,0.0473008416593074
4.56371582031251,0.0523650876073166,-0.0447765687070786,0.0752133541554212,0.0045420546084642,0.0111334789544343,0.0518037155270576
4.573680419921878,0.0594311535360291,-0.0216768481485545,0.0683855539619922,0.0006181327626109,0.0148868039250373,0.0464446209371089
4.583644531250002,0.0562860604433342,-0.0138052379906177,0.0295680397897958,-0.0007576565258204,0.0082171829417347,0.0508915670216083
4.593609619140629,0.0695793668564409,-0.0077409695155918,0.0033837972193956,-0.0019820393063127,0.0046570040285587,0.0534243695437908
4.603573730468753,0.0657502004897221,0.0090564360283315,0.0015250176101922,-0.0078143617138266,0.0127072073519229,0.0558244101703166
4.613538574218744,0.0695964641217142,-0.0034331893190741,0.0150900171041488,-0.0039574634283781,0.0122047187760472,0.0638565868139267
4.623502685546875,0.081390581485629,-0.0030867139689624,-0.0093020813524723,-0.0023124287836253,0.0121735595166683,0.0712721571326255
4.63346752929688,0.1049744688319042,0.0082036185912787,-0.0432487746179103,-0.0004588398151099,0.0042413510382175,0.0743251740932464
4.643431640625003,0.1209899302178993,0.0040435763023793,-0.0245370598852634,-0.0016498053446412,0.0078507335856556,0.0869949012994766
4.653395507812505,0.1207987915599718,0.000215250185877,0.0342868850052356,-0.0042519802227616,0.0155438063666224,0.0932325571775436
4.663360595703125,0.1348172704424709,-0.0220306300222873,0.047357963502407,-0.0049248682335019,0.017714599147439,0.1022557616233825
4.673324707031249,0.1561175403635948,-0.0517627743326127,0.0495043278813362,-0.0053284056484699,0.0248921830207109,0.1119171604514122
4.683289550781254,0.1790754412986338,-0.093502897953242,0.0393026673406362,-0.0005221986211836,0.0268860924988985,0.1222555488348007
4.693253417968755,0.1999621619828045,-0.0875220699779689,0.0226794493198394,0.0037649953737854,0.024148778989911,0.1323676258325576
4.703218505859375,0.2212343017879873,-0.0549153931446373,0.0153080437690019,0.0078361695632338,0.0257570631802082,0.1389203369617462
4.713182617187499,0.2212355438970029,-0.0239361713826656,0.0097609310358762,0.0107466774061322,0.0297110248357057,0.150659367442131
4.7231477050781265,0.2140789136080071,-0.0030837913595139,0.0206190096586942,0.008779932744801,0.0332495681941509,0.1542527675628662
4.733111572265628,0.2110960984049364,0.0058433192007243,0.0584644639283418,0.0061885779723525,0.0410396605730056,0.1628047227859497
4.743076416015626,0.2034361947689205,0.0215777716882526,0.0907271496295928,-0.0013068891130387,0.0517018921673297,0.1682074815034866
4.7530405273437495,0.211417914237827,0.0330845234781503,0.1030038628786802,-0.0039758537895977,0.0537356473505497,0.1811974197626114
4.76300463867188,0.2369863629974424,0.0305300166897475,0.0516875171393156,-0.0005539581179618,0.0535774566233158,0.1892843693494796
4.772969482421878,0.2475858272166922,-0.0020217150859534,-0.005234978044033,0.0032476792111992,0.0479071699082851,0.202725201845169
4.782933593750002,0.2713303484847769,-0.0491881015390157,-0.022499416577816,-0.001673043705523,0.0484613738954067,0.2116814106702804
4.792898681640629,0.2716573154168203,-0.0532530128903687,0.0098760818481445,-0.0068543809466063,0.0533232949674129,0.2184600383043289
4.802862792968753,0.2495309334024786,-0.0321713541559875,0.0808633427411317,-0.0186351407319307,0.0713249295949935,0.2310346812009811
4.812827392578129,0.2341369283830746,0.0088268650561571,0.1458674375712871,-0.0242425389587879,0.0770547986030578,0.2360700070858001
4.822791503906259,0.2009479581497609,0.0156999656960368,0.1984042650163173,-0.0359239652752876,0.0845574587583541,0.2494803667068481
4.83275659179688,0.2332524736987426,-0.0049817339353263,0.1698755051463842,-0.0442149192094802,0.0910699516534805,0.260474145412445
4.8427207031250035,0.2753376113647595,-0.0129857383012771,0.1064566336810588,-0.0470562428236007,0.0883426070213317,0.268995463848114
4.852684570312505,0.2914161645822227,-0.02542933254987,0.0376075538605451,-0.0540092550218105,0.0872227400541305,0.2784603834152221
4.862649658203125,0.2877475225394592,-0.0325295199438929,0.0302770648419857,-0.0593366436660289,0.0967936068773269,0.2908006906509399
4.872613769531249,0.2615342365376651,-0.049046793372184,0.0597562573045492,-0.0612771436572074,0.1035262793302536,0.3034545481204986
4.882578613281254,0.2196263916673138,-0.0642220045417547,0.0815337893486023,-0.0560126043856143,0.1061436310410499,0.3193940818309784
4.892542480468755,0.2047596984576433,-0.0585972965277731,0.0693447543829679,-0.0587879307568073,0.1057377532124519,0.3346804976463318
4.902507324218753,0.1963994279999285,-0.0252358558043837,0.0598603022009134,-0.0565098635852336,0.1003525704145431,0.3494719564914703
4.912471435546877,0.2035065200587734,0.0089187811233103,0.069337155598402,-0.0539227947592735,0.1042602583765983,0.3627607226371765
4.922436767578127,0.2195768534371629,0.0060489247754216,0.0427139370888471,-0.0555902011692523,0.0974015519022941,0.3737702369689941
4.93240087890625,0.2068243028372526,-0.0190597975179553,0.0115431382775306,-0.0491442158818244,0.0905954837799072,0.382965624332428
4.942364501953129,0.1940103409063071,-0.025375264275074,0.0317284326940774,-0.0432690158486366,0.0935145765542984,0.3926294147968292
4.95232958984375,0.1691119734279811,-0.0173681911692023,0.0160299283027648,-0.0381103828549385,0.0883289128541946,0.3937877714633941
4.96229370117188,0.1200976575532928,-0.008273030565679,0.0148527012169361,-0.0423530638217926,0.0822606310248375,0.4012941718101501
4.972258544921878,0.083637739357911,-0.023263971209526,0.0687707538872957,-0.0417357049882411,0.0934452638030052,0.4038205146789551
4.98222241210938,0.0585616406925022,-0.0054398529663681,0.1196107142865657,-0.0484146475791931,0.1064777076244354,0.4086503982543945
4.9921877441406295,0.0402442590396851,-0.0227858323037624,0.1301443832606077,-0.054472666233778,0.1172625869512558,0.4089640974998474
