time,ax,ay,az,gx,gy,gz
0.0,-0.1001241061912849,0.2220921607263386,0.2423784312993288,-0.0411413237452507,0.0071809953078627,-0.1338019520044326
0.009963867187522624,0.055181460202299,0.0890435804568231,0.1406505797058344,-0.0730680972337722,-0.0117527479305863,-0.1316855400800705
0.019927734375002615,0.1713144884409382,-0.0479319639980792,0.103380879497528,-0.1083871126174926,-0.070115216076374,-0.1405032724142074
0.029892822265651375,0.1211419059092178,-0.1406200384370982,0.09414543364048,-0.1431312561035156,-0.2256664633750915,-0.1502922475337982
0.03985693359376796,-0.0565094574030488,-0.1816395926982164,0.1001058033496141,-0.0976770669221878,-0.1923225075006485,-0.1544403433799743
0.049821777343765916,-0.0894215469237417,-0.1794995119296014,0.263230665192008,-0.0652437582612037,-0.1662112772464752,-0.1243245080113411
0.0597861328125191,0.105266218320094,-0.1896545568495988,-0.2075263136267661,-0.0358390696346759,-0.1521760672330856,-0.1101714745163917
0.06975097656253126,0.2337433259556069,0.0485512649402022,-0.420883233103156,-0.0236625671386718,-0.1361630111932754,-0.0984945818781852
0.07971484375002547,0.3242584768023341,0.1346745740361511,-0.4038561104565858,-0.0437907204031944,-0.1294257640838623,-0.0920031145215034
0.08967895507814205,0.2861911234103143,0.1604883758589625,-0.1168833351492881,-0.0725089162588119,-0.0784922838211059,-0.0988000333309173
0.09964404296876239,0.0270155422953888,0.1673570925846695,0.3865215292960405,-0.1279453635215759,-0.0057389019057154,-0.0943767800927162
0.10960791015628502,-0.1307331429339945,0.0736634943649172,0.7335194419771432,-0.1892715692520141,0.0668231844902038,-0.0936611890792846
0.11957275390626876,-0.1960342479493469,-0.0428461851663887,0.9074953681796788,-0.2433100938796997,0.1822435855865478,-0.1049738153815269
0.12953686523439956,-0.3113748837012797,-0.0467160123370587,0.8957172521024942,-0.252033531665802,0.2995683550834656,-0.1066180542111396
0.13950219726564228,-0.3031894218211993,0.1394699916191399,0.3896218333989381,-0.2178118079900741,0.2989067137241363,-0.0858658850193023
0.1494658203125283,-0.0414503468938171,0.176100224880129,-0.5362509029924869,-0.1622116714715957,0.1364181935787201,-0.0788242220878601
0.1594299316406449,0.2238580378876999,0.0766750972710549,-1.231312311759591,-0.0954218879342079,-0.0439072102308273,-0.0751820653676986
0.16939501953126523,0.3608876506173983,-0.0506495523937046,-1.110637183111906,-0.0621299743652343,-0.0985147953033447,-0.063285194337368
0.17935913085941024,0.3091442751049995,-0.1017230292879045,-0.253859025734663,-0.0480175167322158,-0.0215245112776756,-0.0500615239143371
0.1893237304687716,0.0793151269184425,-0.0662462038457393,0.3275064457476139,-0.0665081143379211,0.015541898086667,-0.0454872772097587
0.1992878417968882,-0.0359352367341518,-0.1899251904845237,0.2427314825206994,-0.0643583461642265,0.0033086207695305,-0.0525015406310558
0.20925292968752274,-0.0818347450565546,-0.2761087053351104,0.1119569846630096,-0.0363054051995277,0.0156806018203496,-0.055270429700613
0.21921704101563932,-0.1405242133798077,-0.1779240793064236,-0.0102986911743879,-0.0071438243612647,0.0200900547206401,-0.0481872595846653
0.22918090820314774,-0.1021742071215063,-0.0168143566787242,-0.2020738934397697,0.0089475270360708,0.0021094551775604,-0.0402805991470813
0.23914599609376808,0.0369714479140937,0.1338030518986284,-0.3201905697762966,0.0234921965748071,-0.0355733335018157,-0.0446984320878982
0.2491098632812907,0.0712117172986269,0.2097097951456904,-0.3126063982576131,0.0269037056714296,-0.0598411187529563,-0.0635823756456375
0.2590749511718826,0.0114385453918948,0.2054663123570382,-0.1138198559254407,0.0122780399397015,-0.0445190295577049,-0.068529225885868
0.26903881835940524,-0.001933525345847,0.1440159644857049,0.127297761657834,-0.0002377508208155,-0.0056323520839214,-0.0811291709542274
0.279003662109389,-0.0369623878248035,0.1006527697078883,0.2184919442772865,0.001603964716196,0.021978385746479,-0.0916220620274543
0.28896801757814217,-0.0449188632545992,0.0707449765697121,0.0223451027989387,0.00254219584167,0.004240402020514,-0.1006342023611068
0.2989318847656506,-0.0308983385454863,0.0987172716006636,-0.1431692845284938,0.0155649222433567,-0.0094220414757728,-0.1034413874149322
0.30889697265628513,0.0232593680996447,0.1253716159008443,-0.1532896965265274,0.0321774557232856,-0.0141331739723682,-0.1024392396211624
0.3188608398437651,0.0919920915314927,0.1218722294777631,-0.1383563312888145,0.0443774685263633,-0.0191831290721893,-0.1051503494381904
0.32882592773439967,0.0954377750059589,0.1106967554688453,-0.1242015492081642,0.0529139675199985,-0.0284482650458812,-0.1078760996460914
0.33879003906253047,0.0568424522170796,0.0871688726261258,-0.0899053118526935,0.0565541237592697,-0.0361704975366592,-0.1087528467178344
0.3487546386718776,0.0414911538282409,0.0343142114035785,0.0069587330967187,0.0551149472594261,-0.035180602222681,-0.1058593243360519
0.3587187500000226,0.0536542871676385,-0.0567649665340781,0.0864963801920414,0.0505164861679077,-0.0318522043526172,-0.0963616743683815
0.3686828613281392,0.0715468310045078,-0.0999514895707368,0.1064186397582292,0.0417091436684131,-0.0336700789630413,-0.0939685627818107
0.37864819335941036,0.0379817574677988,-0.0773363376587629,0.1300742406338453,0.0330868959426879,-0.0261365287005901,-0.092305950820446
0.38861181640626796,0.0012989172367379,-0.0828255827248096,0.1312380237162113,0.0179699920117855,-0.0291030220687389,-0.1000786498188972
0.3985769042968883,-0.0687113518502563,-0.0094227851226925,0.1371966398596763,0.0009138081222772,-0.0188453700393438,-0.1062465012073516
0.4085410156250049,-0.0959088631164282,0.0449438880980014,0.1774742897123098,-0.0098243234679102,0.0023139764089137,-0.1074252128601074
0.41850585937500284,-0.0679664517670869,0.0892789966478943,0.1147650278210639,-0.0097700953483581,0.0124593935906887,-0.1057293266057968
0.42846972656252547,-0.0229231949478387,0.1228821371726691,-0.0891623845309019,-0.0097186965867877,-0.0106296818703413,-0.1039340868592262
0.4384350585937682,0.0196464017668738,0.1020714043341577,-0.1772153465151786,-0.0013477480970323,-0.0239099040627479,-0.1010687798261642
0.44839575195314296,0.0370832742581144,0.0902227072387933,-0.0933271029949188,0.0074358899146318,-0.0248302929103374,-0.0967757701873779
0.45835986328128797,0.0139665294995531,0.0593809942513704,-0.0637941345185041,0.0141764022409915,-0.0232571978121995,-0.0957012102007865
0.4683249511718799,0.0136200906820595,0.0197632696121931,-0.083833882984519,0.0166752468794584,-0.0294871293008327,-0.088054209947586
0.4782888183593883,0.0258979729749262,0.0214051916003227,-0.0349707756161689,0.0205506458878517,-0.0282559413462877,-0.0924510359764099
0.48825390625002285,0.0106751598039641,0.029991964290291,0.0120668698906898,0.0213053822517395,-0.0235738381743431,-0.0956335142254829
0.49821801757813944,-0.0189063970545306,0.0247054021894931,0.0445125109434127,0.0229958891868591,-0.0190657991915941,-0.0965033769607544
0.5081821289062844,-0.0297550867944955,0.0436604241587221,-0.0054810617595911,0.0238339863717556,-0.027348231524229,-0.096892736852169
0.5181469726562682,0.0149518507424741,0.0539602843768894,-0.0064466919213533,0.0154238417744636,-0.0302248485386371,-0.0995923429727554
0.5281108398437624,0.026071904769726,0.0364968161396682,0.0531266100317239,0.0103577114641666,-0.0220148563385009,-0.1049042865633964
0.5380759277344112,0.0458593224424868,-0.0005066343478858,0.102608726081252,0.008388957940042,-0.0089095160365104,-0.1013684719800949
0.5480400390625277,0.0623021789276972,0.0280246097400784,0.0777975254297256,0.009574064053595,-0.0217664577066898,-0.0942871272563934
0.5580048828125257,0.0908139511302113,0.0574377512291073,-0.0761643712699413,-0.0027251350693404,-0.0435099713504314,-0.1034882664680481
0.5679689941406423,0.0331434140585362,0.0804091692328453,-0.0004956745624542,-0.0141799235716462,-0.0319912657141685,-0.1112846732139587
0.5779331054687589,-0.0271186008110642,0.0631903234064579,0.1816875234931707,-0.028320237994194,0.0015129606472328,-0.1170771420001983
0.587897949218771,-0.0429592170868068,0.0665102616094052,0.1759282293140888,-0.0312979184091091,0.0116276461631059,-0.1186596006155014
0.5978618164062652,-8.75321529805e-05,0.0727796972677111,-0.0181382987588644,-0.0195000860840082,-0.0039298059418797,-0.1138775795698165
0.6078269042968998,0.0643011707251891,0.0426401412002742,-0.1550204658418893,-0.0037096715532243,-0.0294974837452173,-0.1125204265117645
0.6177907714844082,0.0583658258594572,-0.0245529881067574,-0.1795785685151815,0.0089264037087559,-0.0376674383878707,-0.1085528582334518
0.6277558593750001,0.004021620198898,-0.0606492606215178,-0.1076233393728733,0.0097296135500073,-0.0262523312121629,-0.1034728810191154
0.6377197265625227,-0.0349213835164904,0.0354062444239854,-0.0547059881776571,0.0113952448591589,-0.0277802776545286,-0.0973529294133186
0.6476838378906393,-0.0457710231045261,0.1405164319321513,-0.0370429057151079,0.0090918773785233,-0.0378126725554466,-0.1013729721307754
0.6576489257812881,-0.0716433136489242,0.1099460832320153,-0.0005979658931493,0.0060676401481032,-0.0357445403933525,-0.1123595237731933
0.6676130371094047,-0.1298995781866833,0.0319749548010528,0.1034580363869667,0.0037134056910872,-0.0185495745390653,-0.1079956665635109
0.677578125000025,-0.0787572007747366,0.0199960554547607,0.0864624779224395,0.0001886049285531,-0.0176788717508316,-0.1083067432045936
0.6875417480468826,-0.0176430991204455,0.0271095407217741,-0.0334147783458232,-0.0110371513292193,-0.03764059394598,-0.1185402125120163
0.6975068359375314,-0.0577160201812163,-0.0016927753925323,-0.0474801285773515,-0.0233491882681846,-0.0403139106929302,-0.1262335181236267
0.707470947265648,-0.1329202411821112,-0.0210744983412325,0.0780061997443437,-0.0249891616404056,-0.0219562090933322,-0.1341383159160614
0.7174348144531422,-0.1929363915318623,0.0679144293189048,0.1038677862316369,-0.0274890195578336,-0.0129899140447378,-0.1286613047122955
0.7273999023437625,-0.1288198201259598,0.2209972050964832,-0.0053612347722053,-0.0253078900277614,-0.0309257693588733,-0.130756139755249
0.7373640136718791,-0.0230797737490385,0.2458605743266642,-0.1036187799066305,-0.0144915524870157,-0.0504415892064571,-0.139966681599617
0.7473291015625279,0.0548021054958924,0.1125641567759215,-0.0871451994895935,-0.0027952152304351,-0.0521065965294837,-0.1517807394266128
0.7572927246093997,0.0337365211134776,0.0077959145732223,-0.0037964696735143,0.0012911390513181,-0.0495185367763042,-0.1603662371635437
0.76725781250002,-0.0323816359058022,0.0117655488565564,0.0535182396978139,0.0073799239471554,-0.0348064340651035,-0.1695424169301986
0.7772219238281508,-0.0846956509130075,0.0331521818868815,0.0649386283785104,0.0062355790287256,-0.0318104028701782,-0.1788557469844818
0.7871860351562674,-0.1036006962606683,0.0023614684343338,0.0216454300969839,0.0048081241548061,-0.0373050346970558,-0.1882937252521515
0.7971508789062653,-0.1063301212245598,0.0080707859918475,0.0250911866366863,0.0047578494995832,-0.0389573015272617,-0.1859182119369506
0.8071149902344104,-0.0720742524120956,0.0472968809649348,0.0282698166728019,0.0003260830417275,-0.0390470474958419,-0.1895731389522552
0.8170798339844083,-0.0417676692146807,0.0308934431746602,0.0054909986317157,-0.0052195936441421,-0.0414786040782928,-0.1937873214483261
0.8270439453125249,-0.0102164562510326,-0.0319373992696404,0.0081324530512094,-0.0106465835124254,-0.0392567291855812,-0.1955426186323166
0.8370090332031452,0.0143455188797786,-0.0633700638875365,0.0235632464170455,-0.0135837830603122,-0.0376604311168193,-0.2026844173669815
0.8469729003906394,-0.0106550668640062,-0.0517582442879676,0.0278624049156904,-0.0234800893813371,-0.0284901019185781,-0.2156127244234085
0.8569370117187702,-0.0577394010568037,-0.0291923383451998,0.0587695843547582,-0.0186762548983097,-0.0128659140318632,-0.2205512672662735
0.8669018554687682,-0.0786039464417844,0.0498499264486134,0.0201373636215925,-0.0164959244430065,-0.0123553862795233,-0.2178047448396682
0.8768657226562908,-0.023939093992114,0.0876379514425993,-0.0366372475236654,-0.0120385428890585,-0.0191672351211309,-0.2226048707962036
0.8868308105468827,0.0110210506321862,0.0813601863473653,-0.1092097317814826,-0.0023835189640522,-0.0299397222697734,-0.2241777330636978
0.8967949218749993,0.0458169811381027,0.0474226993016898,-0.1570914268970489,0.0093080839142203,-0.0423445627093315,-0.2211717665195465
0.9067600097656481,0.0586436564201489,0.0316853242047131,-0.1697293746739626,0.0280772447586059,-0.0516035705804824,-0.2247377336025238
0.9167241210937647,0.0250012433309108,0.0307119491279125,-0.1253431204587221,0.0467589944601058,-0.0510609857738018,-0.2224868983030319
0.9266877441406507,0.0192927660236135,0.0183078101068735,-0.0822749631047248,0.0662591904401779,-0.0486934334039688,-0.2126265317201614
0.9366528320312852,0.0562105840543285,0.0322280527792871,-0.1456242764651775,0.0824566558003425,-0.0611678287386894,-0.2081097811460495
0.9466169433593876,0.0816114211620762,0.0387299820192158,-0.1796077946096658,0.0867281034588813,-0.0751350447535514,-0.2145117670297622
0.9565820312500222,0.0500330644631758,-0.0015349544823169,-0.0710369452536106,0.0875578448176384,-0.071806252002716,-0.2168649286031723
0.9665458984375306,0.0222870524687692,-0.0572968814536929,0.0767202515870332,0.0827684178948402,-0.061349619179964,-0.2207779139280319
0.9765100097656472,0.0147741560880094,-0.0744618051357567,0.143957804557681,0.0724635794758796,-0.0559732317924499,-0.2218562215566635
0.9864750976562675,0.0169245025223121,-0.0990067560665309,0.157505268394947,0.0593719966709613,-0.049577347934246,-0.2258957326412201
0.9964387207031393,0.0107893607681617,-0.1157997776962816,0.1591588808208704,0.0481476038694381,-0.0491097532212734,-0.2310736775398254
1.0064038085937597,-0.0079380264576524,-0.1075951361916959,0.1304167704612016,0.0428495109081268,-0.0508788935840129,-0.2314292043447494
1.0163679199218905,-0.0133606360282748,-0.0755567607656121,0.0791278972506523,0.0457239598035812,-0.0513282716274261,-0.2302590161561966
1.0263327636718884,-0.0055882849937304,-0.0419423681944608,-0.0129693716883659,0.0408900529146194,-0.0648805648088455,-0.2345650792121887
1.0362971191406416,-0.034347675281763,0.0106245621278882,-0.0262310043215751,0.0379653349518775,-0.0664323270320892,-0.2330710738897323
1.04626098632815,-0.0274817715676501,0.0372971727371215,0.0247550865501165,0.0336054749786853,-0.062125202268362,-0.2360013574361801
1.056225830078148,-0.0308956351317465,0.0101622053131461,0.0156195939362049,0.0359903611242771,-0.0643079727888107,-0.2376615405082702
1.0661899414062646,-0.0434270537942647,-0.0107062490619719,0.0033949031352996,0.0307543203234672,-0.0706886425614357,-0.2433694899082183
1.076155029296885,-0.0773124087939038,0.0233867208063602,-0.0083463880628347,0.0217506624758243,-0.0788421034812927,-0.2526048421859741
1.0861188964844075,-0.1022741968972608,0.0603777502037584,0.0445984356611967,0.0119241317734122,-0.0712289214134216,-0.2617978155612945
1.0960837402344055,-0.0948297626428306,0.05919993859604,0.0754863258779048,0.0051299892365932,-0.0631024166941642,-0.2695169448852539
1.106047851562522,-0.0893342704990878,0.0417338400103151,0.0648176323473453,0.0039028050377964,-0.0603037029504776,-0.2802742719650268
1.116011718750002,-0.1003427173780277,0.001632715768367,0.0230605575919151,0.0055731264874339,-0.0648385137319564,-0.2866970300674438
1.1259768066406508,-0.0958892451005056,-0.0226405786141753,-0.0348258141875267,0.0155282886698842,-0.0700812041759491,-0.2896603345870971
1.1359409179687674,-0.0800712059827521,-0.0305424377799034,-0.0579559298843145,0.0201220568269491,-0.0771463811397552,-0.2952748239040375
1.1459060058593877,-0.0824934281609952,-0.005919453176856,-0.0513438182681798,0.0199598707258701,-0.0816141068935394,-0.3020181953907013
1.155869873046882,-0.0903691299721598,0.0479306488238275,-0.0506301170408725,0.0167868845164775,-0.083933874964714,-0.3092082142829895
1.1658347167968799,-0.0899477992875501,0.0765745595060288,-0.0178933840870857,0.0082727596163749,-0.0877142325043678,-0.3191881477832794
1.175798828125025,-0.0931014044802635,0.0681540832936763,0.0251683435261249,-0.0002238666638731,-0.0818482935428619,-0.3299930989742279
1.1857629394531415,-0.1058373327389359,0.0364433323867619,0.0373527023166418,-0.0056085120886564,-0.0786999091506004,-0.3454322516918182
1.1957280273437618,-0.1282786989865824,0.0131887135274708,0.0291091901063919,-0.0061133438721299,-0.0761465802788734,-0.3612993359565735
1.2056918945312844,-0.1646434497117996,0.0276163212001323,0.0270575182735919,-0.0042022597044706,-0.0695248991250991,-0.3740548193454742
1.2156569824218906,-0.181426315273717,0.0200501237295567,-0.0216793323665857,-0.0043619135394692,-0.0704654231667518,-0.387491226196289
1.2256210937500214,-0.1852317354386672,0.0490538076348602,-0.0534521887242794,0.0136367939412593,-0.0657782554626464,-0.4005391299724579
1.235584716796879,-0.1600594463897869,0.0791771432198584,-0.1501741948544979,0.0316271595656871,-0.0981645286083221,-0.4003480076789856
1.2455498046875277,-0.1052346541380509,0.1026701008796691,-0.3363508464604616,0.055686954408884,-0.1304268687963485,-0.4147034883499145
1.2555139160156443,-0.1506502879336476,0.1511379253201186,-0.2229717200398445,0.077677771449089,-0.1286173164844513,-0.4162880480289459
1.2654790039062647,-0.1041424384545534,0.0828138922870159,-0.1798947948575019,0.072088599205017,-0.1429541856050491,-0.4368450045585632
1.2754428710937589,-0.1644099332168698,0.0341264337465167,-0.0367307710260152,0.0622888728976249,-0.1347560882568359,-0.4593164920806885
1.2854079589844076,-0.2510720253646373,-0.0284146319709718,0.1670277144998312,0.0582991912961006,-0.1085268855094909,-0.4693904221057892
1.2953720703125242,-0.2639988365529105,0.0029075580097734,0.1539081206858158,0.0530593283474445,-0.1090950965881347,-0.4690013229846954
1.3053359375000042,-0.2309183681953698,0.0286640766873955,-0.0123345809161663,0.0455364324152469,-0.1239840313792228,-0.4790941774845123
1.3153007812500022,-0.2418695319291204,0.063506111357361,0.0014741642057895,0.0478403717279434,-0.1137066930532455,-0.4800169169902801
1.3252648925781472,-0.1820381270291283,0.0938952582716941,0.003308393895626,0.0550383627414703,-0.1078762412071228,-0.4801902770996094
1.3352297363281451,-0.1118966327778994,0.0883973915077745,-0.0807540371477603,0.0617054030299186,-0.1164913773536682,-0.4843049049377441
1.3451938476562901,-0.0420975222235545,0.0902813055582344,-0.1470095933437347,0.0769333615899086,-0.1312112063169479,-0.4847605526447296
1.3551577148437701,0.0093684245869517,0.0284733764208853,-0.2134463513255119,0.0901511311531066,-0.1551993042230606,-0.478145033121109
1.3651228027344047,0.0390091277541592,-0.0668764645732939,-0.2078133138746023,0.093394324183464,-0.167045310139656,-0.4811155200004577
1.3750869140625213,-0.0084276731381192,-0.1088582879953086,-0.0792529849350452,0.096319667994976,-0.1625710725784301,-0.4815335869789123
1.3850520019531416,-0.0641086438277736,-0.111588735872507,0.0456248560994863,0.0943920686841011,-0.1546511054039001,-0.4775905013084411
1.39501586914065,-0.0615345555560663,-0.0855443401642143,0.0985737714767456,0.0995460525155067,-0.1508171558380127,-0.4683011770248413
1.404980712890648,-0.0201990306809544,-0.035837913839519,0.0783142427802085,0.1001271530985832,-0.1519415527582168,-0.4654009938240051
1.4149448242187646,0.0123961018450558,0.0170217158190906,0.0738327134519815,0.0935166701674461,-0.1566806584596634,-0.4658715426921844
1.4249089355468811,0.0341104324597865,-0.0243586345784366,0.1160205808401107,0.0895347073674202,-0.1505948007106781,-0.4728700816631317
1.434873779296879,0.057355150979571,-0.0761740158811211,0.1827846710801124,0.0833514332771301,-0.1404660195112228,-0.4739846587181091
1.444837890625024,0.0579716389100998,-0.082899524743855,0.1964846951305866,0.0756623521447181,-0.1311662644147873,-0.4749697744846344
1.454802246093763,0.0820569364398717,-0.0449099858283996,0.1673299123167991,0.0725093632936477,-0.1244502514600753,-0.4759849309921264
1.4647663574218797,0.0982932375023141,-0.0177969379752874,0.1307879418611526,0.0725248083472251,-0.1176163107156753,-0.47093266248703
1.4747309570312694,0.1229603900406509,-0.0266088977232575,0.0599988338887691,0.0702134519815445,-0.1166738271713256,-0.4763511121273041
1.4846950683594002,0.1334422922948375,-0.0145921505846083,-0.0258306068271398,0.0660639852285385,-0.1248244419693946,-0.4801477193832397
1.494659179687531,0.1364450908400118,0.0080669865995645,-0.0653320116102695,0.0646466463804245,-0.131070077419281,-0.4805946052074432
1.5046245117187595,0.1429859273182228,0.0505770716793835,-0.0596224017918109,0.0654509216547012,-0.1327223032712936,-0.4830955862998962
1.5145881347656456,0.1430632303381338,0.0909761559545993,-0.0366314023047685,0.05594103038311,-0.1313539445400238,-0.4845342338085174
1.524553222656266,0.1531791488241404,0.1247124213397502,-0.0232090261518955,0.0506642423570156,-0.1268148571252823,-0.484262615442276
1.534517333984411,0.1545279330845922,0.1718229859523475,-0.0127986912965774,0.041082315146923,-0.1243420094251632,-0.4861315488815307
1.544481201171891,0.1871197411423548,0.1637852254472672,0.0139116209745407,0.0343290716409683,-0.1225448995828628,-0.4835014045238495
1.5544460449218889,0.197032757467404,0.0810251091741025,0.0330383462488651,0.0268964115530252,-0.1189277023077011,-0.482241541147232
1.5644101562500197,0.1918721963664516,-0.0068897595137357,0.072166241544485,0.0181492585688829,-0.1144016534090042,-0.4773583710193634
1.57437524414064,0.1820379443660378,-0.0496134873442351,0.0879413183033466,0.0123196123167872,-0.1081190258264541,-0.4749606847763061
1.584338867187526,0.156174786976166,-0.0884685570478439,0.0931716201722621,0.0099462019279599,-0.1028579548001289,-0.4621950984001159
1.5943041992187688,0.1734171963412314,-0.0828933872640132,0.0624269378185272,0.0146646201610565,-0.1039981544017791,-0.4504494965076446
1.6042683105468996,0.1834923809580504,-0.0348223070561885,0.0118693014919757,0.0172801110893487,-0.1083745211362838,-0.4389001429080963
1.614232421875002,0.1702601936150342,-0.0042215632177889,-0.0317559052228927,0.0269582122564315,-0.1153053119778633,-0.4253763556480407
1.6241972656249999,0.1483735751733183,0.0304999138124287,-0.0481271943092346,0.0354702100157737,-0.1248580664396286,-0.4106863737106323
1.6341611328125225,0.1605812052415683,0.0335221842430532,-0.0485305144131183,0.0441049523651599,-0.1300306618213653,-0.3987839221954345
1.6441262207031428,0.1740205690618604,-0.0107647012509405,-0.0513350504398345,0.0548952855169773,-0.1320096552371978,-0.3821535408496856
1.6540900878906513,0.1739460425209253,-0.0378960154131054,-0.053068742364645,0.0677017346024513,-0.1358580738306045,-0.3705482482910156
1.6640539550781455,0.1643128295179456,-0.0707104897782206,-0.0470773929953575,0.0749940052628517,-0.1390442848205566,-0.3575080931186676
1.6740192871093882,0.1304840270111337,-0.0760746471598744,-0.0231178407371044,0.0812853649258613,-0.1390300691127777,-0.3445209264755249
1.6839831542968824,0.1140570987474173,-0.075376874154061,0.0321913740307092,0.0792613625526428,-0.1382196694612503,-0.3310437202453613
1.6939482421875312,0.1078198848582804,-0.0864772371001541,0.0859977830201387,0.079489417374134,-0.1279490292072296,-0.3235839605331421
1.7039121093750254,0.0855623142123222,-0.0540298424817621,0.0770370624512434,0.0799972862005233,-0.129264086484909,-0.3177769184112549
1.7138769531250233,0.1084802119305357,-0.0181936822079122,0.048109658652544,0.0738691538572311,-0.1355025768280029,-0.3163202106952667
1.72384106445314,0.1039928739160299,0.0043386137261986,0.090007018661499,0.0625448524951934,-0.1315970569849014,-0.3162805140018463
1.733805175781285,0.0834676800206303,-0.0027811551511287,0.1785351969420909,0.0462681539356708,-0.1091428771615028,-0.3187482059001922
1.7437705078125276,0.0734626745631918,-0.0188471776805818,0.2306137592256069,0.0349065735936164,-0.093363918364048,-0.3214787542819977
1.7537341308593994,0.0783013832986354,-0.0205588039040565,0.1633656848609447,0.0194148644804954,-0.091062381863594,-0.3257993757724762
1.7636992187500198,0.0963288055615499,0.0001912847883999,0.1020242041915655,0.0100184315815567,-0.0869001224637031,-0.3257229328155517
1.7736633300781506,0.1221041750701144,0.0718757341653108,0.0602285509914159,-0.0016694557853043,-0.0859782621264457,-0.3278128206729889
1.7836271972656448,0.1581479867452755,0.1062519048891961,0.0121568862617015,-0.0063137421384453,-0.0793656334280967,-0.3295688927173614
1.7935920410156427,0.1715897617183625,0.1116280449695885,-0.0035737668335437,-0.0080863274633884,-0.0779640525579452,-0.3216725885868072
1.8035561523437593,0.2130741204796359,0.0462108392938971,-0.049256490600109,-0.0144084058701992,-0.0852581858634948,-0.3135430216789245
1.813521240234408,0.2430960415167734,-0.0111782504878938,-0.0684364073663949,-0.0210598148405551,-0.086744338274002,-0.3070214688777923
1.823485107421888,0.2332221516257152,-0.0691707129903137,-0.0297410582691431,-0.0236095264554023,-0.087771788239479,-0.3018911778926849
1.8334492187500047,0.2034133253499865,-0.0848529968991875,0.0608294394940137,-0.0161749646067619,-0.085643470287323,-0.2848469316959381
1.8434143066406392,0.2016668835414573,-0.1208618833914399,0.1263157648831606,-0.0173539463430643,-0.0734525769948959,-0.2672173380851745
1.85337841796877,0.2259436485227197,-0.1537427009910345,0.1164835221767425,-0.0181140974164009,-0.0659093558788299,-0.2487381994724273
1.863343261718768,0.2557092201786116,-0.1243409576788544,0.0742301883369684,-0.025028197094798,-0.0658422410488128,-0.2358082830905914
1.8733071289062906,0.2927964399594813,-0.0761684629231691,0.0443435841172933,-0.0275021940469741,-0.0649831816554069,-0.21812304854393
1.8832722167968825,0.3112602443456649,-0.0514316426821053,0.0263847335785627,-0.0335984341800212,-0.0684884339570999,-0.2042037695646286
1.8932360839844051,0.3140977327939123,-0.069010700123012,0.0455132124185562,-0.0377572402358055,-0.0590719990432262,-0.1916091740131378
1.9031999511718851,0.2871546346802264,-0.0918590762689709,0.1326841308712959,-0.0373415201902389,-0.0395691394805908,-0.175944983959198
1.913165283203142,0.2877324345681816,-0.1127788224399089,0.1104401503592729,-0.0252080522477626,-0.0280127488076686,-0.1530372500419616
1.923129394531287,0.3438458053257316,-0.0939414355009794,-0.0310346052110195,-0.0138131845742464,-0.0407738201320171,-0.1346260160207748
1.933094238281285,0.3754662841333076,-0.017524404644221,-0.1590636037528514,-0.0034358412958681,-0.0584303513169288,-0.123423732817173
1.943058105468765,0.3355075640367344,0.034487668274343,-0.1061865845680236,0.005161908455193,-0.0554638542234897,-0.1121127530932426
1.9530222167968816,0.2816520552085712,0.0152983991578221,0.0054085810452699,0.0158912632614374,-0.0396343246102333,-0.1012981683015823
1.9629870605468795,0.2188710797879844,0.0118210784360766,0.0382061042755842,0.0190958455204963,-0.0347282476723194,-0.0990184992551803
1.9729511718750246,0.1509802140077576,0.0123578156612813,0.0190419696003198,0.0230070538818836,-0.041096493601799,-0.0864284038543701
1.9829165039062673,0.1240142099425196,0.0206713243678212,0.0485696773797273,0.02951555326581,-0.0372444950044155,-0.0805926173925399
1.992880126953139,0.1211071268567815,0.0193982356920838,0.0554682047218084,0.0362242273986339,-0.0310152564197778,-0.0680089220404625
2.0028452148437594,0.1425461476614698,-0.0024449089340865,0.0193289698481559,0.0400442630052566,-0.0308442842215299,-0.0687932297587394
2.0128093261718902,0.1363593487853184,-0.038655893869698,0.0002606967628002,0.0349155440926551,-0.0359823070466518,-0.0684568732976913
2.0227731933593986,0.1337232646606862,-0.0976372212789952,0.03810205937922,0.0330111160874366,-0.036291766911745,-0.0650882422924041
2.032738037109411,0.1397391639493405,-0.1052088255770504,0.0834983674198389,0.0304567143321037,-0.0309407915920019,-0.0674017146229744
2.0427021484375274,0.1311846130285412,-0.0751658617518842,0.0724772071897983,0.0177062973380088,-0.0329482853412628,-0.0675979927182197
2.05266748046877,0.1060393215844407,-0.0314708046711981,0.0610439590275287,0.011700240895152,-0.0300117786973714,-0.0681047961115837
2.062631103515642,0.1001622097119688,-0.0030611411362886,0.0695551822632551,-0.0030536707490682,-0.0259967967867851,-0.0693365111947059
2.0725952148437585,0.0862243948502466,-0.0116151806004345,0.0515869793742895,-0.0154806682839989,-0.0174670945852994,-0.0712241306900978
2.0825603027344073,0.0782848705552518,0.0135460025325417,0.0412684144556522,-0.0207326896488666,-0.0085931755602359,-0.0685729533433914
2.092524414062524,0.0766656353229656,0.0247616624213755,0.0035398645639419,-0.0184382200241088,-0.0002956949174404,-0.0634072497487068
2.1024890136718852,0.1006374990735202,-0.0028062895923852,-0.0553431170374155,-0.015296222642064,-0.0046033579856157,-0.0550265461206436
2.112453125000002,0.121630968067795,-0.0286178994581103,-0.0937988121598959,-0.0126933511346578,-0.0085159400478005,-0.0479614734649658
2.122417236328147,0.1177728313349187,-0.0328719036407768,-0.0667716890245676,-0.0069686202332377,-0.0067782280966639,-0.0426412783563137
2.132382080078145,0.0745615757158026,-0.0284736686818301,-0.0349503173500299,-0.0023801573552191,0.0015136568108573,-0.0341945029795169
2.142345947265639,0.0580201176943257,0.00987520506531,0.0023573767811059,-0.0047953780740499,0.0067281262017786,-0.0259978231042623
2.1523112792968817,0.0867504280183464,0.0330389307707548,-0.013510054436326,0.0041536418721079,0.0074146892875432,-0.0143672674894332
2.1622753906249983,0.1331749465955421,0.0010994856745004,-0.050360652449727,0.0114235393702983,0.0074232113547623,-0.0050946730189025
2.1722402343750247,0.1254704731654375,0.0043272155493497,-0.0875251387178897,0.0199672132730484,-0.0045998534187674,-0.0022685527801513
2.182204101562519,0.1183608968885615,0.0101136899963021,-0.0753068776577711,0.0293186362832784,-0.0024826405569911,0.0086064655333757
2.1921682128906497,0.104673220863007,0.0059903264559805,-0.0175146139025688,0.0384013652801513,0.0077904504723846,0.0142473401501774
2.2021330566406476,0.1029331722626462,0.0160784436196088,-0.0088052377462387,0.0399366803467273,0.0086799468845129,0.0165006406605243
2.212097167968764,0.1123846354905515,0.0415263347394764,-0.019888357296586,0.0400876700878143,0.0034543126821517,0.0152012705802917
2.2220622558593988,0.1041503295000642,0.0675827131465077,0.0295095876008272,0.0403942018747329,0.0135381054133176,0.0192053318023681
2.2320263671875296,0.1040888816364109,0.0729392717435956,0.1002618706941604,0.039285808801651,0.0249939169734716,0.0192980393767356
2.2419902343750238,0.1340374817090109,0.0863663240715861,0.0982984616667032,0.0383169502019882,0.0313562080264091,0.0175797678530216
2.251955322265644,0.148201214281097,0.0556983602158725,0.0560550646990537,0.0415337607264518,0.0305725149810314,0.0214061494916677
2.2619191894531383,0.1549143385862931,0.0325227979421615,0.0336088396131992,0.0459295734763145,0.0337504632771015,0.0259372517466545
2.2718840332031505,0.1601683866569772,0.035620617827028,0.0160182378649711,0.0479344949126243,0.0290615893900394,0.0318452231585979
2.281848144531267,0.1584127386286854,0.0235306593216955,0.0069897127568721,0.0452795885503292,0.0256804414093494,0.0390647873282432
2.291812255859398,0.1614504258241504,0.0114458153828978,0.0311070859253406,0.0383007265627384,0.0252836346626281,0.0493566282093524
2.30177709960941,0.1541988837933167,0.0353204658366739,0.0598328296720981,0.0357715226709842,0.0283984690904617,0.0537162236869335
2.3117412109375266,0.1526672172466293,0.0400378497473895,0.0597182633817195,0.0347932130098342,0.0320096388459205,0.0654822662472724
2.321706298828147,0.1814102409217506,0.0109229605525732,0.052160395348072,0.0315433554351329,0.0296612605452537,0.0730379223823547
2.3316704101562635,0.1709595740560442,-0.0023816344395279,0.0418558589547872,0.026274636387825,0.0241838786751031,0.0823347344994545
2.341635009765639,0.1589681074891239,-0.0149428637184202,0.0452817417502403,0.0223699137568473,0.0278137680143117,0.0953224375844001
2.35159912109377,0.1634847811959683,-0.0281746857352554,0.08638707459867,0.0159224327653646,0.0316467583179473,0.1056395843625068
2.3615632324219007,0.1600014691248536,-0.0129768243424594,0.0950578723102807,0.012825708836317,0.0301575195044279,0.1142389327287674
2.3715280761718844,0.1604389106940478,-0.0338907252945005,0.0877642081707715,-0.0015779021196067,0.0308836586773395,0.1216976568102836
2.381492187500001,0.143720379072614,-0.082567516310513,0.1231003099679946,-0.0170426126569509,0.0421264618635177,0.129413902759552
2.39145727539065,0.1452952271739021,-0.1003416579321026,0.1525105288475751,-0.0354333594441413,0.0495138466358184,0.1436671167612075
2.4014213867187664,0.1475234246173873,-0.0511376281715929,0.1270212828040123,-0.0483976267278194,0.0484824068844318,0.1533998996019363
2.411385009765638,0.1122682425692677,-0.001015460652858,0.1433177530884742,-0.0499659813940525,0.0435252487659454,0.1572009921073913
2.421350097656287,0.0840036500608548,0.0097176764160394,0.1947241151988506,-0.0570902004837989,0.0575337409973144,0.1650373339653015
2.4313142089843893,0.1058854827295988,-0.0251116449028253,0.1635971555292606,-0.0628465935587883,0.0731557607650756,0.17243193089962
2.4412790527344015,0.1436804854536429,-0.0423563558228313,0.0331067353099584,-0.0591945983469486,0.0648581460118293,0.1800789386034011
2.4512485351562674,0.1549566798906773,-0.0224818809211254,-0.1119224978715181,-0.0559806190431118,0.0516980774700641,0.1865285634994506
2.4612124023437616,0.1365193981852382,-0.0082135554634034,-0.1594511417657136,-0.0464651435613632,0.0407772548496723,0.1901246309280395
2.4711774902344104,0.0790626134620979,-0.0176999073415994,-0.09490998827219,-0.0392273813486099,0.0438714884221553,0.2010646313428878
2.481141601562527,0.0274215292803943,-0.0188759653836488,-0.0338280353218317,-0.0359413102269172,0.0505152754485607,0.207333967089653
2.491106445312525,0.0312168664427474,0.0337226752512156,-0.0076256725728511,-0.0290828868746757,0.0536155179142952,0.2130893021821975
2.501070312500005,0.0486128224017098,0.0909586202979087,0.000206920748949,-0.0256511382758617,0.0596656873822212,0.211769700050354
2.51103442382815,0.0885939369931817,0.0629110680736601,-0.0047632688790559,-0.0229285769164562,0.0606360994279384,0.2079382389783859
2.5209995117187702,0.0987956705991178,0.0120586865842342,-0.0170429047375917,-0.0141084529459476,0.0580174140632152,0.207814946770668
2.530963134765642,0.0826741915553808,-0.0003226560831069,-0.049596097818017,-0.0131107419729232,0.0491673685610294,0.2061643153429031
2.5409284667968848,0.0497672166012227,0.0144862059921026,-0.0490109914064407,-0.0170855112373828,0.043735321611166,0.2040939778089523
2.5508925781250014,0.0082811408068984,0.0006217851601541,0.0088876553326845,-0.0278332233428955,0.0500853471457958,0.2036207318305969
2.5608574218749993,-0.0013907237060368,-0.000973521207273,0.0689747520267963,-0.0288928933441638,0.0605342611670494,0.2021229714155197
2.5708215332031443,0.0016965747848153,0.0231210556074976,0.076097735774517,-0.0332090184092521,0.0689826011657714,0.2014467418193817
2.5807854003906385,0.0436211515942588,0.034032617983222,0.0177186120420694,-0.0323221832513809,0.061949722468853,0.2082873433828354
2.5907504882812873,0.0513371693316847,0.0353257265336811,-0.0496422750473022,-0.0295916348695755,0.0596564337611198,0.2062756121158599
2.6007143554687673,0.0562906635532155,0.0141166420273482,-0.0475853425174951,-0.02102717384696,0.0661260560154914,0.2107568979263305
2.610679687500024,0.0789237529806792,0.0156102415859699,-0.0450876804828643,-0.0072320746257901,0.0625145882368087,0.216691255569458
2.6206435546875184,0.0972601315949112,0.0150692665770649,-0.0733142425358295,-0.0051111332140862,0.0550750456750392,0.2170957922935485
2.630607666015649,0.0702390728741884,-0.0141866385236382,-0.0407160412698984,0.0003218790516257,0.055651482194662,0.2151279598474502
2.640572509765647,0.0344402489360421,-0.0319363763563334,0.0147983406811952,0.0019424129277467,0.0667597949504852,0.21476711332798
2.6505363769531414,0.0259240207316353,-0.0346375981390476,0.0305196414262056,-0.0014405944384634,0.0730046182870864,0.2174619734287262
2.6605014648437617,0.0462276077656075,-0.0336561858862638,-0.0102092593252658,0.0036620227620005,0.073434978723526,0.2146613895893097
2.6704653320312843,0.0496929823212325,-0.0036880408629775,-0.0383002122998237,0.0074884416535496,0.0669254511594772,0.2175303846597671
2.680429443359401,0.0570819235287606,0.0477240203358232,-0.0492664274722337,0.0109827751293778,0.0625866279006004,0.2305074334144592
2.690394287109399,0.0995785646051168,0.11500555857867,-0.0585509731680154,0.0069913230836391,0.0570695213973522,0.2317327708005905
2.700358642578138,0.1162565084878355,0.0803922180980444,-0.0429150126188993,0.0050930213183164,0.0569616630673408,0.231575921177864
2.71032348632815,0.1161922841452062,-0.0095414430662989,0.0557242253094911,-0.0025686328299343,0.0642323791980743,0.2307745516300201
2.7202875976562666,0.0815546494735404,-0.0455969451792538,0.121126379546523,-0.0132604259997606,0.0721885785460472,0.2361261695623397
2.730251464843761,0.0849416980959475,-0.0821837776899337,0.1457616391092538,-0.0251668766140937,0.074011206626892,0.239705741405487
2.7402163085937588,0.1036870228372514,-0.1087372919641435,0.1536369025290012,-0.0284505523741245,0.0819919034838676,0.2471905648708343
2.7501804199218896,0.1214234262643381,-0.1145076920591294,0.1416945358008146,-0.0371301583945751,0.084736943244934,0.2483106702566146
2.760145507812524,0.104435137790814,-0.1136994444161653,0.0864174697369337,-0.0367354787886142,0.0894704461097717,0.2576999366283417
2.770109375000004,0.0898996492968872,-0.1049218253292143,0.0386076708137989,-0.036976583302021,0.0908340737223625,0.2624725699424743
2.7800744628906386,0.0971541504697874,-0.0809324624545872,0.0144072955369949,-0.0343547016382217,0.0931438282132148,0.2699451446533203
2.7900385742187694,0.0996979897337034,-0.0640790889397263,-0.0380330857962369,-0.0264626797288656,0.0933145135641098,0.2818444073200226
2.8000026855469002,0.121817430550605,-0.0566069994933903,-0.0396124639421701,-0.0189823918044567,0.0928681641817092,0.2878514230251312
2.80996728515629,0.1244867958903312,-0.0451262589275836,-0.057539165776968,-0.0122131612151861,0.0933179482817649,0.2963144481182098
2.8199313964844066,0.1187996170993894,-0.0408760541372001,-0.0742342799901962,-0.0043938541784882,0.0915757045149803,0.304552674293518
2.8298964843749985,0.1172639684973284,-0.0497879671283066,-0.0430991370141506,0.0055086482316255,0.096739538013935,0.3077660202980041
2.839860351562521,0.0972133698437362,-0.0312980784527957,-0.0439741662830114,0.006361392326653,0.0968087837100029,0.3148950338363647
2.849824218750001,0.0963567895470187,0.0365619903303682,-0.0582224718660116,0.0104858232662081,0.0939749330282211,0.318354994058609
2.8597895507812865,0.1034174121156334,0.07506181685552,-0.0625263065397739,0.0175692997872829,0.0914617106318473,0.3196897506713867
2.869753662109389,0.1114031136399135,0.0732101976394653,-0.0554202739268541,0.0181785449385643,0.0941957905888557,0.3198322355747223
2.879718505859401,0.0916097411504015,0.0481980675883591,-0.0327501769572496,0.0194467417895793,0.0898351296782493,0.3203968405723572
2.889682373046881,0.0724007444201037,0.0024571838937699,-0.0054863224565982,0.022792836651206,0.0885175392031669,0.3196743428707123
2.899646484375026,0.0593373012401163,-0.0107720077745616,0.027771804022789,0.0161911267787218,0.0926552936434745,0.3174141347408294
2.909611328125024,0.0362395169103518,0.0006537877336144,0.0683873075276613,0.0077593671157956,0.0943673998117446,0.3230895698070526
2.9195754394531406,0.0364994830207899,0.0371761767059564,0.1180950490266084,-0.0018687592819333,0.1055201888084411,0.3296057879924774
2.9295402832031385,0.0564573984222486,0.0826388279810547,0.1126373681426048,-0.0098106591030955,0.0996799543499946,0.3290252089500427
2.9395046386718775,0.0901969152104109,0.0648638095766305,0.0625035101860761,-0.0187511574476957,0.0854677334427833,0.3329749405384063
2.9494685058594,0.100632895963639,-0.0378001538231968,0.0721972212046384,-0.0307019166648387,0.088013544678688,0.3344378173351288
2.9594335937500205,0.0687893489899113,-0.1091382739804685,0.1506482421070337,-0.0423465892672538,0.099406823515892,0.3338034451007843
2.969397460937529,0.0307367182429879,-0.0737920891806483,0.1561217050820589,-0.0531679838895797,0.1079165711998939,0.3378703594207763
2.979362304687527,0.0112329763498157,-0.0311152692317962,0.0972597662687301,-0.0467697381973266,0.1057325154542923,0.347864955663681
2.9893264160156434,0.0194909554768353,-0.0182213008671998,0.0272474878877401,-0.0414186455309391,0.0923597067594528,0.3574981689453125
2.99929052734376,0.0332619258716702,-0.0144385674580931,-0.0333750308573246,-0.0400444567203521,0.086644560098648,0.3671004474163055
3.009255371093758,0.0648588411405682,0.0089833707921206,-0.0421060343235731,-0.0387085303664207,0.0901065990328788,0.3767389357089996
3.0192192382812664,0.1142648962792009,0.0119292149856686,-0.063753217986226,-0.0363542959094047,0.0903050079941749,0.3847174942493438
3.0291845703125233,0.1310379345668479,-0.0184098091766238,-0.0881236891329288,-0.0358093157410621,0.0834853276610374,0.39254030585289
3.03914868164064,0.1133216971449554,-0.064890989844501,-0.0623942045927047,-0.0282517950981855,0.0840887948870658,0.400423526763916
3.0491132812500013,0.0600618526550009,-0.1412630125157535,0.0170353059530258,-0.0235951505601406,0.0924954637885093,0.412890613079071
3.0590773925781463,0.0612566884627565,-0.1576997680537402,0.059144847407937,-0.0135036334395408,0.1002769544720649,0.4267385005950928
3.069041503906263,0.0960232467437162,-0.0856672358915209,0.0201525611907243,-0.0086519019678235,0.0864045768976211,0.4334368705749511
3.079006591796883,0.1134780567504465,-0.0432541814453899,-0.0157698160618543,0.0006116377189755,0.0794681087136268,0.4365541040897369
3.088970214843769,0.1146731482865288,-0.0166612119436264,0.0183615861207246,0.0006149969995021,0.0827228873968124,0.4364190399646759
3.098935546875026,0.1029001102432608,0.0053001522347331,0.0452571918308734,-0.0089260432869195,0.0892545580863952,0.4340421855449676
3.1088996582031427,0.0769616225948557,0.0287460558824241,0.05304068531394,-0.0165975280106067,0.0909765064716339,0.4312895536422729
3.1188632812500003,0.0707804132092744,0.0188913090832531,0.0712783527940511,-0.0228791255503892,0.0926548391580581,0.4277824461460113
3.128828369140649,0.0392764734534546,0.0201991768114268,0.0719306792229414,-0.0227560251951217,0.0970996543765068,0.4271607995033264
3.1387924804687657,0.0315401435803621,-0.0197115394249558,0.0673439359545707,-0.0253853648900985,0.0977388173341751,0.4312988221645355
3.1487573242187636,0.0437513903778046,-0.0488574082799255,0.0171790983378887,-0.0168684516102075,0.0958602875471115,0.4378833174705505
3.1587214355468802,0.0720060094814747,-0.0407952439859509,-0.034737551382184,-0.0127328289672732,0.0906253159046173,0.4371099174022674
3.1686853027343886,0.0623369214475154,0.0077994217045605,-0.0689507866293191,-0.0046516638249158,0.0876292139291763,0.4386585354804992
3.1786506347656456,0.0664185282053425,0.0172318514384329,-0.0708119043260812,-0.0033693513832986,0.088920846581459,0.4354957640171051
3.18861450195314,0.067312846696563,0.0400961558058857,-0.0507043513208627,-0.0024572322145104,0.0916847288608551,0.4407517313957214
3.19857958984376,0.087578951264359,0.0608101502716541,-0.019733458995819,0.0026903916150331,0.0899664610624313,0.445826917886734
3.2085434570312685,0.0826973532352596,0.022769757951796,-0.0093833298951387,-0.0052308896556496,0.0908057987689971,0.4411222040653229
3.2185075683593993,0.0472857750490307,-0.0327744346156716,0.0178857853025198,-0.0091979345306754,0.095414400100708,0.4398913085460663
3.2284724121094115,0.0266267987061291,-0.0479274339534342,0.0477419943839311,-0.0124636944383382,0.1010844856500625,0.4471140503883362
3.2384362792968915,0.0498117863953113,-0.0314528306230902,0.0098006785243749,-0.0102724451571702,0.0956356599926948,0.4457294940948486
3.248401367187526,0.0342404155150055,0.0283611482180655,-0.0356552507489919,-0.0074889953248202,0.092414915561676,0.4428101181983948
3.2583652343750202,0.0102829456159845,0.0649696080386638,-0.0603770195513963,-0.0047334227710962,0.0957065820693969,0.446933776140213
3.268329589843759,0.0312727978810667,0.0955428793482482,-0.0712701694875955,-0.0004023122601211,0.0964977741241455,0.4503726959228515
3.278294677734408,0.051344220126979,0.1079477490216493,-0.0856190128356218,-0.0010334816761314,0.0905269682407379,0.4482126235961914
3.288258544921888,0.0467361052770167,0.0687462039679288,-0.0539028551012277,0.0033235279843211,0.0902118608355522,0.4490403234958648
3.2982233886719,0.0214608307776972,0.0032061025649309,-0.0050543607801198,0.004393053241074,0.0928915292024612,0.4423049390316009
3.3081875000000025,-0.0019145283844321,-0.023427198947221,0.018950199663639,0.0063948528841137,0.0923417061567306,0.4424449801445007
3.318151367187525,-0.0055299789352342,-0.0011960779167711,0.033808746099472,0.0045910933986306,0.090516909956932,0.4366097152233124
3.328116210937523,-0.032246757479757,0.0233183317452669,0.0304436535805463,0.0034740688279271,0.0986929386854171,0.4261418879032135
3.3380803222656397,-0.0634404622426256,0.0351819341488182,0.0474035562098026,0.001618112437427,0.1033968776464462,0.4171632826328277
3.3480456542968824,-0.0661607905846089,0.073348729327321,-0.0023468553870916,1.88890844583e-05,0.1010205149650573,0.4111546874046325
3.358009521484405,-0.06007054741811,0.1134964691899716,-0.0847241098225116,0.0028567537665367,0.0879654288291931,0.4072569012641907
3.367973388671885,-0.0402940164655446,0.1123022909693419,-0.1037549735069274,0.0035082483664155,0.0813492685556411,0.3970633745193481
3.3779384765625196,-0.0504471616894006,0.0824357066243886,-0.052570729714632,0.0031601740047335,0.0777758359909057,0.3932547867298126
3.3879025878906504,-0.0654147214576602,0.058086424396187,0.0056488195419311,0.0023816647008061,0.0807593837380409,0.3893583416938782
3.397867187500026,-0.0759954079112038,0.0338378260634839,0.0322393048256635,-0.007146060001105,0.0820608735084533,0.3756079077720642
3.4078312988281425,-0.1072358744252473,0.0317288710854947,0.0632119507163763,-0.0119882272556424,0.0845653265714645,0.3726763129234314
3.4177966308593994,-0.1191465673735365,0.0139379244595766,0.106922497627139,-0.0143480543047189,0.0937289968132972,0.3650407791137695
3.4277604980468794,-0.1278388462645933,0.0510160476185381,0.0925309841811656,-0.02415506914258,0.0983556807041168,0.356234461069107
3.437724365234388,-0.1336957555992528,0.0729375181779265,0.0421820221692323,-0.0245308429002761,0.0981370359659195,0.3464739620685577
3.4476894531250224,-0.1232555005297064,0.1022092053696513,-0.0057587096571922,-0.0247340127825737,0.098314568400383,0.3439799845218658
3.457648193359404,-0.0859800647003576,0.1141850359760224,-0.0490799649894237,-0.0252639837563037,0.0972871258854866,0.3432787656784057
3.4676135253906466,-0.0416602267848327,0.1057021620519459,-0.0973842694312334,-0.0295417495071887,0.0815102607011795,0.3416896164417267
3.477577392578141,-0.01378108993005,0.037280367732793,-0.0729798960149288,-0.0344105437397956,0.0771778374910354,0.336588054895401
3.487541259765649,-0.0550737985767424,-0.0351014162585139,0.024722353324294,-0.0300257988274097,0.0961652100086212,0.3371534943580627
3.4975063476562696,-0.076189213450253,-0.0841420721508562,0.0604594371378421,-0.0259570218622684,0.1042212843894958,0.3423671722412109
3.5074704589844004,-0.0650096477881073,-0.039723669231683,0.0023258125990629,-0.0248039849102497,0.0942763835191726,0.3455056846141815
3.5174350585937617,-0.052529849714972,0.0134305594593286,-0.056280105626583,-0.0195178762078285,0.0823126658797264,0.3467608392238617
3.5273991699218783,-0.047386020553112,-0.0133944652326405,-0.0611135171324014,-0.0150703964754939,0.0842732861638069,0.3424198627471924
3.5373632812500233,-0.0547089838523417,-0.0343954599462449,-0.0397100790977478,-0.0110770836472511,0.0954054147005081,0.3424818813800812
3.5473283691406436,-0.0227715480500832,0.0074549921810626,-0.0758650960624218,-0.0060977600514888,0.0908819958567619,0.3414198458194732
3.557292236328138,0.0181339148446917,0.0186697752870619,-0.1443038415163755,0.0053365221247076,0.0721413344144821,0.3385686874389648
3.567257324218758,0.0153030022677034,-0.0156306998521089,-0.0836573573738336,0.0148233948275446,0.0654772147536277,0.3339309990406036
3.577221435546889,-0.0195846251096576,-0.0519660418197512,0.0417886389374732,0.0185957625508308,0.0753942877054214,0.3265726864337921
3.58718554687502,-0.055522492192313,-0.0254116507627069,0.1013642789781093,0.0108561925590038,0.0820544064044952,0.3194967210292816
3.5971501464844096,-0.0575733603075146,0.048974020396918,0.0800035110414028,0.0022352738305926,0.089024432003498,0.3033875226974487
3.607114257812526,-0.0815361639687791,0.0984589129254221,0.0736351450532674,-0.0060745170339941,0.0948958918452262,0.2898812294006347
3.617079101562524,-0.1083644400637596,0.0825067260339856,0.0678624068707227,-0.0063301809132099,0.1025250479578971,0.2822273075580597
3.6270432128906407,-0.1360718736134469,0.0678173986852169,0.0291027603656053,0.0046504801139235,0.096721813082695,0.2752338945865631
3.637007080078149,-0.1199603314418345,0.0410788832329213,-0.0547346297502517,0.01156244892627,0.0867197811603546,0.2734794020652771
3.646972412109406,-0.0882676641808822,0.0275701439708471,-0.1117003795534372,0.0153720108792185,0.0740368366241455,0.2652278542518616
3.6569362792969002,-0.0686246964801102,0.0424266445800662,-0.0776630853950977,0.0185166709125041,0.0674090310931205,0.2604999542236328
3.6669013671875206,-0.0637142011500895,0.0441828405976295,-0.0188601832926273,0.0159731805324554,0.0658096894621849,0.2453830540180206
3.6768652343750006,-0.0886474938113242,0.0309156550064682,-0.0127303022354841,0.0072523932904005,0.0631760880351066,0.2378271371126175
3.6868293457031456,-0.1004625443654134,0.0381019132487475,0.008041852158308,-0.0065571703016757,0.0632925108075141,0.2222047448158264
3.6967941894531435,-0.1221747195556759,0.0829262666203081,0.0344359380871057,-0.0140731437131762,0.0621553398668766,0.2100878953933715
3.7067583007812885,-0.1527646132064983,0.0821063285395503,0.0712117172986269,-0.0245817080140113,0.0655029118061065,0.2020158618688583
3.7167233886718805,-0.1507709917038679,0.0527535389356315,0.0983387936770916,-0.0283767133951187,0.0761094838380813,0.1941081434488296
3.726687255859389,-0.1487840556703507,0.031611820577085,0.1021545525729656,-0.030489569529891,0.0796582996845245,0.1918423324823379
3.7366513671875197,-0.1414978807175532,0.0195467042520642,0.0597726239174604,-0.0293023325502872,0.0756941884756088,0.1877178996801376
3.74661645507814,-0.1283546502996236,0.0249622995600104,0.0117348614573478,-0.0293386466801166,0.0682286694645881,0.1780719012022018
3.7565803222656484,-0.1235268282843753,0.0119860597394406,0.0079980130165815,-0.0295959077775478,0.0657913461327552,0.1699849367141723
3.7665451660156464,-0.1000012835292145,0.0174929865926504,0.0089952073603868,-0.0249649360775947,0.064364954829216,0.1620314121246338
3.776509277343763,-0.102177933448553,0.089972385739535,-0.0084206223428249,-0.015772771090269,0.0631798505783081,0.1567461043596267
3.7864731445312856,-0.0836163677763193,0.1082661673210561,-0.0542822098076343,-0.007840096950531,0.0564812608063221,0.1536821722984314
3.7964382324218775,-0.0513309587866067,0.0516505461297929,-0.1010854620367288,-0.0039313752204179,0.0455601699650287,0.1442670822143554
3.8064023437500225,-0.0448577441845089,0.0290646203123033,-0.1167477260708808,0.0072186579927802,0.0363891348242759,0.1409738212823867
3.816367431640643,-0.0609523352213203,0.0424791054196655,-0.0906610986560583,0.0124552315101027,0.0285280160605907,0.1381785571575164
3.8263315429687594,-0.0847685700187459,0.0597894289217889,-0.0142862995058298,0.0086173526942729,0.0291831437498331,0.1297808289527893
3.8362951660156455,-0.101049148614332,0.0548820753969252,0.0549812979876995,0.0130059756338596,0.0423460826277732,0.1235274598002433
3.846260253906266,-0.1143756997099146,0.0508555963598191,0.0597574263483285,0.0062045194208621,0.0410329289734363,0.1162354201078414
3.856224365234411,-0.1088356377720832,0.0739487410470843,0.0409253001064062,0.0001748567447066,0.0454742833971977,0.107253648340702
3.8661892089844088,-0.0807009552536532,0.0544593199402093,0.0831283650636672,-0.0111692212522029,0.0593967847526073,0.1103970110416412
3.8761530761718888,-0.0311327683558687,0.0900089183576405,0.1147942539155483,-0.0097795836627483,0.0483654402196407,0.0855361372232437
3.8861184082031457,-0.0945445890258997,0.0283681624807417,-0.0416653048187494,-0.0157269649207592,0.023074772208929,0.0825579017400741
3.8960825195312907,-0.0649134208720177,-0.0436601318977773,0.0053290860682725,-0.0215520970523357,0.0270324982702732,0.0718860849738121
3.9060461425781483,-0.1027815253648906,0.038299627777934,0.1179571018606424,-0.0298647955060005,0.0281618423759937,0.0683986768126487
3.9160112304687686,-0.0911393471596762,0.0131530576921999,0.132805126902461,-0.038469735532999,0.0321714952588081,0.0481567904353141
3.9259753417968852,-0.1380476671984419,0.0314687588445842,0.1013584337592124,-0.0453037470579147,0.0302580557763576,0.0405140817165374
3.935939453125002,-0.1220241686364635,0.0137308575801551,0.094458737373352,-0.0485163182020187,0.0374709628522396,0.0306412111967802
3.945904052734406,-0.1004896515680476,0.0631787790991365,0.1041553710013628,-0.0502107329666614,0.0404717102646827,0.0266975536942482
3.9558681640625224,-0.0628894407637417,0.039980128210783,0.0329962606728076,-0.0407581068575382,0.035622626543045,0.0222327634692192
3.9658332519531427,-0.044748950047791,0.0367025678448379,-0.0299620075434446,-0.0313059315085411,0.0244809910655021,0.0184403900057077
3.9757973632812877,-0.047136502771452,0.0395288773119449,-0.0574462267965078,-0.023143608123064,0.0165122803300619,0.0152541846036911
3.9857624511718797,-0.0591995732698589,0.0596890372872352,-0.0451747742444276,-0.0116979535669088,0.0179996602237224,0.0176766477525234
3.995726318359388,-0.0396928722346201,0.0452105762101709,-0.0213987618595361,-0.0011001708917319,0.0136243514716625,0.0178979560732841
4.005690429687519,-0.0047386458944529,0.0267776784189045,-0.048784781435132,0.0087149143218994,0.0028457196895033,0.0164492093026638
4.015655273437531,-0.0235154982851818,0.0282562265388667,-0.0213666131556034,0.0167779009789228,0.0014797843759879,0.0087944865226745
4.025619140625025,-0.0676125968281179,0.016526625778526,0.0418511827796697,0.015282086096704,0.0056976373307406,0.0057014739140868
4.035584228515646,-0.0731543757990002,-0.0160316818684339,0.0831727887272834,0.0181300714612007,0.0100564323365688,0.0062199914827942
4.045548339843762,-0.0452140833415091,-0.0158015263743698,0.0572837297111749,0.0201234444975852,-0.001809281297028,-0.0026065232232213
4.055512451171879,-0.0494553741730749,0.0226531458348035,0.0024883096843957,0.0115374149754643,-0.0083745056763291,-0.0071701155975461
4.065477294921891,-0.0554321104951202,0.0274028245799243,0.0397352135390043,0.0051242522895336,0.0042326627299189,-0.0089794863015413
4.075441162109399,-0.0430770713128149,0.050586277899146,0.0517588288098573,0.001937779597938,0.0008813408203423,-0.0155023671686649
4.08540625000002,-0.0253170312818139,0.0815362735666334,-0.0077326400786638,-0.004294813144952,-0.0186750702559947,-0.0257573891431093
4.0953703613281505,-0.0315044146798551,0.0638376813992857,-0.0151870477378368,-0.0116930743679404,-0.0188806653022766,-0.0325617641210556
4.105334228515645,-0.0683422262769192,0.0081594871886074,0.0627390725076198,-0.0234526172280311,-0.0059634437784552,-0.0414506010711193
4.115299072265643,-0.0630422201726585,-0.0073214289292693,0.0927110169231891,-0.0342413485050201,0.0062213176861405,-0.0450416058301925
4.12526342773441,-0.055567536910437,0.0267481600634753,0.0417477224051952,-0.0400878749787807,0.0028309186454862,-0.0513844452798366
4.135228515625002,-0.0563770631950348,0.0235759597681462,-0.0148918641835451,-0.0314507074654102,-0.0116263180971145,-0.0548510812222957
4.145192138671888,-0.0764566322147846,0.0241946761883795,-0.0091109426945447,-0.02371396869421,-0.0187009461224079,-0.0559810996055603
4.1551562500000045,-0.0593559694079682,0.0642415860250592,-0.0085153148889541,-0.0223150085657835,-0.018692422658205,-0.0577315986156463
4.165121337890639,-0.0130629317233338,0.0582902764052152,-0.0148965403586626,-0.0273063890635967,-0.0234141647815704,-0.0614669173955917
4.17508544921877,0.005075549698621,0.0160617847457528,-0.0166647190749645,-0.030749324709177,-0.024751603603363,-0.0716543048620224
4.1850500488281455,-0.0198776897720992,0.012322013695538,0.0285129777789115,-0.0391552411019802,-0.0202887319028377,-0.0775598883628845
4.1950141601562905,-0.050517998435907,0.0050986383132636,0.0967997475415468,-0.0438607782125473,-0.0126079088076949,-0.079444870352745
4.204978271484407,-0.089325685333833,0.0102701957322657,0.1309995387852192,-0.0414798259735107,-0.005353283137083,-0.0793085172772407
4.214943359374999,-0.0877856893502175,-0.0337488326057791,0.1040969188123941,-0.0424803756177425,0.0013304518070071,-0.0768243223428726
4.224907226562522,-0.0587018163481727,-0.0413885337039828,0.0486509259223938,-0.0473740138113498,-0.0088848704472184,-0.0745651274919509
4.234872314453142,-0.0167930216297507,-0.0261382114715874,-0.0150923551917076,-0.0460778549313545,-0.0179049968719482,-0.0746122598648071
4.244836425781287,0.0101806542852893,-0.027173984260112,-0.03528583291471,-0.0431097596883773,-0.0224105324596166,-0.0805026441812515
4.2548000488281446,0.0023796616781502,0.0012272037073969,-0.0494154805541038,-0.0477639026939868,-0.0248217582702636,-0.0837831273674964
4.264765136718765,-0.0009585793664678,0.0343026670962572,-0.0322989260584115,-0.0555896051228046,-0.0234049353748559,-0.0896487534046173
4.2747292480468815,-0.0137292501449584,0.0195471426434814,-0.0006108253747224,-0.0584120228886604,-0.0169438403099775,-0.0944584235548973
4.28469433593753,-0.0166189802370965,-0.0029489129334688,0.0279530058085918,-0.0582126453518867,-0.0117007344961166,-0.1022790893912315
4.294658447265647,-0.0239935641257092,-0.0226912858881056,0.0337280820786952,-0.0590755119919776,-0.0104612987488508,-0.1086016967892646
4.304622314453141,-0.0374547013863921,-0.0641942397519946,0.0155231478244066,-0.0555895194411277,-0.0096122110262513,-0.1113298311829567
4.314587158203139,-0.040746765201725,-0.0864418735258281,0.0063677814662456,-0.0524046421051025,-0.0030618999153375,-0.1150710433721542
4.324551269531284,-0.0385815134592354,-0.0424967872068285,-0.0051437926292419,-0.0476557686924934,-0.0008235019631683,-0.115397498011589
4.33451635742189,-0.0172132928684353,0.0001880699180066,-0.0405512060970068,-0.0442610383033752,-0.0012695812620222,-0.1216239780187606
4.3444802246093985,0.0156145159022882,0.035393969464302,-0.0911497589558363,-0.0389621555805206,-0.0100446557626128,-0.1245755776762962
4.354444335937529,0.0363768795544281,0.0432514049664139,-0.1133235968410968,-0.0243651047348976,-0.014627955853939,-0.1239492073655128
4.36440942382815,0.0509678610952571,0.02317731583938,-0.0832645586639642,-0.0185872893780469,-0.0252212937921285,-0.1241787672042846
4.374373535156266,0.0433910691654309,0.0213818107247352,-0.0798766697913408,-0.0203982386738061,-0.0285076349973678,-0.1291066855192184
4.384338134765642,0.0238369122592732,0.0235680687226355,-0.0815612618774175,-0.0179544314742088,-0.0352905429899692,-0.1312534511089325
4.394302246093758,0.0373699091797694,0.0418662342183291,-0.0600222147643566,-0.0190431308001279,-0.0369699299335479,-0.1344417780637741
4.404266357421889,0.0156408193873241,0.0572483661368489,-0.0159621237635612,-0.0100003713741898,-0.0296073351055383,-0.1407705396413803
4.414231445312524,-0.0042824265595525,0.0342586818240582,0.01176817920506,-0.0109495222568511,-0.0226365122944116,-0.1437665820121765
4.42419506835941,-0.0174053813744336,0.0466428009703755,0.0118318920910358,-0.0019886083900928,-0.0224286243319511,-0.1502634137868881
4.434160156250002,-0.0201226775091141,0.0813366593413054,-0.0111737204432487,-0.0055063776671886,-0.0177901964634656,-0.1515302807092666
4.444124511718769,-0.0053786973636597,0.0762476656392216,0.0003927987098693,-0.0059059364721179,-0.0140167605131864,-0.1515581905841827
4.454088378906263,0.0235265311358496,0.0280466754414141,0.0137456167578697,-0.0037176166661083,-0.0121536133810877,-0.1512708365917205
4.46405322265629,0.0544760518793016,-0.0210467335514724,0.0050333179920911,0.0020151054486632,-0.0135922627523541,-0.1460041552782058
4.474017333984406,0.0544264405839145,-0.042071693662554,-0.0263642753124237,0.0045371195301413,-0.0199689343571662,-0.1449950933456421
4.483982421875027,0.0685980276688933,-0.0136617378666996,-0.025455343773961,0.005686730146408,-0.0224871821701526,-0.1414895355701446
4.493946044921884,0.085898414298892,-0.0225048234052956,-0.0137801035493612,0.0068513313308358,-0.0237404648214578,-0.1389422267675399
4.503910156250001,0.060610499513708,-0.0381327467784285,0.0130278238773345,0.0034110452979803,-0.0165565349161624,-0.1393214911222458
4.513875488281286,0.0334532106600701,-0.0209969030603766,0.0392062212288379,0.0057157445698976,-0.0138006974011659,-0.1359786987304687
4.5238395996093885,0.0365687123320996,0.0383384984835982,0.008737433207035,0.0118684507906436,-0.0195129308849573,-0.1322401314973831
4.533804443359401,0.0408527828594669,0.0529196892827749,-0.032232875084877,0.0126940310001373,-0.0195864345878362,-0.129481628537178
4.543768310546881,0.0522082896104082,0.0130022510446608,-0.0329296251773834,0.0229022726416587,-0.0176199972629547,-0.1271508634090423
4.553732421875026,0.0549178408300504,0.0102187578059732,-0.0444143112659454,0.0282238032668828,-0.0232299454510211,-0.1267724186182022
4.563697265625024,0.0663030120668932,0.0244745160430669,-0.0435953960984945,0.0327121131122112,-0.0192618779838085,-0.1253101080656051
4.573661132812518,0.0664271864358335,-0.0086043083466589,-0.0202566060870885,0.0378424264490604,-0.018254404887557,-0.1296625137329101
4.583626220703138,0.0535699333524331,-0.0285154619969427,-0.029592005187273,0.0369827598333358,-0.0207055881619453,-0.1251583099365234
4.593590576171891,0.0464821305159479,-0.0308862827815115,-0.0103588969290256,0.0372224450111389,-0.0188166089355945,-0.1220589280128479
4.6035544433594,0.0416300873748958,-0.0178644502535462,0.000824175864458,0.0353582315146923,-0.027418864890933,-0.1192058846354484
4.613519287109398,0.0427642790365964,0.0313594532512128,-0.0085059625387191,0.028997004032135,-0.0287230163812637,-0.1203084364533424
4.6234833984375285,0.0197974276101216,0.0861392373174428,0.0159469261944293,0.0223801154643297,-0.0257336664944887,-0.1197731122374534
4.6334482421875265,0.0456382270377129,0.1072452998407185,0.0570195258170366,0.0130119137465953,-0.0168956983834505,-0.1227286830544471
4.643412353515643,0.0603584244487807,0.095040628914535,0.0427145216107368,0.007945698685944,-0.0213668290525674,-0.1240511983633041
4.6533762207031515,0.0639069837758317,0.0625042408384382,0.0280938755840063,0.004038575105369,-0.0296772215515375,-0.1237044483423233
4.663341308593758,0.0856350871875882,0.0133313368685543,0.0309340674459934,0.0001163724809885,-0.0322254709899425,-0.124999776482582
4.673305175781266,0.0683044515497982,-0.0673465663030743,0.0948719943493604,-0.0070635098963975,-0.0167980436235666,-0.1255635768175125
4.683270507812523,0.0289838466936722,-0.0950906055361032,0.1337882927209139,-0.0145274819806218,-0.0055818352848291,-0.121368907392025
4.693234375000003,0.0470447328347712,-0.0458903751678764,0.0781260267317295,-0.0139799360185861,-0.0076700206845998,-0.1214120462536811
4.703198486328148,0.0283577506845816,0.0566026155792176,-0.001301730248332,-0.0074044056236743,-0.0157564394176006,-0.1227792650461196
4.713163330078146,0.0312606325192377,0.0554633824162185,0.0083750296354293,0.0074768057093024,-0.008575758896768,-0.1238868683576583
4.7231274414062625,0.0435312082884833,0.0455346935980021,-0.0120166010081768,0.0159753933548927,-0.0114755723625421,-0.1184186115860939
4.733092041015638,0.0871687995608895,0.0931534999936819,-0.1450391700536012,0.0203336589038372,-0.0189928766340017,-0.1134771183133125
4.743056152343769,0.1524243849340826,0.1022054059773683,-0.1891892774254083,0.0229180715978145,-0.0289696622639894,-0.1085146069526672
4.7530202636719,0.1554581631394103,0.0457753704860806,-0.1275415072858333,0.025396678596735,-0.0309598427265882,-0.1056756749749183
4.762985595703142,0.0792914172492921,-0.0485993418656289,0.0030208091259002,0.0254998318850994,-0.0230185966938734,-0.0999403223395347
4.77294921875,0.0179600926477462,-0.0885517052866518,0.1116904426813125,0.022437997162342,-0.0149998189881443,-0.0975136533379554
4.782914306640649,0.0012044073536992,-0.0520041818730533,0.1480371828258037,0.0264417883008718,-0.0072902729734778,-0.0912219136953353
4.792878417968765,0.0384251903863623,-0.030413404572755,0.1025046811848878,0.0252255219966173,-0.0099342595785856,-0.0876524746417999
4.802842285156288,0.0753598499540239,0.0090035367973148,0.052414077848196,0.0229207426309585,-0.0150240613147616,-0.0874798744916915
4.812807128906286,0.0959394409177824,0.0452870024472475,-0.0088666125446557,0.0243410058319568,-0.0221935547888278,-0.089125707745552
4.822771240234388,0.0910538243006914,0.0525207530930638,-0.048835050317645,0.0208660215139389,-0.0249359868466854,-0.0961825475096702
4.832736572265645,0.0521312423188239,0.0313864873886108,-0.0271615631699562,0.0244682133197784,-0.0252515729516744,-0.0963924080133438
4.842700439453139,0.0177605880202725,0.0333389366306364,-0.0206587571471929,0.0268011428415775,-0.0229556616395711,-0.0969516709446907
4.852664306640648,-0.0009403861226513,0.0797423758871853,-0.0336696298897266,0.027432844042778,-0.0265956688672304,-0.0949167534708976
4.862629394531268,0.0254140253828838,0.1063435286954045,-0.0629419016033411,0.0273237414658069,-0.0333319492638111,-0.0964360907673835
4.872593505859399,0.0222684208335354,0.048648587834835,-0.0491419243097305,0.0307690724730491,-0.0307148620486259,-0.0961348861455917
4.882558349609411,0.0036598742144182,-0.025806056907773,0.0146890350878238,0.0329408049583435,-0.0198848005384206,-0.0938192382454872
4.892522216796891,0.0093732834251597,0.0001499298647046,0.0460042108058929,0.0311381090432405,-0.0160943232476711,-0.0890095680952072
4.902486328125022,0.0433666653765365,0.0381647493518888,-0.0147919109404087,0.0293631963431835,-0.0240556597709655,-0.0920724794268608
4.91245117187502,0.0521514083240181,0.0115082130946218,-0.0309007496982812,0.0252299718558788,-0.0245944149792194,-0.0924959257245063
4.922415283203151,0.0486716764494776,-0.0098804657623171,0.0410679234474897,0.0318310745060443,-0.0182813536375761,-0.0874683782458305
4.932380371093771,0.0275596225768327,-0.0017250702269375,0.0703571462959051,0.025485560297966,-0.0195098705589771,-0.0873690396547317
4.942344482421888,0.0282364258598536,-0.0008519406542181,0.01495733063519,0.0191054940223693,-0.0242763943970203,-0.0871824026107788
4.95230834960941,0.0383383888857439,0.0089016838580369,-0.0037590602725744,0.0111335860565304,-0.0258694980293512,-0.087762176990509
4.962273437500002,0.0345436362452805,0.0039797172859311,0.0469096352130174,0.0080099711194634,-0.026062874123454,-0.088278017938137
4.972237304687525,0.0233052530679851,0.0134806822113692,0.0938233620792627,-0.0012748739682137,-0.0233408566564321,-0.0871709361672401
4.982202148437523,0.0334505072463303,0.0584365530081093,0.0949596726328134,-0.0092364819720387,-0.0157259982079267,-0.0924671590328216
4.992166259765639,0.0262066735979169,0.057786272405833,0.0837795224487781,-0.0129249598830938,-0.0128037119284272,-0.0940211117267608
