time,ax,ay,az,gx,gy,gz
0.0,-0.0351057453737594,-0.0384216467224061,-0.0791834268301725,-0.0262042265385389,0.0153447166085243,-0.0310012772679328
0.009963867187508413,-0.0413297892540693,0.0292072436533868,-0.0366992068439722,-0.02975395321846,0.0152413854375481,-0.0278153382241725
0.019928710937506366,-0.0209921720863319,0.0625032179251313,-0.0537666615009307,-0.0278545320034027,0.0187969096004962,-0.0246890727430582
0.02989306640625955,0.0191931781066581,0.0181710319846868,-0.0616378332674503,-0.0224112980067729,0.0187540315091609,-0.0247356779873371
0.03985815429687989,0.0419782249591313,-0.0396178707696497,-0.0530745875835418,-0.0123229380697011,0.021430991590023,-0.0157800279557704
0.04982202148437409,0.0349094373503699,-0.0753286510981619,-0.0485147323220968,0.0038009043782949,0.0191398747265338,-0.0092965625226497
0.059786865234372044,0.043687056437321,-0.0908908157587051,-0.0499631775647401,0.0169143676757812,0.0118526024743914,-0.0026788911782205
0.06975097656250284,0.0458333112183958,-0.1130098547168075,-0.0462228219926357,0.0257603228092193,0.0074906107038259,0.006622465327382
0.07971606445312318,0.0454175517580471,-0.1053882737971842,-0.0085632456839084,0.031373843550682,0.0128818061202764,0.0109008476138114
0.08967968750000921,0.0410817327771335,-0.0902053177125751,0.0206301155745983,0.0305788945406675,0.0062590567395091,0.0110387988388538
0.09964501953125193,0.024702589177899,-0.0602121843785047,0.0124164139807224,0.0310985967516899,0.009931425563991,0.0153323132544755
0.10960913085938273,0.0248411939309909,-0.0318706176437437,0.0405617274910211,0.0318754389882087,0.0092350086197257,0.0114512871950864
0.11957397460938068,0.0252188498706556,0.0081552494049072,0.0249205062448978,0.0262674055993556,0.0133090699091553,0.0084017338231205
0.1295378417968749,0.0100326058504171,0.0217088507220149,0.0218710555464029,0.027839470654726,0.016106454655528,0.0070152920670807
0.13950195312500568,0.0025499402111396,0.0165501527845859,-0.017383680999279,0.0298159550875425,0.0061679114587605,0.0058144587092101
0.14946704101562602,0.002477660426218,0.0459995346307754,-0.0464817651897668,0.029090778902173,-0.0046154940500855,0.0035590275656431
0.15943090820313444,-0.0029872904487885,0.0939988647766411,-0.0127940151214599,0.0260057523846626,-0.0079273870214819,-0.0026754429563879
0.16939624023437716,0.0016435842222534,0.1027224155887961,0.0319055428266525,0.0187302641570568,-0.0065164444968104,-0.0050576403737068
0.17936010742187136,0.0036508506577461,0.0543321864292025,0.0419388610631227,0.0075630582869052,-0.0073581989854574,-0.0111860278993844
0.18932495117188353,0.0082779076701961,0.0073240592777729,0.0649210927218198,-0.0018951585516333,-0.0034686520230025,-0.0167384520173072
0.1992890625000001,0.0084558397866785,0.0096267832621932,0.0842705208361148,-0.0120737198740243,-0.0047611547634005,-0.0213894769549369
0.20925415039063466,-0.0008310439966619,0.0134017717562615,0.0971907926857471,-0.0183891393244266,-0.0083151431754231,-0.022656075656414
0.21921777343750648,-0.0029207280186004,-0.0258916893646121,0.1200350771784782,-0.0293290689587593,-0.0022101702634245,-0.0268534421920776
0.22918286132812682,0.0221535074832849,-0.0408402521714568,0.1535229207605123,-0.035024769604206,0.0062581496313214,-0.0318841524422168
0.23914697265625762,0.025103224134352,-0.0322151932977139,0.1056032317221164,-0.043343000113964,0.00434399722144,-0.0330758802592754
0.24911206054687796,0.0304982150456868,-0.0127507605016231,0.0567956539332866,-0.0473803505301475,0.005856939125806,-0.0352120026946067
0.25907592773437216,0.0355572337346151,0.0226098912149667,0.0329535905748605,-0.0528613999485969,0.0082772197201848,-0.0315357744693756
0.2690410156250067,0.0419871206516399,0.0274529473319649,0.0362526321202516,-0.0548603944480419,0.009748344309628,-0.0313294380903244
0.2790051269531233,0.0447417713883332,-0.0142002286575734,0.0024310265392065,-0.0509910881519317,0.0092410128563642,-0.0291019733995199
0.28896997070312125,0.0562308961899951,-0.0740609692499041,-0.0005465279668569,-0.0460820831358432,0.0182345062494277,-0.0209636185318231
0.29893383789062966,0.047965829735063,-0.1276676178835332,0.0144487965911626,-0.031873445957899,0.0220885314047336,-0.0075585199519991
0.30889892578125,0.0573126635447144,-0.1636247741885483,-0.0496159715622663,-0.0229915380477905,0.0182304084300994,0.0030315397307276
0.3188630371093808,0.0808619910342618,-0.1612190282210707,-0.0978559785962104,-0.0044501209631562,0.0092132426798343,0.0139576680958271
0.32882812500000114,0.0781362193321809,-0.1133154135346412,-0.1051180785536766,0.0096017830073833,0.0018519987352192,0.0189947709441185
0.33879199218750955,0.0580985166927799,-0.0560271537788212,-0.0966448492407798,0.0254943147301673,-0.0042225560173392,0.0243297945708036
0.34875585937500375,0.0421182544843293,0.0156521810315549,-0.0699678547173738,0.0274938195943832,-0.0103329122066497,0.0204548947513103
0.3587209472656241,0.0059318012017756,0.0524139317177236,-0.0506073206871747,0.0225528292357921,-0.0105219604447484,0.0154292825609445
0.3686850585937549,-0.0217516852167434,0.0793674050949513,0.0194745157986879,0.014041899703443,0.0011378914350643,0.0150836054235696
0.37864965820313046,-0.0330458902345038,0.0877729759991168,0.0926373671650886,0.0089084105566143,0.0190694909542799,0.0088542671874165
0.38861376953124704,-0.0333365254778414,0.0482103425480425,0.068593059232831,0.0079856263473629,0.0222178809344768,0.0065000327304005
0.398579101562504,-0.0252548710321076,-0.0035629531785845,-0.0281458980321884,0.0069896774366497,0.0127209508791565,0.0007736450061202
0.4085427246093758,-0.0136771546315401,-0.0389870255202055,-0.0863607711136341,0.0160380341112613,0.0016789523651823,-0.0017251991666853
0.41850732421875136,-0.0179269392968155,-0.0145090023458003,-0.0824631791532039,0.0224742330610752,-0.0035186177119612,-0.0020384117960929
0.42847143554688216,-0.0063800016270019,0.03943082376495,-0.0497714543849229,0.0276420973241329,-0.0086646433919668,-0.0080843195319175
0.4384367675781249,-0.0033181846372783,0.0706868166416883,-0.0348918651610612,0.0243366137146949,-0.0123137356713414,-0.0145057123154401
0.4484006347656333,0.0028919768481515,0.0930873028896749,-0.0081499887079,0.0220201984047889,-0.0100708212703466,-0.0211718697100877
0.45836572265625364,0.0015408362338319,0.0972758406206965,0.0342331089913845,0.0159482657909393,-0.0048095593228936,-0.0255461204797029
0.46832958984374784,-0.0048808856430463,0.0543288254283368,0.0655219812244176,0.0109449848532676,-0.0025352197699248,-0.0281200651079416
0.4782944335937458,0.0149821362828835,0.0302365867011249,0.0681798022568225,0.0077402321621775,-0.0061183096840977,-0.0327733531594276
0.4882585449218766,0.0449827953362837,-0.0066965750291943,0.061151511055231,0.0054994486272335,-0.0091356709599494,-0.0325810723006725
0.4982238769531335,0.0631658100197091,-0.0401303503364324,0.0853045400589704,0.0056243613362312,-0.0084078721702098,-0.031514573842287
0.5081877441406277,0.0830925082989968,-0.0766081695146858,0.1007581297785043,0.0050211548805236,-0.0106412004679441,-0.0317505300045013
0.5181525878906257,0.0882954472369514,-0.1021586442261934,0.0712473731338977,-0.003735841717571,-0.0117924753576517,-0.0281842332333326
0.5281166992187565,0.0872298820983618,-0.1122419390842318,0.0713040717571973,-0.0103876190260052,-0.0105650248005986,-0.0209271181374788
0.5380805664062507,0.0898172134441323,-0.1084103980973362,0.107478377944231,-0.0222026966512203,-0.006721313111484,-0.0212400201708078
0.5480454101562486,0.0945776693115942,-0.1170095918774604,0.1139227317780256,-0.0304523706436157,0.0029880392830818,-0.0163171663880348
0.5580095214843794,0.1034180697027593,-0.1198627893514931,0.0830763426154851,-0.0352175459265708,0.003994402475655,-0.0131885819137096
0.5679746093749998,0.0917998934276402,-0.0992111925974488,0.0580143820732831,-0.0382016226649284,0.0014510835753753,-0.0084643997251987
0.5779384765625082,0.0730411612154915,-0.0485391361109912,0.035539515414834,-0.0431380830705165,0.0061169797554612,-0.0088651683181524
0.5879035644531285,0.0621607428967021,-0.0243048585645854,-0.0239466927766799,-0.0445982962846756,-4.23791352659e-05,-0.0092039238661527
0.5978676757812593,0.0432003323663026,-0.0187611068323254,-0.0274082314074039,-0.0502164997160434,0.0061409370973706,-0.0079693384468555
0.6078325195312573,0.0167990495117381,-0.0324051629118621,-0.0017857143729925,-0.0504553839564323,0.0170921217650175,-0.0070867668837308
0.6177966308593739,0.0119749538235366,-0.0104817926563322,0.0131125795513391,-0.0452693030238151,0.0311018507927656,-0.0045431107282638
0.6277614746093718,0.0183841450124047,0.0012773264594376,-0.0365291109740734,-0.0324555039405822,0.0312749557197093,-0.0014514466747641
0.6377255859375026,0.0248586565224453,0.0028201719872653,-0.1383878954708576,-0.0235153809189796,0.0228666644543409,0.0006556315347552
0.647690673828123,0.0479922062853351,-0.0160084471233189,-0.1588239497780799,-0.0056168083101511,0.0184111967682838,0.0042285285890102
0.6576547851562538,0.0411140093452297,-0.0192741709209978,-0.118854927483201,0.0108819641172885,0.023364195600152,0.0063359164632856
0.6676196289062517,0.0299745382314547,0.0183069333240389,-0.0760521430671215,0.0255916658788919,0.0186021961271762,0.0043199034407734
0.6775834960937459,0.0051693837282247,0.021391455335915,-0.0903922185868024,0.0368131734430789,0.0114401336759328,0.0075033982284367
0.6875476074218767,0.0027699944362975,-0.002180997300893,-0.0708370387673378,0.0429120771586895,0.0122846215963363,0.00723308743909
0.697512695312497,-0.0056759267445653,-0.0006977730058133,-0.0263812264472246,0.0448410063982009,0.0134742558002471,0.0082248486578464
0.7074765625000055,-0.0189069998427294,0.0238992003731429,0.0267564895004034,0.0439957194030284,0.0160042587667703,0.0063071064651012
0.7174414062500034,-0.037046431112755,0.0317221490837633,0.0367208341538906,0.0388668775558471,0.0174307692795991,0.0049635181203484
0.7274057617187566,-0.0426255464193411,0.0230700560726225,0.0446773461163043,0.0338047407567501,0.0281289536505937,-0.00089463731274
0.7373706054687545,-0.0315762195407412,0.0379047832414507,0.059409635823965,0.0337512902915477,0.0335758365690708,-0.0005095512606203
0.7473344726562487,-0.0116676414400339,0.0528811108380556,0.0058726914256811,0.0369825027883052,0.0248627718538045,-0.0047919144853949
0.7572995605468833,0.0127092229148373,0.0428502768196165,-0.0690969171017408,0.0384810492396354,0.0084129841998219,-0.008351182565093
0.7672636718749999,0.0117224038345739,0.0311687529847025,-0.0689227295786142,0.0385883748531341,0.0075397342443466,-0.0111573543399572
0.7772285156249978,0.0188098048122599,0.0160834120556712,-0.0243418295741081,0.0407602339982986,0.0028613163158297,-0.0117858294397592
0.7871923828125063,0.0123904027566313,0.0340257498510181,0.0092523969918489,0.0348706543445587,0.0015406546881422,-0.0128449685871601
0.797157714843749,0.0129878571931272,0.0453445778533816,0.0370060808360576,0.0254603028297424,0.0065591717138886,-0.0146477036178112
0.8071215820312574,0.010378441879712,0.0464164448685944,0.0861503432333469,0.0096744177863001,0.0059202797710895,-0.0136953573673963
0.8170866699218777,-0.0015540245089679,0.0123085696920752,0.101461894133687,-0.000433531589806,0.0064182113856077,-0.0143534317612648
0.8270507812500085,-0.0116491194026544,-0.0483943208128213,0.1134516071349382,-0.0155757330358028,0.0066794669255614,-0.0143030975013971
0.8370146484375027,-0.0036197979323565,-0.0654781420826911,0.0979050784349441,-0.0264954939484596,0.0093982890248298,-0.0123310275375843
0.8469794921875007,0.006497179999575,-0.0466102138750255,0.0784837541282176,-0.0303954258561134,0.0091349016875028,-0.0073913955129683
0.8569436035156315,0.0151857690962031,-0.0137795190274715,0.0671340925961732,-0.0289750341325998,0.0110101792961359,-0.002490357030183
0.8669089355468742,0.0368933777092024,0.0105472591079771,0.0259948574781417,-0.0263595432043075,0.0107111055403947,-0.0078944433480501
0.876872558593746,0.0580255245218053,-0.0260991946354508,-0.021902619728446,-0.0261069983243942,0.0157795548439025,-0.0055157151073217
0.8868376464843806,0.0698714086055755,-0.0541825488254427,-0.044929859572649,-0.020005963742733,0.0117310164496302,-0.0036799982190132
0.8968017578124972,0.0657950260121375,-0.0624253303833305,-0.0778220753490924,-0.0120414178818464,0.0060208397917449,0.0014668307267129
0.9067666015625093,0.0535491462927311,-0.0715672527380287,-0.06781155346632,-0.0029366030357778,-6.52822200208e-05,0.0066932840272784
0.9167304687500035,0.0460723441386595,-0.0744447078704833,-0.0685714319229126,0.0053492560982704,-0.0038264370523393,0.0092251319438219
0.9266955566406239,0.0339737639354541,-0.0622217706352472,-0.0323982947796583,0.0111695947125554,0.0009177182801067,0.0129242623224854
0.9366596679687547,0.0113293128637596,-0.0362045551948249,0.0216074361741542,0.015505745075643,0.0071947891265153,0.0188481323421001
0.946624755859375,0.0132838809976354,-0.0415283805660903,0.0324900647163391,0.0112968860194087,0.0104289315640926,0.0230109207332134
0.9565886230468834,0.0361218088148161,-0.0672112494856119,0.0187462015241384,0.0080989897251129,0.0134217655286192,0.0287702921777963
0.9665534667968814,0.0596603226494044,-0.0842776812292635,0.0012397709280252,0.0123456660658121,0.011485381051898,0.0289095751941204
0.976517578124998,0.0729684247728437,-0.066975979425013,-0.0227069218486547,0.0140790306031703,0.0022435032296925,0.0302879624068737
0.9864816894531288,0.0491864941038191,-0.028186668433994,-0.0173293204635381,0.0176737643778324,3.62752471119e-05,0.0216494686901569
0.9964465332031267,0.0149726743347942,0.0365140595354139,0.0213216049700975,0.0184464324265718,0.0083055794239044,0.0185840222984552
1.006410400390621,-0.0085913027346134,0.0739373428702354,0.0393926837116479,0.0225990992039442,0.0119466539472341,0.0120922997593879
1.0163757324218778,-0.0144287767164409,0.1040494264088571,-0.0046796822488307,0.0223200805485248,0.0078210718929767,0.0063033807091414
1.0263398437500086,0.000249554314278,0.1100904601387679,-0.0312543854415416,0.0208044722676277,0.0119247362017631,0.0013006324879825
1.0363044433593842,0.0095308120744302,0.0836355839334428,-0.0522977579921484,0.0243706181645393,0.014026328921318,-0.0024656127206981
1.0462685546875008,0.0098595325721427,0.051309915998578,-0.0565296964734792,0.0306223891675472,0.0096323806792497,-0.004655263852328
1.0562336425781211,-0.0101441947324201,0.0478957236409187,-0.0868926860332489,0.033721774816513,0.0014293114654719,-0.0025242022238671
1.066197753906252,-0.0107390918856486,0.0500479332387447,-0.0985696798235177,0.0347441621124744,-0.0062107653357088,0.0009405701421201
1.0761623535156275,-0.0086779946373775,0.0458931516468524,-0.0580003535479307,0.0340579934418201,-0.0099126808345317,-0.0003443816676735
1.0861264648437583,0.0160041362743824,0.05152063613981,-0.031979192584753,0.035790380090475,-0.0152560472488403,-0.0003648879937827
1.0960915527343786,0.0317379311747849,0.0195979960478842,0.0022848960667848,0.0365613177418708,-0.0187271703034639,0.0002129878848791
1.1060556640625094,0.0259451365849003,0.004496434636414,0.0664607233792543,0.0366705060005188,-0.0198004245758056,-0.0028690882027149
1.1160195312500036,0.0182582718767225,-0.0233927121557295,0.0770095899224281,0.0286574345082044,-0.021214947104454,-0.0051567861810326
1.125984619140624,0.0243089867504313,-0.0453666435547173,0.0864461113095283,0.0188364963978528,-0.0260411277413368,-0.0091549893841147
1.1359487304687548,0.0169161000201478,-0.0316821093343198,0.1281096625626087,0.0090491920709609,-0.0193199217319488,-0.0119387973099946
1.1459135742187527,0.0315063874412328,0.0067062196403741,0.1808826368510723,-0.0036623417399823,-0.0103770270943641,-0.0120123010128736
1.155877441406247,0.0306528393518179,-0.0011211129844188,0.1835503947556018,-0.0172432772815227,-0.0027173624839633,-0.0124876536428928
1.1658425292968815,0.0328512992441654,-0.0139538526810705,0.1413999367684126,-0.0269355848431587,-0.0035818244796246,-0.0089299362152814
1.175806640624998,0.0441331562370061,-0.0322981954060494,0.0686404055058956,-0.0306450650095939,-0.0090298932045698,-0.0046390867792069
1.1857717285156326,0.0427652288846671,-0.0481833084106445,0.0350444253742694,-0.0370670109987258,-0.0088272280991077,0.0001687183976173
1.1957355957031268,0.0406216775173321,-0.0259473650746047,0.0524386277675628,-0.0455840602517128,-0.0095862280577421,0.0003890260122716
1.2057004394531248,0.0272886236157268,-0.0486393816150724,0.0747761317819356,-0.0505125075578689,-0.009772116318345,0.0036881498526781
1.2156645507812556,0.0039061040604487,-0.086141721535474,0.0900695625036954,-0.0557314530014991,-0.009964982047677,0.0014553293585777
1.225629638671876,-0.0076306775415316,-0.0939310602374374,0.1363233641564846,-0.0634634047746658,-0.000279598403722,0.0062085390090942
1.2355932617187477,-0.0072124521294608,-0.072484367582947,0.1340893214941024,-0.0710077956318855,0.0009807961760088,0.0089577138423919
1.245557617187501,-0.0037920126941055,-0.0254587047748267,0.0779746355623006,-0.0771655589342117,-1.3361684978e-05,0.0112576195970177
1.2555227050781212,0.0179867614589631,-0.0014532675482332,0.0331453137546777,-0.0781337767839431,0.0036047021858394,0.0135910948738455
1.265486816406252,0.0574850975021719,0.0058558864213526,-0.0180225634247064,-0.0740282461047172,0.0029410424176603,0.0190489776432514
1.27545166015625,0.0763619031360372,-0.0007461421921849,-0.0802840815484523,-0.061969056725502,-0.0031731764320284,0.0249683540314435
1.2854155273437584,0.0907286474669352,-0.0087361180327832,-0.1385889710009098,-0.0351342484354972,-0.0128955785185098,0.0323953777551651
1.2953806152343788,0.1436094660440459,-0.0501987398862838,-0.2098240691751241,-0.0267696008086204,-0.0423242300748825,0.032298382371664
1.305344482421873,0.1018391664808616,-0.0732363549940288,-0.1558925725013017,-0.0208794865757226,-0.0326801240444183,0.0297263041138649
1.3153098144531299,0.0399985771829262,-0.0359587637402117,0.0392506448924541,-0.0137066785246133,-0.0103871868923306,0.0364079885184764
1.325273681640624,0.0187680845623835,-0.0197305363863706,0.1021995607584714,-0.0062668714672327,0.00716437632218,0.036413051187992
1.335238525390622,0.0147657353195361,-0.0340446006819605,0.010330255356431,0.0055801859125494,-0.002450686879456,0.0396056398749351
1.3452026367187528,0.0335755583981052,-0.0421196244575083,-0.0968804115623235,0.0175383128225803,-0.017175305634737,0.039921224117279
1.3551667480468836,0.0625447555119171,-0.0290470846556127,-0.1350175422549247,0.0239377506077289,-0.032400444149971,0.04017324000597
1.3651313476562592,0.0692458057868294,-0.0257242238432168,-0.0730903706520795,0.0261007696390151,-0.0381283685564994,0.0399908125400543
1.3750954589843758,0.0469295454898849,-0.022710136719048,0.0315536606490612,0.0202180296182632,-0.0319684036076068,0.0367411710321903
1.3850607910156327,0.0206318691402673,-0.0246728150941431,0.1280798519462347,0.0112927127629518,-0.0153984846547245,0.0341600365936756
1.3950249023437493,-0.0082846296719275,-0.0222033562406897,0.157652567911148,0.0123076764866709,-0.0117220301181077,0.0296701751649379
1.4049895019531249,0.002242317300383,-0.0004046352781355,0.0968704746901989,0.0089441044256091,-0.0162531323730945,0.0205342024564743
1.4149543457031228,0.0020612433787435,0.0399295670673251,0.045330841588974,0.0027580987662076,-0.0201043169945478,0.0127612249925732
1.4249191894531208,-0.0081810779659077,0.0654711278200149,0.0390805490225553,-0.0027149631641805,-0.0173021387308836,0.0019615739583969
1.4348833007812516,-0.0363109016461297,0.0811240395039319,0.069133741980791,-0.005904306191951,-0.0136512639001011,-0.0084976870566606
1.4448486328125085,-0.0318709099046886,0.0882005537614226,0.0769487996459007,-0.0076683838851749,-0.0074266577139496,-0.0102947875857353
1.4548125000000027,-0.017395133975055,0.0886756239272654,0.0364186363369226,-0.0069052167236804,-0.0032613796647638,-0.0158741138875484
1.4647773437500007,-0.0006778079300187,0.0835097655966877,-0.0041185412347316,-0.0059637892991304,-0.0085040787234902,-0.017580933868885
1.4747414550781315,0.0231348101382143,0.0746991210229694,-0.0460141476780176,-0.0070137828588485,-0.0099084582179784,-0.0231139753013849
1.484705566406248,0.0430756648070178,0.0149245974093675,-0.0356657721430063,-0.0061967251822352,-0.0138906836509704,-0.0210146065801382
1.4946701660156236,0.0508386817576363,-0.0467782639183104,-0.0269990660846233,-0.004449026659131,-0.0136106498539447,-0.0194784626364707
1.5046342773437544,0.056366724464111,-0.0668505994796752,-0.0321335063636302,-0.001146706752479,-0.016120946034789,-0.0135867521166801
1.5145993652343748,0.0493681708136573,-0.0499180232487618,-0.0006295300751924,-0.0006724246777594,-0.025836132466793,-0.0129579985514283
1.5245634765625056,0.0402949663136154,-0.0521546962596476,0.057667760592699,-0.0027528861537575,-0.0241335723549127,-0.0149729466065764
1.5345283203125035,0.0390735347598791,-0.0886411371357738,0.127296008092165,-0.0086316894739866,-0.0038670392241328,-0.0212564468383789
1.5444924316406343,0.0565420627647079,-0.0984877006284892,0.1451367852091789,-0.0085512623190879,0.0082793720066547,-0.0171013846993446
1.5544572753906323,0.0694094901822507,-0.0685385525666177,0.0655547144502401,-0.0086161820217967,0.0053839199244976,-0.0161953307688236
1.5644213867187489,0.0902166610904969,-0.0537222378373146,-0.0254448223799467,-0.0037718918174505,-0.0036015855148434,-0.0144083499908447
1.5743862304687468,0.0820499039108864,-0.0531476528197526,-0.0374146616369485,-0.0057891942560672,-0.008505037985742,-0.013344656676054
1.5843503417968776,0.0513890821820125,-0.041315468467772,0.0031283611536026,-0.0047492301091551,-0.0047941887751221,-0.0126506369560956
1.5943142089843718,0.041142559586279,-0.0399660996854305,0.0436275448024272,-0.0028056697919964,0.0059135961346328,-0.0113049503415822
1.6042795410156288,0.0292713949307799,-0.0753271897934377,0.0786228703379631,0.0015600500628352,0.012644468806684,-0.0091789485886693
1.614243408203123,0.0230942041331902,-0.0776617702208459,0.0491641361415386,0.0077099306508898,0.0191651117056608,-0.0006164028309285
1.624208251953121,0.0609632402078248,-0.064143094086647,-0.0268143571674823,0.0127925733104348,0.012237430550158,0.0043104449287056
1.6341723632812517,0.1060671777057461,-0.0354589975245296,-0.1195265431344509,0.0175606720149517,-0.0017625160980969,0.0058009987697005
1.644137451171872,0.1272562788699753,-0.0287333425313234,-0.1210737725764513,0.0254739895462989,-0.0101948827505111,0.007865747436881
1.6541013183593805,0.1146612751856446,-0.0416438236393034,-0.061845338538289,0.0299825295805931,-0.0067147407680749,0.0103049911558628
1.6640661621093784,0.0815813000184483,-0.0431885688632726,-0.0143225398629903,0.0307561755180358,-0.0063916994258761,0.0129071660339832
1.6740305175781316,0.0408472299015149,-0.0510974422916769,0.0176502229809761,0.0298953019082546,-0.0058892834931612,0.0108144143596291
1.6839946289062482,0.0005683379398658,-0.0869989228866994,0.0553729276537895,0.0237660370767116,0.0023239057045429,0.0110205430537462
1.6939592285156237,-0.0121799931426532,-0.0901795987494289,0.1072480763196945,0.018308512866497,0.0154670458287,0.0130988769233226
1.7039233398437545,-0.0155548581369221,-0.0558390838608145,0.1065460655301809,0.0139776794239878,0.0188721641898155,0.0187967102974653
1.7138884277343749,-0.0022984314017929,-0.0337673911757767,0.0545142649978399,0.0167888309806585,0.018056783825159,0.0202310942113399
1.7238522949218833,0.0218134801402688,-0.0112065997995436,0.0055108723759651,0.0148926619440317,0.0117070088163018,0.0203866232186555
1.7338171386718813,0.0217493105965666,-0.0162502930551767,-0.0464502010077238,0.0121520068496465,0.0081237312406301,0.0221343897283077
1.7437812499999978,0.0160933489277958,-0.0231967511922121,-0.0493026678293943,0.014119017869234,0.0070201172493398,0.0229234844446182
1.7537463378906324,0.005272752771154,-0.023996961659193,-0.0479927542746067,0.0149568682536482,0.0007017436437308,0.0228332187980413
1.763710449218749,-0.019180318625085,0.0010011398665606,-0.0403378556072711,0.0095740864053368,0.0015006921021267,0.0218792762607336
1.7736755371093835,-0.0574770785924978,0.0399377503737807,-0.0171773447722196,0.0021424647420644,0.008040152490139,0.0193889681249856
1.7836394042968777,-0.0609444441758096,0.0425132999502122,0.008051204508543,0.0025845495983958,0.0147537142038345,0.0195455625653266
1.793603271484372,-0.0603674662717618,0.0672077423542737,-0.0079208561271429,-0.0052921306341886,0.0137487482279539,0.0153165087103843
1.8035683593750065,-0.0431857010527513,0.0877288445964455,-0.0487637386471033,0.0053136423230171,0.0086796879768371,0.0060678836889564
1.8135322265625007,-0.0232750040601938,0.1030655299380421,-0.0767623371630907,0.0058619286864995,0.0016889530234038,0.0025889514945447
1.823497314453121,-0.0190705563739873,0.1029011331565678,-0.0664642305105924,0.0099328365176916,0.0015219728229567,-0.0036215404979884
1.8334614257812518,-0.0350176834978163,0.0738410428889095,-0.0306780468583106,0.0137928808107972,-0.0011018365621566,-0.0104032363742589
1.8434265136718722,-0.0429266117251478,0.0591413402765989,-0.0060533086895942,0.0166688300669193,0.0091952756047248,-0.017695503309369
1.8533903808593806,-0.0381722202722914,0.022947890997678,0.0039981297254562,0.0200433619320392,0.006987209431827,-0.0216819606721401
1.8633552246093785,-0.01847987873815,-0.0191746560692787,0.0011006547182798,0.0255257450044155,0.0082564717158675,-0.0227091424167156
1.8733193359375093,0.0008920169362798,-0.0660753773234784,0.0400537779688835,0.0354868397116661,0.0101014394313097,-0.0290755033493042
1.8832841796875073,0.0174651852702721,-0.0609955898411571,0.0311257906258106,0.0395771898329257,0.0038259662687778,-0.0337765142321586
1.8932480468750015,0.0405567773212678,-0.0374343892507255,-0.0055944590061902,0.0436065047979354,-0.0047959745861589,-0.0309849586337804
1.9032121582031323,0.0646940790329128,-0.0563607696473598,-0.0017547347128391,0.0412088632583618,-0.0072761764749884,-0.0350164547562599
1.913177490234375,0.0587058166698552,-0.085105802616477,0.0156558342933654,0.0352632701396942,-0.0113416779786348,-0.0344137735664844
1.9231413574218834,0.0515331668278202,-0.0857889625750482,0.0586672930240631,0.0267560724169015,-0.0109001258388161,-0.0332188121974468
1.9331064453125038,0.0401330537501722,-0.0860598884709179,0.09216858060956,0.0195678044110536,-0.0054011009633541,-0.0347309857606887
1.943070312499998,0.0296916296368464,-0.0752900726534426,0.1176011280298233,0.0087580345571041,0.0057234559208154,-0.0299836322665214
1.953035156249996,0.0223757719318382,-0.0487784978248178,0.1120575224280357,0.0033147418871521,0.01092573069036,-0.0308539289981126
1.9629992675781267,0.0331334041211754,-0.0361823433630168,0.0730523767292499,0.0010864743962883,0.0130101861432194,-0.0267846193164587
1.9729645996093836,0.0386260649870149,-0.0191862003766,0.0212508778214454,0.0007294435054063,0.0046560293994843,-0.0290851239114999
1.9829284667968778,0.050274709465634,-0.0123725748389959,0.0015150807380676,-0.0033004521392285,0.006945549044758,-0.0226330813020467
1.992892333984372,0.0383809311195276,0.03142988813892,0.025160744741559,0.0010846350342035,0.0111611280590295,-0.0197815541177988
2.0028574218750066,0.0474431027689017,0.0666194210723042,0.005654664760828,-0.0001766383647918,0.0100878737866878,-0.0159074533730745
2.012821533203123,0.0640747963570989,0.0698819299995899,-0.0416857630848884,0.0016529532149434,0.0003494932316243,-0.014184920117259
2.0227861328124987,0.0833586666882038,0.0119132867641747,-0.0700204616874456,0.0008958168327808,-0.0089971367269754,-0.0068662879057228
2.0327502441406295,0.0823198616923764,-0.0482685024760663,-0.0077682959139347,-0.0015674573369324,-0.0108495131134986,-0.0006909715011715
2.04271533203125,0.0715818475189618,-0.0795632199279963,0.0694300945788621,-0.0105905132368206,-0.0075618410483002,0.0029738044831901
2.052679687500003,0.0565156679481267,-0.0936199484616518,0.1073275712966918,-0.0191741120070219,-0.0036797819193452,0.0075551997870206
2.0626442871093786,0.0442066050657071,-0.1083010925039649,0.1374976686328649,-0.0288919862359762,0.0042817378416657,0.0086108772084116
2.0726083984375094,0.0298311294390819,-0.086614453613758,0.1628098045438528,-0.0391735807061195,0.0105491522699594,0.0103869251906871
2.082572509765626,0.0360402862775139,-0.0576950869910418,0.1570277140110731,-0.0480030253529548,0.0163508486002683,0.0105717480182647
2.092537353515624,0.0568484435664489,-0.0393435838729143,0.115637719002366,-0.0549481585621833,0.0172506012022495,0.0126863270998001
2.1025012207031324,0.0713825072882697,0.0028847616560757,0.0821779324710369,-0.0619490779936313,0.0230174101889133,0.0150695890188217
2.1124663085937527,0.0768164967694319,0.0227095521971583,0.0677314739674329,-0.058489192277193,0.0208803173154592,0.0196129400283098
2.1224304199218835,0.0891957570775412,-0.0044924891136586,-0.0101309333920478,-0.0497431047260761,0.0155886150896549,0.0225943494588136
2.132395507812504,0.0972598576002754,-0.0165998371452093,-0.0598614712446928,-0.0421766005456447,0.0102876620367169,0.0274253375828266
2.142359374999998,0.0732198239843361,-0.0242060743652284,-0.0699579178452491,-0.0368683859705925,0.0099494401365518,0.0309977009892463
2.152324218749996,0.0619459311022423,-0.0215014915816485,-0.0758855543285608,-0.0302456505596637,0.0103593133389949,0.0406151637434959
2.162288330078127,0.066425286739692,-0.0080013740174472,-0.0713292061984539,-0.0189703591167926,0.0108900815248489,0.0480235442519187
2.172253417968747,0.0721600309994071,-0.0057585635267198,-0.0801268451601266,-0.0138079542666673,0.0020495937205851,0.0542992502450943
2.1822172851562556,0.094634112206567,-0.0186149763599038,-0.0787204854935407,-0.0067204837687313,0.0019366755150258,0.0603020153939724
2.1921811523437498,0.1225697102226316,-0.0835866302251815,-0.038611177945137,0.0025705881416797,0.0004665055312216,0.065263494849205
2.2021464843750067,0.1453285814542323,-0.1282977324806153,-0.0405330859184265,0.0089850770309567,-0.0082217911258339,0.0703477412462234
2.2121105957031233,0.1507555384064093,-0.11660466433838,-0.0618593670636415,0.0111752105876803,-0.022998297587037,0.0748620927333831
2.222075195312499,0.143339179468993,-0.0861852684162557,-0.0372562562048435,0.0133717870339751,-0.0289118457585573,0.074994184076786
2.2320393066406297,0.1294621914164163,-0.071922934307903,0.0111830727934837,0.0087423212826251,-0.0278193242847919,0.0741422399878501
2.24200439453125,0.1231606983857229,-0.0648085722580552,0.0780816030681133,0.0093111731112003,-0.0282640717923641,0.074473537504673
2.251968505859381,0.128330885831546,-0.0107379593744874,0.1289993048787117,0.0070931408554315,-0.0227088183164596,0.0715551823377609
2.2619321289062526,0.1275158065889962,0.0398639544852077,0.1766828470736741,7.09174200892e-05,-0.0144405029714107,0.0653761178255081
2.271897216796873,0.1072306137282401,0.0264741654276847,0.2099398045092821,-0.0037354086525738,0.0004064794629812,0.0616442710161209
2.281861572265626,0.0926408560301177,-0.026528672093898,0.1942407155960798,-0.0129938879981637,0.015060257166624,0.0649101063609123
2.291826416015624,0.0765256057977676,-0.0575571398250758,0.1257803428322076,-0.0117715895175933,0.0140254450961947,0.0652800127863884
2.3017902832031325,0.0492197022536769,-0.0622569880791008,0.0362058703690767,-0.0121638728305697,0.0027163319755345,0.0609318725764751
2.311755371093753,0.011166212990228,-0.0574723841510713,-0.0557382538348436,-0.0080619351938366,-0.0136207053437829,0.0566306374967098
2.3217194824218836,-0.0002366948327049,0.0428796490445733,-0.0677040014386177,-0.0048008942976593,-0.0149895707145333,0.0550774820148944
2.3316843261718816,0.0475773966730572,0.1064570720724761,-0.0709808311522006,-0.0066514452919363,-0.0330621264874935,0.0438844785094261
2.341648193359376,0.0744620973967015,0.1156698677062988,-0.0971902081638574,-0.0082437489181756,-0.0431722849607467,0.0360545180737972
2.3516123046875066,0.1231608079835772,0.1061405534692108,-0.0187467860460281,-0.0109229320660233,-0.0495318658649921,0.0256029069423675
2.361577392578127,0.1779471131221391,0.0746473908357322,0.0348328284502029,-0.0316250137984752,-0.0567729994654655,0.0120407603681087
2.3715415039062577,0.1855628488228656,0.0198107620157301,0.0981032313555479,-0.0498618371784687,-0.0503203906118869,0.0038075721822679
2.3815063476562557,0.1044730769147165,-0.0203431153267622,0.1716267327278852,-0.0681897103786468,-0.0326234214007854,-0.0017879954539239
2.39147021484375,0.0346717561369761,-0.0127311790183186,0.2035369517296552,-0.0791185572743415,-0.0095132878050208,0.0024515385739505
2.4014353027343844,0.0152864895243197,-0.0526762359157204,0.1760848811805248,-0.0882590636610984,0.0013071357971057,0.0119587574154138
2.4113989257812563,0.0249180950921028,-0.0958162894621491,0.0812502962321043,-0.0929255634546279,-0.0013503150548785,0.0263294205069541
2.421363769531254,0.0602947480954229,-0.1309580377310514,-0.0271960499614477,-0.0868841856718063,-0.0123361209407448,0.0479233972728252
2.4313276367187484,0.1258931190242991,-0.124838824198395,-0.0659071811497211,-0.0841366127133369,-0.0169990360736846,0.0656158328056335
2.441291748046879,0.1934527618224732,-0.1480978269718587,-0.0862187322944402,-0.0797831416130065,-0.0244308542460203,0.0760985687375068
2.4512568359374995,0.2265448292862623,-0.1843131958216428,-0.0318663798600435,-0.0733721181750297,-0.0176858659833669,0.0865418910980224
2.461220703125008,0.2542424720942974,-0.2205461003281175,0.0335784444749355,-0.055446907877922,-0.0114924190565943,0.1073443740606308
2.471185546875006,0.2731997225532308,-0.2501483346484601,0.0281301159411668,-0.0326541066169738,-0.0138893891125917,0.1225682944059372
2.481149902343759,0.2685348908136599,-0.2746681511379778,-4.03320103883e-05,-0.0162833891808986,-0.0181938577443361,0.1404895037412643
2.491114746093757,0.2170356079891323,-0.248011322619766,-0.0034288054049015,0.003886860795319,-0.0188817512243986,0.1497043073177337
2.5010786132812513,0.1371115736584179,-0.1736363189846277,0.0222381352931261,0.0060317702591419,-0.0114366188645362,0.1557984203100204
2.5110437011718716,0.0705911925137974,-0.0849428671397268,0.0528378562182188,0.0044123949483036,0.0006226142868399,0.1700210273265838
2.5210078125000024,0.0578701330306939,-0.0086149758711457,0.0952846668034791,-0.0008532074280083,0.0176575239747762,0.1750597357749939
2.530971923828133,0.0567445265342481,0.0153325936883687,0.0583680178165435,-0.0061703752726316,0.0115334810689091,0.1760267466306686
2.5409365234375088,0.0368448989249765,-0.0173370653785765,-0.0091968674123287,-0.0038978997617959,0.001197220175527,0.1769228875637054
2.5509006347656253,0.0246071659794077,-0.0737359750792384,-0.0318137728899717,0.0034115323796868,-0.0125099318102002,0.178249180316925
2.56086572265626,-0.0183285789002664,-0.0696659491613507,-0.0122924953401088,0.0076795145869255,-0.0150862745940685,0.1697270572185516
2.5708298339843765,-0.086276545162592,-0.0085249595001339,0.0271446120351552,-0.0001071076840162,-0.0103617589920759,0.1617842018604278
2.5807946777343744,-0.1558314899638295,0.0437628616198897,0.0774929895251989,-0.0199220925569534,-0.0016870438121259,0.1486444324254989
2.5907587890625052,-0.2354361561470664,0.0977855437085032,0.1079220300585031,-0.0428723208606243,0.0083364695310592,0.1302385181188583
2.6007226562499994,-0.3344169557884335,0.1450220727883279,0.1057324110597372,-0.0630329847335815,0.0257588699460029,0.1190588399767875
2.610687744140634,-0.3791036177223548,0.1593961967080831,0.1150952826887369,-0.0722651779651641,0.032596081495285,0.1114094480872154
2.620651611328128,-0.3745525668218731,0.1670546025067567,0.0799485659837722,-0.0724755674600601,0.0341263338923454,0.1025983840227127
2.6306166992187485,-0.3277040141463279,0.2128453166924417,0.012376081970334,-0.0651810616254806,0.0301347002387046,0.0812205895781517
2.6405808105468793,-0.2638432989313267,0.2292942010596394,-0.0491097756057977,-0.0538692884147167,0.026821993291378,0.0592409893870353
2.6505458984374997,-0.2464748703001067,0.2527313368789851,-0.0522533343285322,-0.0524145998060703,0.0226287897676229,0.0302058570086956
2.660509765625008,-0.2591170741270296,0.2337508882075548,-0.0528524692654609,-0.0526516214013099,0.0274658892303705,0.010636948980391
2.670474609375006,-0.2964140276684425,0.1633953493468463,-0.0518640427500009,-0.0614211298525333,0.0373429954051971,-0.001247392501682
2.6804387207031226,-0.2915340188082307,0.0726364894047379,-0.0715174222469329,-0.0676116496324539,0.0384255722165107,-0.007483450230211
2.6904028320312534,-0.2471412983195856,-0.0151766724742949,-0.0878098008781671,-0.0649543926119804,0.0356005243957042,-0.0128624662756919
2.700367431640629,-0.1910956955686211,-0.0684258859723806,-0.0716787502884864,-0.0524103716015815,0.0331743843853473,-0.0200010687112808
2.710331787109382,-0.1218545476906001,-0.072472238753736,-0.0576262595385313,-0.0366685986518859,0.0228220522403717,-0.0271202288568019
2.7202968750000025,-0.0809281333393417,-0.0772037973202764,-0.0876630858838558,-0.0144759472459554,0.0210382677614688,-0.0362628623843193
2.7302609863281333,-0.0728979898851364,-0.0932622210651636,-0.1098965450018644,0.0080562904477119,0.0100678708404302,-0.0454326309263706
2.740225585937509,-0.0564331955627538,-0.0948180722050368,-0.1487988148480653,0.0327611044049263,0.0013534747995436,-0.0526673756539821
2.7501896972656255,-0.0426250714953057,-0.0325901640899479,-0.2141127062797546,0.0500931739807128,-0.0130078261718153,-0.0540940724313259
2.7601545410156234,-0.0053530879983678,0.0373510948814451,-0.2114905410826206,0.0594861432909965,-0.0166835207492113,-0.0662239715456962
2.770118652343754,0.0206708677100949,0.0834635883674025,-0.1270949325621128,0.0704429522156715,-0.0149498153477907,-0.0765371173620224
2.7800825195312484,0.0608962028536014,0.0616420710511505,-0.0663192690819501,0.0836583599448204,-0.0093643683940172,-0.0881974995136261
2.7900478515625053,0.1068253573955968,0.0264876094311475,-0.0534761541217565,0.1052695363759994,-0.0095224790275096,-0.1029241830110549
2.8000117187499995,0.1316030393700115,-0.019400719910115,-0.088218381679058,0.1262312829494476,-0.0151169812306761,-0.1107006072998046
2.809976806640634,0.1311602092396467,-0.0940751448832452,-0.1403647485017776,0.1409170180559158,-0.0333018451929092,-0.1159190759062767
2.8199406738281283,0.1011855796766467,-0.1407734754331409,-0.1811766513615846,0.1394665986299514,-0.0463677644729614,-0.1084348484873771
2.8299055175781263,0.080094751255121,-0.1239836686737835,-0.1704459985107183,0.1372178345918655,-0.0606766827404499,-0.1002219170331955
2.839869628906257,0.0313836195780895,-0.0869626825295388,-0.0885480520248413,0.1187517419457435,-0.0651965960860252,-0.0893935039639473
2.8498337402343736,-0.0061909818609245,-0.0785379685334861,0.0791226365536451,0.1014954596757888,-0.057210523635149,-0.0763666257262229
2.859798828125008,-0.0182412476766854,-0.1036138114705681,0.2612204944133758,0.0738646313548088,-0.0333190374076366,-0.0659768357872963
2.8697626953125024,-0.0498123161182738,-0.0908035758666694,0.3799532568216324,0.0487595275044441,-0.0133042931556701,-0.0546496286988258
2.8797277832031227,-0.06304932576688,-0.0843997001737356,0.3737339439153671,0.026844372972846,0.0003510646056383,-0.0401095673441886
2.8896918945312535,-0.0684979465615935,-0.0995019922375679,0.3302349939286708,0.0088300108909606,0.0064227334223687,-0.0338172689080238
2.899656494140629,-0.0694801625319756,-0.1388876616865396,0.2677846752345562,-0.0042985752224922,0.0092403581365942,-0.0261462982743978
2.90962060546876,-0.0871929658877663,-0.1651711268477141,0.1936544401407241,-0.017773400992155,0.0086664836853742,-0.0147626418620347
2.9195847167968765,-0.10223718935512,-0.1674605529591441,0.099663904801011,-0.0348751544952392,0.0048472443595528,-0.0085393674671649
2.929549804687497,-0.1266435537991113,-0.1360205818176269,0.099272275134921,-0.0403280034661293,0.0138647425919771,-0.0032295803539454
2.939513427734383,-0.1328246170542202,-0.0643348172664642,0.1229348902732133,-0.0492764934897422,0.0270351395010948,0.0025457506999373
2.9494787597656256,-0.1279388543066568,0.0099662443496286,0.0806359637260437,-0.0526645742356777,0.0297627616673707,0.0097743608057498
2.9594428710937564,-0.1079303594954311,0.0775575791940093,0.0048719899505376,-0.0559969879686832,0.0351687110960483,0.0152330417186021
2.9694077148437543,-0.0853789387357421,0.129513391880691,-0.0665057315647602,-0.057896465063095,0.0332199372351169,0.0221553705632686
2.9793715820312485,-0.0395364578302018,0.167980046788603,-0.1213496669083833,-0.0657495930790901,0.030418025329709,0.0227079764008522
2.989336669921883,-0.0124245424882508,0.1617776850171387,-0.1370931794852018,-0.0744796171784401,0.0219586677849292,0.0185182951390743
2.9993007812499997,0.0013753982727415,0.1050508585363626,-0.1181067394644021,-0.0827244967222213,0.0166038498282432,0.0132335182279348
3.009264648437508,0.0284536122744902,0.010064444027096,-0.0317880539268255,-0.0895580351352691,0.023618733510375,0.0082017825916409
3.019229980468751,0.049424905969575,-0.1070752039708197,0.0907353329360485,-0.0961221903562545,0.0387990176677703,0.004952726420015
3.029193847656259,0.0800135392450727,-0.1832750849455595,0.1791343318790197,-0.0914100334048271,0.0626492723822593,0.0109149795025587
3.039158691406257,0.1224052403759211,-0.1914807493634522,0.2122714623272419,-0.0811621844768524,0.0785677805542945,0.0184125769883394
3.0491228027343737,0.1774115997396409,-0.1601408775955438,0.14226269107759,-0.0645312294363975,0.0867113918066024,0.0232577137649059
3.0590878906250083,0.243362766161561,-0.1240337914258241,0.0577858340144157,-0.0455775074660778,0.0847523659467697,0.025027384981513
3.06905151367188,0.321310842510499,-0.1310549222342669,0.0243108499139547,-0.0199304111301898,0.0978593379259109,0.0318485088646411
3.0790156249999967,0.447026486076042,-0.1544004342474043,0.0033393735557794,-0.013469049707055,0.0817568004131317,0.0266510844230651
3.0889809570312536,0.4983947811983525,-0.1857140025302767,-0.0203010297507047,-0.0058244206011295,0.0943343415856361,0.0174853075295686
3.098944824218748,0.4903366354923695,-0.2425153555519878,0.0820084211230278,-0.0052297366783022,0.1245969086885452,0.0168903581798076
3.108909667968746,0.4700594980739057,-0.2621260649509728,0.0508937364131212,-0.0162605009973049,0.1307980418205261,0.0219820160418748
3.1188737792968766,0.4648303652487695,-0.2472843235194683,-0.1371124687075615,-0.0256774388253688,0.1092578619718551,0.0227546002715826
3.128838867187497,0.4682816747464239,-0.2286221470169722,-0.3277116129308939,-0.0298479683697223,0.0795870870351791,0.0296012982726097
3.138802490234383,0.4435291454795748,-0.1554195481620729,-0.3786626324892044,-0.0261083580553531,0.058287389576435,0.0409748591482639
3.1487666015624995,0.3595978300025686,-0.0362725058645009,-0.3548801903635263,-0.0170758441090583,0.0478814616799354,0.0564313642680645
3.158731689453134,0.2718570757726207,0.0078434069767594,-0.311086641344428,-0.0040745586156845,0.0461496077477932,0.0711115002632141
3.1686958007812507,0.1313240945644676,0.0264066531494259,-0.2310328614205122,0.0208878591656684,0.054686564952135,0.0892984867095947
3.178660888671871,-0.0001776581218466,0.0940261911749839,-0.1676017149955034,0.0497314892709255,0.0474398396909236,0.1160896196961402
3.1886247558593794,-0.0859991712596267,0.096683719946444,-0.1608750370889902,0.0679159089922905,0.0356440730392932,0.1316422224044799
3.1985895996093774,-0.1248291795872151,0.0248296130910515,-0.0989560487926006,0.0814271867275238,0.0272005219012498,0.1447542905807495
3.208553710937508,-0.1497767565021291,-0.0502738509491086,0.02409574585855,0.090353287756443,0.0263978783041238,0.1601825058460235
3.2185187988281285,-0.1709649443509057,-0.1079835509873926,0.1597737978488206,0.0866054221987724,0.0353959016501903,0.1708220839500427
3.2284826660156227,-0.1914108624650165,-0.1136450838804244,0.2341156298667192,0.0876709595322609,0.0432796478271484,0.1837203204631805
3.2384467773437535,-0.2064331480951979,-0.0907194047145545,0.2599894913136959,0.0829081609845161,0.0413288809359073,0.1861381977796554
3.248411865234374,-0.2091767111822962,-0.0450365348175168,0.2283300322026014,0.0786244794726371,0.0365375615656375,0.184144839644432
3.2583757324218823,-0.2109332359934225,0.0179519824065268,0.2496685883074998,0.0688967481255531,0.0383144244551658,0.1857504546642303
3.2683405761718802,-0.203544842775166,0.0803244135588407,0.3032458647161722,0.0576356388628482,0.0498306863009929,0.1830297410488128
3.278304687499997,-0.1842596024708822,0.1552284095041453,0.2928729392617941,0.0430356562137603,0.0555732622742652,0.1746596992015838
3.2882697753906314,-0.1632130150498822,0.2132537513628601,0.1978834560126066,0.0215991474688053,0.0567990541458129,0.1691472083330154
3.298233886718748,-0.1313183954760432,0.2511120651140809,0.0997697032630443,-0.0011980445124208,0.055443238466978,0.1586226522922516
3.308197509765634,-0.100719880127348,0.2389502104163169,-0.0326250892728567,-0.0154730109497904,0.0425073392689228,0.1442458629608154
3.3181628417968767,-0.0578728912433609,0.1963438253551721,-0.1405237384557724,-0.0200326088815927,0.0224513411521911,0.1256692558526992
3.3281269531250075,-0.0203474261756986,0.1887466482244431,-0.2150309901684522,-0.023942906409502,-0.0072685056366026,0.1024984493851661
3.3380917968750055,0.02947173980847,0.2019618113674223,-0.2448164721012115,-0.0251269470900297,-0.029875548556447,0.0735165923833847
3.3480556640624997,0.0621673370342701,0.260493787574023,-0.2317266889035701,-0.0273787714540958,-0.0499255508184433,0.0437288396060466
3.3580197753906305,0.0711076724022626,0.2719489553071558,-0.14798808298707,-0.0327791273593902,-0.0471460111439228,0.0196570605039596
3.367984863281251,0.0584352926327846,0.2974417084820568,-0.0329886618882417,-0.0331485792994499,-0.0331289321184158,-0.002082569990307
3.3779484863281226,0.0171896927971392,0.304415493017435,0.0247965876042842,-0.0306537300348281,-0.0253080297261476,-0.0165310185402631
3.387913574218757,-0.007365012342669,0.2640574714049696,0.0354430693030357,-0.0294982269406318,-0.0333155430853366,-0.0366720221936702
3.3978776855468737,-0.0302305222865194,0.1969490977719426,0.0504641128242015,-0.0276473294943571,-0.0332337841391563,-0.0529101155698299
3.4078427734375083,-0.059580151818972,0.1297052611909806,0.1072679500639438,-0.0157726090401411,-0.0331738479435443,-0.0658429116010665
3.417805908203121,-0.0720108683196827,0.1017179147213697,0.1237502983093261,-0.0061010736972093,-0.0325988717377185,-0.0741021707653999
3.427771240234378,-0.0776172369593754,0.0701443803280592,0.1180588086694478,0.0042377272620797,-0.0338402912020683,-0.0836464464664459
3.437735351562509,-0.0810389367700554,0.0666597530826926,0.0959200420975685,0.0150898415595293,-0.0410963371396064,-0.0862065404653549
3.447699218750003,-0.0622848989993333,0.0606951455898582,0.0310761062651872,0.0146226501092314,-0.0515776835381984,-0.0931853428483009
3.457664062500001,-0.0227906728756614,0.0483908136814832,-0.0224064775973558,0.0168149657547473,-0.0491281077265739,-0.0984330996870994
3.467628173828132,0.0153131583355367,0.035319442923367,-0.0059282210052013,0.0216965228319168,-0.0470047332346439,-0.0979835763573646
3.4775930175781298,0.0447545395383611,0.0176443777620792,-0.00233107329607,0.0286625549197196,-0.0412336625158786,-0.1000025197863578
3.4875571289062464,0.0770270525138825,0.0041040743179619,-0.0038134208083152,0.0356722585856914,-0.0346045233309268,-0.1031445190310478
3.4975209960937548,0.128229690479394,-0.0336276904441416,-0.0232873520851135,0.0440833196043968,-0.019594682380557,-0.106925144791603
3.507486083984375,0.1938006984773091,-0.1133183361440896,-0.0323451032876968,0.06208261474967,-0.0118809267878532,-0.1026344671845436
3.517450195312506,0.2534992342452518,-0.2158836614750325,-0.0831932469934225,0.0922543704509735,-0.0123967807739973,-0.0984189435839653
3.5274152832031263,0.3042266376481391,-0.2574213943913578,-0.1025923594683408,0.1244451105594635,-0.0077623836696147,-0.0939400717616081
3.5373791503906347,0.3193768787732348,-0.2511011053286492,-0.1387275026887655,0.1581468880176544,-0.0124753797426819,-0.0841668024659156
3.5473439941406326,0.2970969866976142,-0.2111957959197461,-0.2310983278721571,0.1889444142580032,-0.0352887585759162,-0.0746329352259635
3.557308105468749,0.2555081446485593,-0.1901655751116573,-0.2570265498548746,0.2122643738985061,-0.0483872480690479,-0.0604204423725605
3.5672731933593838,0.1814685652465559,-0.1765146508999169,-0.2195885073423385,0.227761909365654,-0.058190394192934,-0.0432521402835845
3.577237060546878,0.0968244070587679,-0.1581703081749379,-0.1605143870830535,0.2230137586593628,-0.0647947713732719,-0.0253106877207756
3.587200927734372,0.0088305913832038,-0.09666779172495,-0.0888490807980298,0.2121620625257492,-0.0673518031835556,-0.0085189491510391
3.597166259765629,-0.043636129967682,-0.0162688516251742,0.0461602781504392,0.1889334470033645,-0.0621599741280078,0.0052173696458339
3.60713037109376,-0.0798989546883851,0.0478882709868252,0.1409153681218624,0.1587726473808288,-0.0559828393161296,0.0174791403114795
3.6170949707031212,-0.1144974263934418,0.0390820103272795,0.2362339371949434,0.1210961118340492,-0.0489494316279888,0.0258244201540946
3.627059082031252,-0.1659391886107623,0.007625964833796,0.3301099062442779,0.0860485434532165,-0.0403142906725406,0.0318157225847244
3.637023193359383,-0.1978789259679615,0.0191560974992811,0.4083639432698488,0.0610372014343738,-0.0246469173580408,0.0343446619808673
3.646988281250003,-0.231991422520671,0.1027786758206784,0.3764636611402034,0.0199953913688659,-0.0215301048010587,0.0329115986824035
3.656951904296875,-0.1980732064310461,0.1259928165391087,0.3535363745391369,-0.0140645746141672,-0.0004410652909427,0.0306644216179847
3.666917236328132,-0.1811752448557876,0.1440840612858533,0.3628080607533455,-0.0379348024725914,0.0188852529972791,0.0273557528853416
3.6768813476562485,-0.1398162112409249,0.1429565185606479,0.2904740614265203,-0.0605469048023223,0.0218200553208589,0.0220619216561317
3.6868461914062465,-0.0784011538786813,0.1499326411835849,0.1563274567872285,-0.0769746303558349,0.0175755321979522,0.0155584681779146
3.696810058593755,-0.0338466486907564,0.1466930747404694,0.075118661609292,-0.0833276063203811,0.0175797939300537,0.0053460439667105
3.7067741699218715,-0.0080273852415382,0.1321313192941248,0.0189034379124641,-0.1018847376108169,0.0153203103691339,-0.0040431572124361
3.7167390136718836,-0.0008842354886233,0.1320375035308301,-0.0079196870833635,-0.1151347607374191,0.021886333823204,-0.011634231545031
3.7267031250000002,-0.0085227858093567,0.090663436743617,0.0211421567499637,-0.126935139298439,0.0280426833778619,-0.019541960209608
3.736667968749998,-0.0242625903254374,0.0100958620786666,0.03668459379673,-0.1356309056282043,0.0371501594781875,-0.0249361917376518
3.746632080078129,-0.0147493139076977,-0.0656610974341631,0.0199327809602022,-0.1370037347078323,0.0373094268143177,-0.0242630131542682
3.7565971679687493,0.0176629180657677,-0.1146565990105271,-0.0690232673436403,-0.1258453577756881,0.030879758298397,-0.0287251397967338
3.76656127929688,0.048316214075312,-0.0939345673687756,-0.1079044944018125,-0.1158557310700416,0.0197758600115776,-0.036089826375246
3.7765251464843743,0.0717707028882577,-0.0378289415262639,-0.0963549263834953,-0.1010288447141647,0.0119530903175473,-0.0386027842760086
3.7864899902343723,0.0752689568001776,-0.014097498935461,-0.0763105017423629,-0.0859459787607193,0.0085138566792011,-0.0430638864636421
3.796454101562503,0.0834010627915151,-0.0140893156290054,-0.0645353082746267,-0.0718727707862854,0.0029771453700959,-0.0410406850278377
3.8064191894531234,0.095063516599778,-0.0361010948203504,-0.0533376224339008,-0.0602618232369422,0.0027006061282008,-0.0416473448276519
3.816383056640632,0.100982604450453,-0.0765215141445398,-0.0617120675474405,-0.0466394871473312,-0.0034544914960861,-0.040546927601099
3.826348144531252,0.103097368114721,-0.0922623963728547,-0.0655669894099235,-0.0351259186863899,-0.0047087809070944,-0.0431163236498832
3.836312255859383,0.1099351599792018,-0.067252896670252,-0.0483212555766105,-0.0200950354337692,0.001623151008971,-0.0390331670641899
3.8462763671874995,0.1287349000551737,-0.0438845883034169,-0.0690250209093093,-0.0030322489328682,-0.0018910749349743,-0.0398592725396156
3.856240966796875,0.1345083688900805,-0.0441283339314162,-0.1453179869949817,0.0173193626105785,-0.0120156146585941,-0.0433285757899284
3.866205078125006,0.1132444489239715,0.0262082079678773,-0.1967640965938568,0.0373443141579628,-0.0308751817792654,-0.0497840531170368
3.8761701660156263,0.0747626695121638,0.1284467855624854,-0.2061900965869426,0.0525778606534004,-0.035761285573244,-0.0631203576922416
3.886134277343757,0.0328247034981846,0.1883547262974083,-0.1510012933284044,0.0531013347208499,-0.0373478829860687,-0.0766074284911155
3.896097900390629,-0.0128922147989273,0.2755209685750305,-0.0363297890096902,0.0575450882315635,-0.0210706386715173,-0.0891226902604103
3.9060632324218716,-0.0249028244577348,0.346387379567325,0.039562195059657,0.0491627678275108,-0.0038119913078844,-0.1000784188508987
3.9160273437500024,-0.002535546359606,0.2987937076129019,0.0609977817982435,0.0417285524308681,0.0002461336553096,-0.1076013222336769
3.9259921875000003,0.0623153124039061,0.1548126683101058,0.0651671764373779,0.0388851277530193,0.0058030299842357,-0.1084023639559745
3.9359560546875088,0.1341958871411159,0.0121465109981596,0.0473141243606805,0.0427613593637943,-0.0013576778583228,-0.1043450385332107
3.945921142578129,0.185757768606767,-0.1325450146615505,-0.0042933132797479,0.0498368181288242,-0.0200239960104227,-0.0964381396770477
3.95588525390626,0.2288095776141621,-0.2680846810944378,-0.0293453369498252,0.0544768460094928,-0.0399897135794162,-0.0714126825332641
3.9658488769531317,0.2601546918127685,-0.3150150668345391,0.015203414350748,0.05270566791296,-0.0543250702321529,-0.0465259701013565
3.975813964843752,0.2587460123249329,-0.3214923000246286,0.0684369918882846,0.0405533947050571,-0.0537508949637413,-0.0252702161669731
3.9857783203125052,0.2338548600386828,-0.2757524392433464,0.1336702192991972,0.0234021544456481,-0.0493643842637538,-0.0015803985297679
3.995743164062503,0.1972859467771835,-0.2088175224810838,0.2087485488981008,0.0014553107321262,-0.0291472636163234,0.0268637593835592
4.005707275390634,0.1566860061676241,-0.2027067845158278,0.2415110008150339,-0.023798618465662,-0.0131830181926488,0.0478742830455303
4.015672119140632,0.1144212924173101,-0.2231361168213188,0.2175759984761476,-0.0408692136406898,-0.0053461347706615,0.0674983188509941
4.025635986328126,0.0746191511219367,-0.2373290389552712,0.1753431229025125,-0.0462397187948226,-0.0023496011272072,0.0827436223626136
4.035600097656257,0.012444708493445,-0.1828276334390044,0.1472404794901609,-0.0488208532333374,0.0002400565426796,0.0962234735488891
4.045565185546877,-0.0551358674949035,-0.0750432582855224,0.0783276867836713,-0.0529954805970191,-0.0048749297857284,0.1052904352545738
4.0555290527343715,-0.1083147922357544,0.0410264223933219,0.0198860192090272,-0.0601481981575489,-0.0056421859189867,0.1042912155389785
4.065494140625006,-0.1455837800580076,0.1451081436365842,0.0198199682354927,-0.0679763555526733,-0.0026226562913507,0.0975992605090141
4.075458251953123,-0.1752538189175538,0.2194843163155019,0.058645081192255,-0.0686357542872428,0.0036344404798001,0.0869178548455238
4.085422363281253,-0.2202309151654131,0.2513524497412145,0.0710322690784931,-0.0767807140946388,0.0061394041404128,0.0713090151548385
4.095386962890629,-0.216487563918624,0.2690164089865982,0.080187635436654,-0.0884972885251045,0.0185332223773002,0.0557803846895694
4.10535107421876,-0.2067222489685751,0.2803757151298224,0.1029845736563205,-0.0992147997021675,0.026648249477148,0.0347627624869346
4.11531616210938,-0.1963331030317582,0.2813309700280428,0.0831277805417776,-0.1140105202794075,0.0299862567335367,0.0108603602275252
4.125280273437497,-0.1743360099528916,0.2521377549000084,0.0619657500475645,-0.1166482120752334,0.0424217246472835,-0.0027763657271862
4.135245117187509,-0.1348909019342623,0.2348519813172519,0.0445849916577339,-0.1215958297252655,0.043066743761301,-0.0164799280464649
4.1452092285156255,-0.0668824924552813,0.200645760332793,-0.0636363136082887,-0.1214430630207061,0.030137475579977,-0.0312972404062747
4.155173339843756,-0.0226498761654831,0.1117833816617727,-0.1210199965626001,-0.1126128211617469,0.0111984051764011,-0.0532358288764953
4.165138183593754,-0.0141739617051556,0.0525021945230662,-0.1286187811285257,-0.1041807383298873,0.014029387384653,-0.0575256720185279
4.175102050781248,-0.0182291553800925,0.0329030294314026,-0.0338175139278173,-0.0929376780986785,0.0263529010117054,-0.064029112458229
4.185067138671883,0.009634016720578,-0.0015770400583744,-0.0850584563434124,-0.0739137977361679,0.015481986105442,-0.066994234919548
4.1950312499999995,0.04487546250429,-0.0520920062869787,-0.16417641672194,-0.0595332607626915,0.0112102758139371,-0.0607499219477176
4.2049960937499975,0.0873209761816076,-0.0994061306476593,-0.1529056656450033,-0.0288951061666011,0.0087169427424669,-0.0539183840155601
4.214959960937506,0.0948791364762,-0.0887241392441093,-0.1797229454219341,-0.0086058136075735,-0.008432749658823,-0.0480410531163215
4.224924316406259,0.0873416353771463,-0.1023226026162505,-0.2268435930371284,0.0119669949635863,-0.0245284829288721,-0.0405842401087284
4.234889160156257,0.0751342245046049,-0.1321698977388441,-0.1652583667397499,0.0276881642639637,-0.0314337946474552,-0.0354685746133327
4.244853271484374,0.0525428005280904,-0.1311317868627607,-0.1078629933476448,0.0416816882789135,-0.0317762605845928,-0.0270201805979013
4.254818115234372,0.0202829643710516,-0.1371751586802303,-0.017894553130865,0.0460327602922916,-0.0206644870340824,-0.0201311167329549
4.264782226562502,-0.0094184012085199,-0.145799486901611,0.0438280358105897,0.0506928265094757,-0.0172740537673234,-0.0140333091840147
4.274746093749997,-0.0194612179256975,-0.1135277411110699,0.0357704015612602,0.0511988252401351,-0.0168849658221006,-0.0096409572288393
4.284711181640631,-0.0179435981706716,-0.0270171862632036,0.0473655622869729,0.0475678890943527,-0.0147779155522584,-0.0099213598296046
4.294675048828125,-0.0098331012229435,0.0184863815441727,0.0507967057794332,0.0406772270798683,-0.017446668818593,-0.0112859653308987
4.30464013671876,0.0029234131660312,0.041043081267178,0.0562023642152547,0.0310647934675216,-0.0116742243990302,-0.0104178013280034
4.3146042480468765,0.0036108839735388,0.0661819064378738,0.0872872383087873,0.0291899293661117,0.0005355700850486,-0.0128513993695378
4.324569335937497,0.0050246597616001,0.0938021731607615,0.083895257782936,0.0191161669790744,0.0047378642484545,-0.019720759242773
4.334532958984383,-0.0235613467209041,0.1151359069600701,0.0627758973866701,0.023435816168785,0.0193663407117128,-0.0193340685218572
4.344497070312499,-0.0075927566839382,0.0689554628044366,0.0640185909241437,0.0216072127223014,0.0204212795943021,-0.0168365370482206
4.354462158203134,0.0286222651059739,0.0234017722450196,-0.0498737457156181,0.0205344893038272,-0.002037956379354,-0.0179377533495426
4.364426269531251,0.0440482544325292,0.009779927997291,-0.0859884306699037,0.0149457557126879,-0.0188147146254777,-0.022450216114521
4.3743911132812485,0.0223259414407424,0.0030332302160561,0.0141717332154512,-0.0006569069810211,-0.0151153160259127,-0.0230478290468454
4.384355224609379,0.008132306920737,-0.0106252927802503,0.1678881307214498,-0.0144617576152086,-6.99618831276e-05,-0.029046069830656
4.394319335937496,-0.0114154933098703,-0.0230338157154619,0.2342296116352081,-0.0329672656953334,0.0145358787849545,-0.0313947089016437
4.404284179687508,-0.0024664449124597,-0.0418251715555787,0.2161012497484684,-0.0543290972709655,0.0158683285117149,-0.0302982777357101
4.414249023437506,0.005987714373786,-0.0653222208686172,0.1987146461397409,-0.0750287845730781,0.0233893617987632,-0.0302894860506057
4.424213867187504,0.0167683073136024,-0.0980272435098886,0.2151858884692191,-0.0886103808879852,0.0252472050487995,-0.021826509386301
4.434177978515635,0.033138482155092,-0.1292864512570202,0.2071650790989398,-0.1021584123373031,0.0171266943216323,-0.0153342550620436
4.444143066406255,0.0445892294414341,-0.1071313180722296,0.1528501360654831,-0.125567689538002,-0.0006644716486334,-0.0179694481194019
4.454107421875008,0.0546164101980626,-0.1493387669436633,0.1544610783934593,-0.1550901532173156,-0.0038554712664335,-0.0198485739529132
4.46407104492188,0.0094085556679405,-0.1828575901858508,0.2637812848120928,-0.1648644208908081,0.03309877961874,-0.0202619284391403
4.4740361328125005,0.00686422321368,-0.1905724023468792,0.288559167715907,-0.1664892137050628,0.0356530174612998,-0.0136628821492195
4.484000244140631,0.0396958313766866,-0.2240392031408846,0.0530044449567794,-0.1558594703674316,0.0260334014892578,-0.0190310087054967
4.493964843750007,-0.0290945770591497,-0.1112532203078269,-0.0416699809938669,-0.1595908254384994,0.0154305584728717,-0.0266202185302972
4.503928955078123,-0.0867204347388818,-0.0048766661256551,0.0112573070734739,-0.166978508234024,0.0524767786264419,-0.0374643169343471
4.513893066406254,-0.1737727135143242,0.1064573643334209,0.1309054307609796,-0.160593569278717,0.099446415901184,-0.033722311258316
4.5238581542968745,-0.1701861237318254,0.1654803389273584,0.0007148702710866,-0.1368193477392196,0.1137841418385505,-0.0417594537138938
4.533821777343746,-0.1520582915680483,0.2211380748718976,-0.2917518262773752,-0.1113073378801345,0.0788751617074012,-0.0445264801383018
4.543787109375003,-0.0872031402219086,0.2618585000559687,-0.5167746336281299,-0.0678379237651825,0.0497850477695465,-0.0422926992177963
4.553751220703134,0.005867467261292,0.1930079589307308,-0.5858914244741201,-0.0268292427062988,0.0159293487668037,-0.0379911623895168
4.563715332031251,0.0493854872746393,0.0741373954869806,-0.5535697020620107,-0.0025884392671287,-0.0141051579266786,-0.0488909482955932
4.573679931640626,-0.023746384431608,0.0557327008768916,-0.3084615535378456,0.0196798481047153,-0.0060224635526537,-0.0475846678018569
4.583644042968757,-0.0330045170444995,0.0227601133406162,-0.0880173061490058,0.0209700763225555,0.0063229063525795,-0.0482653304934501
4.593609130859377,-0.0357927960561588,-0.0074456398308277,0.0222691149532794,0.0271928161382675,0.0279799979180097,-0.0442641973495483
4.603572998046872,0.0218004379956051,-0.0848430600270628,0.0422439814895391,0.0310320444405078,0.0269447956234216,-0.0512800067663192
4.6135383300781285,0.0664328489916399,-0.0908230112195015,0.046194180420041,0.030680239200592,0.031034879386425,-0.0496823750436306
4.623502197265623,0.1086042036363855,-0.0676480334676802,0.0932236426204442,0.0270112939178943,0.0359280779957771,-0.0463318526744842
4.6334663085937535,0.141752914924547,-0.0839114782653749,0.0945440775692463,0.021293219178915,0.0477714203298091,-0.0467244014143943
4.6434311523437515,0.1928672718184068,-0.1381561325415969,0.0587859509676694,0.0217848382890224,0.0509011670947074,-0.0426247306168079
4.65339501953126,0.2184928941253572,-0.139551824683696,0.0063245268464088,0.0281764268875122,0.0420821085572242,-0.038725595921278
4.66336010742188,0.2418727467995136,-0.144748662674427,-0.0465063151091337,0.0332926101982593,0.0294949896633625,-0.0313899479806423
4.673323974609374,0.2223263713410124,-0.1809415274314582,-0.0268155262112617,0.0366692319512367,0.0261559169739484,-0.0305057764053344
4.683288085937505,0.1758421219332143,-0.1499028305672109,0.0336100086569786,0.0438422858715057,0.0328762903809547,-0.0218438301235437
4.693253173828126,0.1507470993716269,-0.069236325572431,0.0294809460282325,0.0457605607807636,0.0314882509410381,-0.0114077012985944
4.703217285156256,0.1670264723908156,0.0244882523074746,-0.07676350620687,0.0504572167992591,0.0163131393492221,-0.002539656125009
4.713182128906254,0.1743521756364032,0.059385378165543,-0.1619762763291597,0.0590528361499309,-0.0118455262854695,0.0029845384415239
4.723146240234371,0.1447390545958653,0.0155228555634617,-0.1830798546344041,0.053479753434658,-0.0290981736034154,0.0075777349993586
4.733110107421879,0.0839860778715461,0.0101351711757481,-0.083865447166562,0.0452623032033443,-0.0329621508717536,0.0128657072782516
4.743074951171877,0.0163336604896932,0.0320407135136425,-0.0046779286831617,0.0341771356761455,-0.0270293653011322,0.0174039602279663
4.753039062500008,-0.0218893218554556,0.057324646243453,0.0665472326189279,0.0179765932261943,-0.0118719842284917,0.0241984818130731
4.763004150390628,-0.0181415136292576,0.0542561985835432,0.1178723461866378,0.0115551194176077,0.0033187039662152,0.0313219502568244
4.772968017578123,-0.0034219007400795,0.0588788899481296,0.0884960295766592,0.0047305021435022,0.0138035686686635,0.0344881862401962
4.782933105468757,0.0329992198148742,0.0931181364193558,0.015848726516962,-0.0010036625899374,0.0071820318698883,0.0358737893402576
4.792897216796874,0.0664511518333107,0.0966939490795135,-0.0511707997888326,-0.0006124442443251,-0.0026895075570791,0.0368671491742134
4.8028613281250045,0.089282686442323,0.0591400251023471,-0.10149345831573,-0.0040421532467007,-0.0075270468369126,0.0354511439800262
4.81282592773438,0.0964067661685869,0.0575388735160231,-0.0703664986461401,-0.0039358930662274,-0.0144496671855449,0.0392666533589363
4.822790039062497,0.078001085177809,0.0511814673133194,-0.0324310280054807,-0.0131257455796003,-0.0176075734198093,0.0413793511688709
4.832755126953131,0.0685636870078742,0.0553343492090702,0.0247398889809846,-0.0147758405655622,-0.0072012715972959,0.0450798124074935
4.8427189941406255,0.0704041637754067,0.0116197106450796,0.0838736304730176,-0.0170249380171298,0.00568472687155,0.0527822487056255
4.852682861328134,0.0759329006016254,-0.0467028605945408,0.0853437030255794,-0.0148438103497028,0.0192724410444498,0.0591852851212024
4.862648193359377,0.1090490247944369,-0.0841303817130625,0.0697235245674848,-0.0157667268067598,0.0349711664021015,0.0765125453472137
4.872612304687507,0.1528561274148523,-0.0854838421486318,0.0680050302118062,0.0005083829164505,0.0194129776209592,0.0719295144081115
4.882577148437505,0.0930122283594682,-0.1126746314130723,-0.0897609349459409,0.0124520380049943,-0.0056331600062549,0.0803645402193069
4.8925410156249995,0.0820460131870582,-0.1235328561663627,-0.1023451067090034,0.0167623646557331,-0.0006365373264998,0.0854708924889564
4.902506103515634,0.0779233072338625,-0.0099384795598685,0.0085556468993425,0.0242139846086502,0.0043874024413526,0.0816298276185989
4.912469970703128,0.0768453392714262,0.0438717288218438,0.0122270288884639,0.0279216356575489,0.0015663160011172,0.0771567821502685
4.9224338378906225,0.0557464006086811,0.0374754519134759,-0.0248392577022314,0.0287164188921451,-0.005040556192398,0.0706658661365509
4.932399169921879,0.0299378594828769,0.0274327813267707,-0.0635480508029461,0.0266330279409885,-0.0113075068220496,0.0690413415431976
4.942363281249996,0.043173444359377,0.035521833627671,-0.0608785393327474,0.0263334922492504,-0.0214206241071224,0.0655285865068435
4.952328125000008,0.0468209705488756,0.0402877328552305,-0.055927638927102,0.0254032500088214,-0.0308383610099554,0.0641847550868988
4.962292236328125,0.0461634199555963,0.0420328229568898,-0.0117617494642734,0.0262851975858211,-0.0268597640097141,0.0587026327848434
4.972256103515633,0.0514719381598755,0.0240749953314661,0.0383551573574542,0.0264362022280693,-0.0192058384418487,0.0553947240114212
4.982220947265631,0.0436786174025386,0.0187678288340568,0.0345002354949712,0.0304889231920242,-0.0167607478797435,0.0515334345400333
