time,ax,ay,az,gx,gy,gz
0.0,-0.0616471490850672,0.0669146046265959,-0.1268254679709672,-0.0166188068687915,-0.0085827875882387,0.0252582561224699
0.009964111328130798,-0.0701739352161064,0.0732588590867817,-0.0966319897592067,-0.004443822428584,-0.0077232280746102,0.0158293470740318
0.019928710937506366,-0.0697012762030586,0.0877984027013182,-0.0726385352313518,0.003145920112729,-0.0044677797704935,0.0081360060721635
0.029892822265637164,-0.066174015392363,0.0763992029391229,-0.044129649105668,0.0069688698276877,-0.0036006905138492,-0.0018124785274267
0.03985693359375375,-0.0768643727654591,0.0415447471790015,-0.0348135392278432,0.0202409997582435,-0.0064808991737663,-0.0106326015666127
0.0498220214843883,-0.079030062899366,-0.0162106916971504,-0.0285778597086668,0.0276230312883853,-0.0057937679812312,-0.0141767561435699
0.0597858886718825,-0.0769476671347394,-0.0254626502975821,-0.032391280516982,0.0374588854610919,-0.0095352428033947,-0.0229329634457826
0.0697500000000133,-0.0684111998599022,-0.0201700968474149,-0.0408089802503585,0.0391880981624126,-0.0189585369080305,-0.0273698065429925
0.07971508789063364,-0.0765184454046189,0.0277606981068849,-0.0162467859238386,0.0365012362599372,-0.0196115430444479,-0.0343984216451644
0.08967895507812784,-0.0731060066126287,0.0661475657768547,0.0408627562642097,0.0311736315488815,-0.0127644529566168,-0.0415231399238109
0.09964282226563625,-0.06514226119183,0.0571934210792183,0.0786263774693012,0.0265732854604721,-0.0110208820551633,-0.050745666027069
0.1096079101562566,-0.0535205047201365,0.0706280721917748,0.0631856472313404,0.0240347888320684,-0.0135953053832054,-0.0548751875758171
0.11957202148438739,-0.0407709863275289,0.0713024643220007,0.033497195932269,0.0172871369868516,-0.0141409877687692,-0.0614196434617042
0.12953686523438535,-0.0421047556819394,0.0312877031892538,0.0138987614929676,0.0188628360629081,-0.0124924071133136,-0.0629791840910911
0.13950097656250193,-0.0328938962768763,0.0118181558266282,0.0033574937343597,0.0111143691465258,-0.0133856311440467,-0.065300129354
0.14946508789063273,-0.0508453672267496,0.0069486500941216,0.0125502694934606,0.0053884759545326,-0.0177347678691148,-0.065922237932682
0.15942993164063068,-0.0716542734343558,0.0112146369755268,0.0415805491447448,0.0048502506688237,-0.0172577947378158,-0.0674354434013366
0.1693937988281249,-0.0855642869736999,0.0290861014917492,0.081008304169774,-0.003157939761877,-0.0173918921500444,-0.0679723620414733
0.17935791015625568,-0.0663155792875215,0.0104278705120086,0.0940700303167104,-0.0050423927605152,-0.0107441078871488,-0.0690759718418121
0.18932299804687602,-0.0344708632700145,0.0245059340946376,0.0378653280138969,-0.005716823041439,-0.0135465143248438,-0.0655890703201294
0.19928686523438444,0.0097271018315106,0.0130075117416679,-0.0232037654548883,-0.0064388057217001,-0.0211493074893951,-0.064035378396511
0.20925073242187864,0.0263469223188236,-0.0149482705458998,-0.0252817407727241,-0.0105787627398967,-0.0242291335016489,-0.0634516403079032
0.2192158203125132,0.0215364898297935,-0.0317339856520295,0.011035188755393,-0.0125827910378575,-0.0216983314603567,-0.0582076050341129
0.22917993164062977,0.0174117015173658,-0.0287488323614001,0.048001522102952,-0.0185170210897922,-0.0188965033739805,-0.0563529804348945
0.2391450195312501,0.0159060096621513,-0.0331213483572006,0.0871732565402984,-0.0242103263735771,-0.0112210065126419,-0.0545963607728481
0.24910888671875853,0.0122987424178048,-0.0443906381294131,0.1019791960060596,-0.0299198720604181,-0.0016141766682267,-0.0492964051663875
0.2590729980468751,0.017427374010533,-0.0539076774068176,0.0693774876087904,-0.0258692037314176,-0.0027915597893297,-0.0471597537398338
0.2690378417968873,0.0293841345902532,-0.0604446779601275,0.006850012025237,-0.0258701760321855,-0.0121414689347147,-0.0453767701983451
0.27900195312500387,0.0554516554458066,-0.0403115521222353,-0.0279068285793066,-0.0172540508210659,-0.0165295600891113,-0.0410523302853107
0.2889658203125123,0.0374640537366271,-0.0394824078217148,-0.0504641128242015,-0.0150081142783164,-0.022916167974472,-0.0410510003566741
0.2989309082031326,0.0274090351250022,-0.0646773470938205,-0.0541577066451311,-0.0158273018896579,-0.0297703444957733,-0.0379129983484745
0.3088947753906268,0.0124452382164075,-0.0502601146847009,-0.0156242701113224,-0.0162946544587612,-0.0313181318342685,-0.0393836200237274
0.31885864257813523,-0.0114171738103032,-0.016190087300539,0.0358487274944782,-0.0143691897392272,-0.0220292937010526,-0.0404566004872322
0.32882397460937796,-0.0317083397541195,-0.000551058011502,0.0557166265249252,-0.0136386472731828,-0.0164943393319845,-0.0358261317014694
0.33878808593750875,-0.0191763731023296,-0.0301158829309046,0.0099970778793096,-0.012112389318645,-0.0179209951311349,-0.0345874950289726
0.34875195312500296,-0.0186569523381069,-0.0476604535803198,-0.0083604165881872,-0.0106158498674631,-0.0231975726783275,-0.0399074405431747
0.3587167968750009,-0.0085917411260306,-0.0613888269424438,-0.0069815294504165,-0.0061550545506179,-0.0279185585677623,-0.0412707105278968
0.3686809082031317,-0.0012243906958028,-0.0430823320098221,0.0160386961311101,-0.0074295941740274,-0.0215955693274736,-0.0466095171868801
0.37864575195312966,0.0045098055746406,-0.0222372585102915,0.0100128599703311,-0.0088559826835989,-0.0252928361296653,-0.0505328848958015
0.38860986328126046,0.0152536101680248,-0.0057419046528637,0.0006108253747224,-0.0092702470719814,-0.0207010433077812,-0.0610196441411972
0.39857373046875466,0.005188873879984,0.0222983410477638,0.0239957926154136,-0.0132644567638635,-0.0151318414136767,-0.069167323410511
0.4085390625000116,-0.0012305647082626,0.0265209271788597,0.0613596008479595,-0.0082154730334877,-0.004613087978214,-0.0744060203433036
0.4185029296875058,-0.0047103696480393,-0.0059784898877143,0.0391068525075912,-0.009547053836286,-0.006730833556503,-0.0772326961159706
0.428466796875,0.0027902152404189,-0.0333254926271736,-0.0341898543715476,-0.0012765093706548,-0.0099722407758235,-0.0799067839980125
0.43843164062501216,0.0077498834744095,-0.0353114057473838,-0.0661947659194469,0.0054482389241456,-0.0168277509510517,-0.0812399610877037
0.44839575195312875,0.0124629930688068,-0.0077922613114118,-0.0414238972783088,0.0091581968590617,-0.013149575330317,-0.0798817425966262
0.4583605957031267,0.0087773268260061,0.0160405958272516,0.0264747499495744,0.0122677022591233,-0.0050748717039823,-0.0796159580349922
0.4683247070312575,0.0134247873056679,0.0270209856554865,0.0254208569824695,0.0169620681554079,-0.001581851625815,-0.0759370774030685
0.4782885742187517,0.0280872266475111,0.0675366820476949,-0.0462339279085397,0.0226878654211759,-0.012659803032875,-0.0734568759799003
0.48825341796874966,0.0895816328562796,0.0740147920206189,-0.1177536882430314,0.0279230810701847,-0.0233572330325841,-0.0699896812438964
0.49821752929688046,0.115230161114782,0.0057576867438852,-0.0929261209785938,0.0295563973486423,-0.0314503125846385,-0.0663699135184288
0.5081813964843747,0.0989755572106689,-0.0658246174328029,0.0081552494049072,0.0312822945415973,-0.0204692259430885,-0.0642905086278915
0.5181467285156316,0.071887570733577,-0.090365038318932,0.1069891331225633,0.0269980654120445,-0.0150382425636053,-0.0586627200245857
0.5281105957031258,0.0594115720527246,-0.1013710009798407,0.1116156238794326,0.0228640623390674,-0.0123593332245945,-0.0587903037667274
0.5380747070312566,0.054639425747469,-0.1071671200379729,0.0847767167925834,0.0269437599927186,-0.0067493841052055,-0.054823525249958
0.5480395507812545,0.0500614503074437,-0.0856223738364875,0.0505576363265514,0.0288694538176059,-0.0130544900894165,-0.0491709262132644
0.5580036621093853,0.0579389056842774,-0.0382470208078622,0.0206862296760082,0.0299064889550209,-0.0148542542010545,-0.0473240241408348
0.5679677734375019,0.058707478903979,0.0081166709601879,0.022383681243658,0.028026033192873,-0.0185304805636405,-0.0447282418608665
0.5779326171874999,0.0535029690634459,0.0573379441164433,-0.0031575872480869,0.0213259905576705,-0.0249967575073242,-0.0440462380647659
0.5878964843750083,0.0673824048014357,0.067223086053878,0.0479021533817052,0.0141899436712265,-0.0213412456214427,-0.048422060906887
0.5978615722656286,0.059436998754926,0.0236724058799445,0.1179044948905706,0.0088732093572616,-0.0097879208624362,-0.0490931794047355
0.6078256835937594,0.0516749133860692,-0.0011857026532292,0.1469932267308235,0.0024089710786938,-0.0053994758054614,-0.0508567690849304
0.617789794921876,0.0477327150989323,-0.0099373105160892,0.0959194575756788,0.0051395101472735,-0.0062050819396972,-0.0504058934748172
0.6277546386718882,0.0647149026252329,-0.0224447637811303,0.0400076007395982,0.0075183324515819,-0.0108057847246527,-0.0511843375861644
0.6377185058593824,0.0666088631456717,-0.0163753807395696,0.0179547588855028,0.0031920270994305,-0.0102393301203846,-0.0526490733027458
0.6476826171875132,0.0695056440331041,0.0034741058513522,0.0341758258461952,0.0087150400504469,-0.0054216240532696,-0.0540645234286785
0.6576477050781335,0.0626582258237525,0.0238520002305507,0.0275081846505403,0.0026156026870012,-0.0060703703202307,-0.0522727482020854
0.6676115722656277,0.086688249502331,0.0584527734905481,-0.0041074353188276,-0.0059073059819638,-0.0105495313182473,-0.0547510907053947
0.6775754394531361,0.0849891904994845,0.0458244703248143,0.010408581289649,-0.0162414349615573,-0.0086128804832696,-0.0557937175035476
0.6875407714843789,0.0650586014963686,-0.0015353928737342,0.0602542699545621,-0.0236369185149669,0.0045489454641938,-0.0549804084002971
0.6975046386718873,0.0771356639875099,-0.0115542441934347,0.071097735530138,-0.0289712287485599,0.0132233938202261,-0.0516922064125537
0.7074694824218852,0.0833633428633213,-0.0449462261855602,-0.0118149409562349,-0.0281033962965011,-0.002211672021076,-0.0518791563808918
0.7174335937500018,0.0894226429022848,-0.0702731212742626,-0.0668558601766824,-0.0254682004451751,-0.0093353614211082,-0.0472375303506851
0.7273977050781326,0.0628622970284894,-0.0804705440312623,-0.0557382538348436,-0.0211405754089355,-0.0025909233372658,-0.0415040031075477
0.737362792968753,0.0536809194462373,-0.0685297847382724,-0.0900175400555133,-0.0164669938385486,-0.010264822281897,-0.0376240462064743
0.7473264160156248,0.0520141918104141,-0.0445225939460098,-0.0994996541500091,-0.0137835992500185,-0.019286822527647,-0.0319312699139118
0.7572905273437556,0.0539881952971219,0.0120090022236108,-0.0928951413184404,-0.006715037394315,-0.0198351666331291,-0.0239340607076883
0.7672558593750125,0.0560991595691069,0.0539461097210645,-0.0417494759708642,-0.0083050122484564,-0.0168770756572484,-0.0255897622555494
0.7772197265625067,0.0667284709373489,0.0382758085109293,0.024446458992362,-0.0040809726342558,-0.0102316904813051,-0.0250086616724729
0.7871835937500009,0.0678201751641929,0.0172943952806293,0.0381844769656658,-0.0052348831668496,-0.0049872975796461,-0.0280028097331523
0.7971486816406355,0.0794827751029282,-0.0015584814883768,0.0063701195538043,0.0034909639507532,-0.0056488262489438,-0.0202341023832559
0.807112792968752,0.1000171021528542,-0.0044046646997332,-0.0306716171175241,0.0073785753920674,-0.0075009362772107,-0.0155624011531472
0.8170766601562605,0.1084272031016647,0.0018150865979492,-0.0696329236745834,0.0074709868058562,-0.0239992197602987,-0.0180047862231731
0.8270415039062584,0.0844543895030394,-0.0325251360297203,-0.046809681969881,0.0127342892810702,-0.0225188434123992,-0.0154532194137573
0.837005615234375,0.053779922841303,-0.0603317191049456,0.0465939933925867,0.0099014835432171,-0.0145687749609351,-0.0137309543788433
0.8469709472656319,0.0332717166133225,-0.0619363778226077,0.1188841535776853,0.0063693225383758,-0.0048083066940307,-0.0056178905069828
0.8569345703125038,0.0341324616285041,0.0002015139214694,0.0804904177755117,0.0017700437456369,-0.0039995042607188,0.0033726745750755
0.8668986816406345,0.0722082540553063,0.0427834951937198,0.0307838453203439,-0.0090980343520641,-0.0091207372024655,0.0020615868270397
0.8768637695312549,0.0860153552094474,-0.0091229253932833,0.0429722957640886,-0.017416950315237,-0.010784413665533,0.0043377904221415
0.8868278808593857,0.0813806080808863,-0.0719958534136414,0.0781803872674703,-0.0236767306923866,-0.0054669147357344,0.0071817985735833
0.8967915039062575,0.0584234012655913,-0.1137619882583618,0.0854921715855598,-0.0291471313685178,-0.0061734514310956,0.0111688170582056
0.9067565917968778,0.0611219196345657,-0.1149492983467876,0.0425783280104398,-0.0361649990081787,-0.0104108899831771,0.0112401871010661
0.9167207031250086,0.0507636072274297,-0.099944621438533,0.0223603003680706,-0.0409576259553432,-0.0099618807435035,0.0119690941646695
0.9266845703125028,0.0149206518866121,-0.0891654532708227,0.0521896214425563,-0.0464763939380645,4.03448939323e-05,0.012021817266941
0.9366496582031374,0.0039326998064294,-0.0597711626127362,0.0594996521949768,-0.0486822947859764,0.0050596045330166,0.0087418686598539
0.946613769531254,-0.0117178372573107,-0.0568413927711546,0.0232727390378713,-0.0481924377381801,0.0045090550556778,0.0101139210164546
0.9565788574218885,0.0021957564786076,-0.0175055538132786,-0.0214823484897613,-0.0487335920333862,0.0017769180703908,0.0099509358406066
0.9665424804687603,0.0152762238586321,0.0322870894901454,-0.0474193383008241,-0.0474857985973358,0.0059952996671199,0.0061497944407165
0.9765065917968769,0.0272816824182868,0.0261874574407935,-0.0497024808019399,-0.0399767458438873,0.0072541763074696,0.0049092937260866
0.9864716796875115,0.0256079770524054,-0.0257224702775478,-0.0638660307109355,-0.0260796844959259,0.0107941068708896,0.0042408565059304
0.9964357910156281,0.0256257684374228,-0.0285046483419835,-0.0909498524695634,-0.0102599766105413,0.0084004569798707,0.0056624514982104
1.0063994140624999,0.0116102852296084,0.0167810389310121,-0.1316781686991453,0.0084016099572181,-0.0043789613991975,0.0028778370469808
1.0163645019531344,-0.0070176602097228,0.0018114333361387,-0.1448205588668584,0.0202508121728897,-0.0110882632434368,-0.0005009155720472
1.0263288574218876,-0.0290769683372229,-0.0039531215399503,-0.1156400570899248,0.0249251127243042,-0.0137499924749135,-0.0022887010127305
1.0362929687500042,-0.0452075074702501,0.0138666127890348,-0.0999585038334131,0.0282862894237041,-0.0183223746716976,-0.0071369856595993
1.0462575683593798,-0.0394998704131692,0.0540635986208915,-0.046487025886774,0.0328369103372097,-0.0230554435402154,-0.0114454422146081
1.0562216796875106,-0.0424043596830219,0.1013353451445698,-0.0391267262518405,0.0337477140128612,-0.0276531260460615,-0.0161464549601078
1.0661857910156272,-0.0226248695883899,0.0702896340176463,0.0098474402755498,0.0307452715933322,-0.0154720842838287,-0.0231492407619953
1.0761506347656251,-0.0062063803594559,0.017283873886615,0.08677870426476,0.0294741429388523,-0.0020795792806893,-0.0266118831932544
1.0861145019531335,0.0065778805529698,-0.0460100560247898,0.0865998405665159,0.0317008011043071,-0.0051590092480182,-0.0279170908033847
1.0960795898437539,0.0202908371502533,-0.0591920475505292,0.0123830962330102,0.0324427597224712,-0.0186809431761503,-0.028414037078619
1.1060437011718847,0.0224001209218055,-0.0318637495115399,-8.1833064556e-06,0.0216916650533676,-0.0298684407025575,-0.0314787961542606
1.1160075683593789,0.016204663815163,0.0127840782493352,0.0654682052105665,0.0094222137704491,-0.0180264301598072,-0.0356133542954921
1.1259726562500134,0.0109979254849255,0.0307749313615262,0.171640176731348,-0.0092631755396723,-0.0049191117286682,-0.0422978624701499
1.13593676757813,0.0212901869185268,0.0050415012985467,0.2114087080180645,-0.0168478582054376,0.0081673953682184,-0.0427159778773784
1.1459008789062608,0.0333203415280208,-0.019985387930274,0.1614268257528543,-0.0309158116579055,0.0071664312854409,-0.0424656569957733
1.1558654785156364,0.0368248059850186,0.0153353701673448,0.0930213980466127,-0.0300801116973161,0.0066319350153207,-0.0408587083220481
1.165829589843753,0.0454540661098435,0.051112347599864,0.0479015688598155,-0.0311290211975574,0.0100284740328788,-0.0408145152032375
1.1757937011718838,0.0345317631443962,0.0654316725924611,0.029506080469489,-0.0313005298376083,0.0101267443969845,-0.0367673113942146
1.1857585449218817,0.0346065088810399,0.0687643241465091,-0.0226326875686645,-0.0242239423096179,0.0068684099242091,-0.0293666757643222
1.195722412109376,0.0492716881692409,0.072932842002809,-0.057960606059432,-0.0188358351588249,0.0055256439372897,-0.0203044675290584
1.2056877441406328,0.0628580957774072,0.0407562271498143,-0.0685778616636991,-0.0127056203782558,-0.0028379559516906,-0.0181728582829237
1.2156518554687636,0.0737030226577073,-0.0024124679692089,-0.0716314040154218,-0.0039094653911888,-0.0097552500665187,-0.0111666154116392
1.2256157226562578,0.0692314302016049,-0.0414890714690089,-0.0421586412936449,-0.0020881476812064,-0.0164123810827732,-0.0085228821262717
1.2355805664062558,0.055423379199393,-0.0597258621662855,-0.0088981767266988,-0.0059997988864779,-0.0183407757431268,-0.0037984335795044
1.2455446777343866,0.0323396964602172,-0.0488832733735442,0.0490992542117834,-0.0085792317986488,-0.0132688507437706,-0.0009022578597068
1.2555087890625032,0.0173888686310499,-0.0019916122086346,0.094772041106224,-0.0159298218786716,-0.0046908091753721,-0.0005778851918876
1.2654736328125011,0.0417056733617559,0.0385239380531013,0.0889238995999097,-0.0238441526889801,0.0020196803379803,-0.0020625684410333
1.2754375000000095,0.0454638933841139,0.0072021864637732,0.0710930593550205,-0.0294319950044155,0.0058652851730585,-0.0034535378217697
1.2854016113281261,0.0483836898209527,-0.0246403741292655,0.0459492657482624,-0.0269141495227813,0.004704063758254,-0.0034764437004923
1.2953666992187607,0.0575535961611196,-0.0533994356237351,0.0169996501177549,-0.0233292691409587,0.0068361908197402,-0.0002106092870235
1.3053305664062549,0.0567388822447508,-0.0544978983849287,-0.0008691840499639,-0.0161786675453186,-2.3819738999e-05,0.0030618689488619
1.3152946777343857,0.063328307105042,-0.0524453497692942,-0.0731909084171056,-0.0067074010148644,-0.0146775962784886,0.0030147309880703
1.325259765625006,0.0503321204749867,-0.042442865062505,-0.0904869111329317,-0.0048353597521781,-0.0197262167930603,0.0052136913873255
1.3352236328125002,0.0246342001168057,-0.0329272870898246,-0.028193244305253,-0.0065387175418436,-0.0102680008858442,0.0069647198542952
1.3451884765625124,0.0223071088761091,0.0238321264863014,0.0208335291922092,-0.0073171015828847,-0.0070260032080113,0.0028767911717295
1.355152587890629,-0.0034745077101513,0.0630387861065566,0.0235924725115299,-0.0042278347536921,-0.0123560540378093,0.0031455042771995
1.3651166992187598,-0.0257912611974403,0.0452197824299335,0.0074105685174465,-0.0022330451756715,-0.0097987214103341,0.004113835748285
1.3750817871093801,-0.0134813397984951,0.0183409817241132,0.0093564418882131,0.007314121350646,-0.008382985368371,0.0009710392914712
1.3850456542968885,0.0088361078085377,0.0357275853328406,-0.0297246916562318,0.0110363336279988,-0.0164461452513933,-0.0005493606440722
1.3950097656250051,0.0117679965419694,0.0613834201149642,-0.0761333916097879,0.0145676853135228,-0.0252737253904342,-0.0057172244414687
1.404974609375003,-0.0163582469416782,0.0435134169034659,-0.0225759889453649,0.0137845464050769,-0.0198747739195823,-0.0111687220633029
1.4149387207031339,-0.0426628644887357,0.0285430806562304,0.0401449633836746,0.0056805480271577,-0.0095409099012613,-0.0136073790490627
1.424902587890628,-0.0544015253383666,0.0355371773272752,0.0691892715603113,-0.0001370296813547,-0.0087071480229496,-0.0160843934863805
1.4348676757812626,-0.0508921655105426,0.0209213536061346,0.0560737693995237,4.61963936686e-05,-0.0082565415650606,-0.0191030856221914
1.4448317871093792,-0.0446433342488482,0.0095073946662247,0.0713105014979839,-0.0061480114236474,-0.0048329960554838,-0.0183584932237863
1.4547956542968876,-0.0190270642921328,0.0015960370197892,0.0774509039491415,-0.0067221890203654,-0.0024971375241875,-0.0196834150701761
1.464760742187508,-0.0062016676517203,-0.0175169519901275,0.068857847648859,-0.0162993818521499,-0.000469789840281,-0.0225718654692173
1.4747246093750022,0.0238022793373093,-0.0356704483181238,0.0521855297893285,-0.0177345611155033,0.0013606006978079,-0.0232517700642347
1.484689941406259,0.0387178531900048,-0.0238085994802415,0.0699023882657289,-0.0169345252215862,0.0011049626627936,-0.0199390761554241
1.4946540527343757,0.0453074607133865,0.0295839680112898,0.0493301403582096,-0.0177715569734573,-0.0013121224474161,-0.0179190710186958
1.504617919921884,0.0452937975142151,0.0186804428115487,0.0344902986228466,-0.0204042233526706,-0.0043928357772529,-0.0224054027348756
1.514582763671882,0.0057443158056586,-0.0002365852348506,0.0503852023690938,-0.0113968802616,-0.001845255959779,-0.022117780521512
1.5245468750000128,-0.0070914560982957,0.0108313367463648,0.0548924506604671,-0.0024851439520716,-0.0040330425836145,-0.0146862305700778
1.534510742187507,0.0026587708804756,0.043875966605544,0.0125935241132974,0.0032845940440893,-0.0060850083827972,-0.0170156974345445
1.544475585937505,0.0071996657131239,0.0363319809667766,-0.0112964700400829,0.0103320619091391,-0.0086439047008752,-0.0198013857007026
1.5544396972656358,-0.0014207900507375,0.0306368380650877,-0.0284954421222209,0.0187220834195613,-0.0115621965378522,-0.0199617072939872
1.5644038085937524,0.0045903965301811,0.0201854405470192,-0.0207622175216674,0.0311692133545875,-0.012206302024424,-0.0214655641466379
1.574368896484387,0.0067478302923962,0.0324522169239819,-0.0422246922671794,0.0382508225739002,-0.0174221023917198,-0.0238030198961496
1.5843327636718811,0.0213985426638275,0.0250834417216479,-0.0634749855667352,0.0406917929649353,-0.0276836939156055,-0.0263239722698926
1.5942978515625015,0.020164909215644,0.0271339445106685,-0.0479407318264245,0.0455456748604774,-0.0268085803836584,-0.0275333169847726
1.6042619628906323,0.0193971031809225,0.0070389587260782,0.0217436297744512,0.0422317162156105,-0.0208876747637987,-0.0324737392365932
1.6142258300781265,0.0072296955252066,0.0054557811878621,0.0558119035929441,0.0292570628225803,-0.0179595295339822,-0.0317032858729362
1.6241906738281386,0.0206215669419616,0.074274758131057,0.0414788423359394,0.0168104358017444,-0.0139452368021011,-0.0331017225980758
1.6341547851562552,0.0640707960354164,0.0511037259019911,0.0239192202478647,0.0098462700843811,-0.0130970198661088,-0.0314489677548408
1.6441186523437636,0.0853963099956512,-0.0236857037529349,0.0558645105630159,0.0051124449819326,-0.0105040315538644,-0.0319539234042167
1.654083740234384,0.0820479494158178,-0.074335402277112,0.0977425813496112,0.0015914803370833,0.0006303789559751,-0.0237937327474355
1.6640478515625006,0.0799920763319358,-0.0759568659991025,0.097705756470561,0.0010862722992897,0.0006098640151321,-0.0181622076779603
1.6740119628906314,0.0860313930287957,-0.0599298603057861,0.0288058232456445,-0.0048272772692143,-0.0104840658605098,-0.0102994907647371
1.6839770507812517,0.0830147120887413,-0.0699168551824986,0.0031762919485569,-0.0107963485643267,-0.0131999272853136,-0.0029757684096693
1.6939406738281377,0.0790381366079673,-0.0571400834567844,0.0629652824789285,-0.0194159355014562,-0.0061934171244502,0.003826743690297
1.7039047851562543,0.0624011823227629,-0.0442668656192719,0.1065501571834087,-0.0249697435647249,0.001152524491772,0.0125826559960842
1.7138698730468747,0.0653137453012168,-0.0556298250243067,0.0963683703869581,-0.0323986299335956,0.0078692827373743,0.0151981469243764
1.723833740234383,0.0708910705095157,-0.1009856549240648,0.0819996532946824,-0.030726296827197,0.01377859339118,0.0257118083536624
1.7337976074218773,0.0645206952273845,-0.1162381691135466,0.0496527964413166,-0.016640305519104,0.0105567006394267,0.0337913073599338
1.7437629394531342,0.06885821297504,-0.0808325092114508,-0.0445563500851392,-0.0064517529681324,-0.0075342264026403,0.0494698621332645
1.7537270507812508,0.0679635656902566,-0.0022033552631735,-0.1530816067337989,0.0043593496084213,-0.0286214016377925,0.0539719350636005
1.7636916503906264,0.0565967338277026,0.0207138483352959,-0.1298164664804935,0.0045611578971147,-0.0359902344644069,0.050656009465456
1.7736557617187572,0.0314143252436071,0.0510306606657803,-0.0042190789997577,0.0035582119598984,-0.0162996184080839,0.0478485040366649
1.783619873046888,-0.0084765172485262,0.0883455151900649,0.0952478419244289,0.0056216567754745,-0.0021073331590741,0.0458348728716373
1.7935849609375083,0.0104510321918874,0.0796582047350704,0.0675870970606803,0.0051196506246924,0.0058328816667199,0.0395151898264884
1.8035485839843801,0.0235092146748676,0.0443259023301303,-0.0029524200648069,0.0119496583938598,-0.0026406156830489,0.0337124429643154
1.813512695312511,0.0135596657317131,0.0141293553784489,-0.0667512307584285,0.0204784329980611,-0.0064593222923576,0.0284015666693449
1.8234777832031313,0.0015535861175507,0.0133721072703599,-0.063135962870717,0.0244534481316804,-0.0132637256756424,0.0239109583199024
1.833441894531262,-0.0055660000966861,0.0384044033266603,-0.0349707756161689,0.0195428449660539,-0.0167601890861988,0.0185151286423206
1.8434057617187563,-0.0043163288291543,0.0638498102284967,-0.0118207861751317,0.0205535888671875,-0.0123399831354618,0.0129038579761981
1.8533708496093766,-0.0142243036529049,0.0618184505313634,0.039336569610238,0.0146789224818348,-0.0095756221562623,0.006841704249382
1.8633349609375074,-0.0086338267020881,0.0443660882100462,0.0615548311591148,0.0116984229534864,-0.0079319756478071,0.0017028516158461
1.8732998046875053,0.0164868782900273,0.0250315654039382,0.0683422993421554,0.0004771929234266,-0.0094081657007336,-0.0042320028878748
1.8832636718749995,0.0187464937850832,0.0020092939957976,0.0835837076157331,0.0021487353369593,-0.0065122153609991,-0.015548275783658
1.8932277832031303,-0.030182554958947,0.0035670448318123,0.0921668270438909,-0.0033014235086739,-0.0040423991158604,-0.0168404430150985
1.9031928710937507,-0.008142718716897,-0.0441004230111837,0.0537146390527486,-0.0088889813050627,-0.0058607701212167,-0.0224975477904081
1.9131564941406367,-0.0232229085467755,-0.0648988808900117,0.0255856921553611,-0.0160877723246812,-0.0022929334081709,-0.0261348914355039
1.9231206054687533,-0.0355138329843059,-0.0444721789330244,0.0634942747890949,-0.0166081488132476,0.0042597828432917,-0.0289892721921205
1.9330859375000102,-0.0530520834907889,0.007779840221256,0.0423071098536253,-0.0184294842183589,0.0067184129729866,-0.0285543780773878
1.9430500488281268,-0.053702291027829,0.0498401357069611,-0.0011491700351238,-0.0049658548086881,0.0055362624116241,-0.0285349488258361
1.9530136718750128,-0.0404386125680059,0.0692597064480185,-0.0459855061054229,-0.0036654332652688,0.0029292940162122,-0.0278968587517738
1.9629787597656332,-0.0175874234104529,0.0945895241461694,-0.0879775586605072,-0.0012034568935632,-0.0001428804825991,-0.0291312132030725
1.9729428710937498,0.0134182479670271,0.1015787985116243,-0.09871464125216,0.0082467701286077,-0.0063472464680671,-0.0264944154769182
1.9829069824218806,0.0347809886651113,0.0454185198724269,-0.1184510228574275,0.0090195015072822,-0.0127135040238499,-0.0235452000051736
1.9928715820312561,0.0300398585526272,-0.0017144027024507,-0.0714309130072593,0.0066849738359451,-0.0155335254967212,-0.0221486389636993
2.002835693359387,0.0057997357873246,-0.0419645800262689,0.0156143332391977,0.0042151790112257,-0.0130679253488779,-0.0189821645617485
2.0128007812500073,-0.0131427554938942,-0.0552289891384542,0.1090454811304807,-0.0027039796113967,-0.0060819219797849,-0.0147176440805196
2.022764892578138,-0.0200030331848189,-0.0709461982302367,0.1370394034713506,-0.0113188819959759,0.0004548542201519,-0.0161799639463424
2.0327287597656323,-0.0109912400158122,-0.0592091448158025,0.1269856269687414,-0.0169796980917453,0.0100648710504174,-0.0136747285723686
2.0426938476562526,-0.0057290086386725,-0.0227637666024267,0.0957546224027872,-0.0222754348069429,0.0140467341989278,-0.0109325153753161
2.0526579589843834,0.0377809741986915,-0.0081095105670392,0.0388432331353425,-0.0192831084132194,0.0081318533048033,-0.0102139944210648
2.0626215820312552,0.0432098673796281,-0.0126350251674652,-0.008797054439783,-0.0209229253232479,0.0030045264866203,-0.0114851044490933
2.0725866699218756,0.053462819716148,-0.0052265024766325,-0.0093926822453737,-0.0228281505405902,0.0018844008445739,-0.0149860950186848
2.0825507812500064,0.0286102641409262,0.0184909115888178,0.0198263979762792,-0.024923350661993,0.0010551752056926,-0.023090623319149
2.092514892578137,0.0013604746982455,0.0326258199252188,0.040216859576106,-0.0242604911327362,0.0088827386498451,-0.0238797180354595
2.1024799804687575,0.0098049893733114,0.0596928366795182,0.0301221665412187,-0.0143337324261665,0.0133825987577438,-0.0239463001489639
2.1124438476562517,0.0235044654345139,0.0317478680469095,-0.0293143572896718,-0.0159374885261058,0.010080013424158,-0.025051511824131
2.1224079589843825,0.0281567847523838,-0.0085465868100523,-0.0718108522355556,-0.0009151664562523,-0.0012055044062435,-0.0209777113050222
2.1323728027343805,0.0245555453900247,-0.0342484526909887,-0.1148147121816873,0.0095233591273427,-0.0155468918383121,-0.0190083030611276
2.1423366699218747,0.0265746666600927,-0.0564868802450597,-0.1251636722385883,0.014971443451941,-0.0203138180077075,-0.0175139810889959
2.152301757812509,0.020760683151707,-0.0617864479579031,-0.0600298135489225,0.0180740244686603,-0.021822765469551,-0.0199747420847415
2.162265869140626,0.0201169418880715,-0.0274929870814084,0.0106003044694662,0.0207416154444217,-0.0146958073601126,-0.0199877843260765
2.172229736328134,0.013900661189109,0.0645018443964421,0.0577151068657636,0.0168145187199115,-0.0106523297727108,-0.0203124247491359
2.1821948242187545,0.020849055554904,0.1006111225232481,0.0318716405570507,0.0157587714493274,-0.00824711099267,-0.0219596046954393
2.1921589355468853,0.0307891060173511,0.0454791640184819,0.0024205051451921,0.0131776360794901,-0.0045479806140065,-0.0209105852991342
2.202123046875002,0.0463597827779129,0.0206720550201833,-6.25438421964e-05,0.0100510120391845,-0.0062296576797962,-0.0208773054182529
2.212087890625,0.0738575190996751,0.0227620130367577,-0.009822890356183,0.0112515650689601,-0.0088312998414039,-0.0187790002673864
2.2220517578125083,0.0664542571058496,0.0193915136903524,0.0069330141335725,0.0093058068305253,-0.0094002299010753,-0.019728910177946
2.232015869140625,0.0605924158677458,0.0033602702133357,0.0502811574727296,0.0100448336452245,0.0017339145997539,-0.0154955489560961
2.241980712890637,0.0363776102067902,0.0382524276353418,0.0664057783216238,0.0067688077688217,0.0077490480616688,-0.015750428661704
2.2519445800781313,0.0399571126613765,0.0814389506720006,0.0184936880677938,0.0060526840388774,0.0060843061655759,-0.0144563987851142
2.261908691406262,0.0447661934435367,0.0467851320505142,-0.0020183540850877,0.0074103521183133,0.0063077276572585,-0.0130483768880367
2.2718737792968824,0.0444197546260431,0.0102972298696637,-0.0108043026089668,0.0137023357674479,0.0083426488563418,-0.0083002261817455
2.281837890625013,0.0543003665188327,-0.0103873923711478,-0.013980010035634,0.0166923888027668,0.0085759032517671,-0.0028354446403682
2.2918029785156335,0.0586926101284101,-0.0317820625774562,0.0020750527083873,0.018422644585371,0.005786508321762,-0.0062962225638329
2.3017668457031277,0.0408319227345287,-0.0143304309085011,0.0342979909211397,0.0141536667943,0.0090322513133287,-0.0047526401467621
2.3117309570312585,0.0317328166082501,-0.0158037183314561,0.0436965183854103,0.0123168844729661,0.011279160156846,-0.0066107283346354
2.3216958007812565,0.0177255167068913,-0.0346875747606158,0.0157569565802812,0.0085714263841509,0.0085236048325896,-0.0077247368171811
2.3316596679687507,0.0096266005991026,-0.0309469269275665,0.0006757073044776,0.0021843677386641,0.0051254108548164,-0.0086288806051015
2.3416237792968815,0.0082110712453722,0.0032492110542953,0.0044365211427211,-0.0017585414461791,0.0032905673142522,-0.0095998607575893
2.351588867187502,0.0152735569775104,0.0189713885821402,0.0064151277393102,-0.0154578424990177,-0.001800331287086,-0.0132388044148683
2.3615529785156326,0.0083064944438636,0.0113804950617253,0.0228378547519445,-0.0213178545236587,0.000126740662381,-0.0138151179999113
2.371516845703127,-0.0059862348027527,0.0241819628372788,0.0301642521172761,-0.0254271142184734,0.0048344107344746,-0.0184564739465713
2.3814816894531248,-0.0134757137753069,0.0465847871728241,0.0146025258481502,-0.0225819759070873,0.0046289805322885,-0.0216906107962131
2.3914458007812556,-0.0113299339182674,0.0456793627656996,-0.0235094704031944,-0.0235383175313472,0.0003293068148195,-0.0241321977227926
2.401410888671876,-0.0096067633874714,0.0581431230194866,-0.0465770422577857,-0.0216976329684257,0.0013879961334168,-0.0251319445669651
2.4113747558593843,-0.0029805501807481,0.0716971627280116,-0.0434948583334684,-0.0127507448196411,-0.0028267228044569,-0.0290478579699993
2.421338867187501,-0.0245184647826477,0.0658019672095775,-0.0379787252604961,-0.0112861739471554,-0.0107371835038065,-0.0292033925652503
2.4313029785156317,-0.0263680747047066,0.0420348687835037,-0.0233738613247871,-0.0077207335270941,-0.0097243832424283,-0.0251583158969879
2.441266845703126,-0.0195937947968021,0.0414554614603519,-0.0058440498530864,-0.0067776152864098,-0.008472247980535,-0.0313738733530044
2.4512309570312567,-0.0264670780997723,0.0113872170634567,0.0118605336636304,-0.0099052311852574,-0.0069521162658929,-0.0332833603024482
2.461196044921877,-0.0227516743058338,0.010951309864223,0.0292962371110916,-0.008145154453814,-0.0065380036830902,-0.0319435186684131
2.471160156250008,-0.0223326086435467,-0.0020090017348527,0.0361544324427843,-0.0106088453903794,-0.0072967382147908,-0.0336530022323131
2.481124023437502,-0.0093479297881945,-0.0127858318150043,0.0337818580925464,-0.0156116094440221,-0.003375792177394,-0.0364019013941288
2.4910891113281366,0.0009842252643778,-0.0620455372855067,0.0295288768231868,-0.0178441368043422,-0.0035590177867561,-0.0378471985459327
2.501053222656253,-0.0058666270110756,-0.0815644767478108,0.0358580798447132,-0.0273201875388622,0.0031761340796947,-0.046460136771202
2.511016845703125,-0.0159229242643341,-0.0631109745599329,0.0484726467460393,-0.0396681986749172,0.0138583397492766,-0.0473043583333492
2.5209819335937595,-0.0199162682168185,-0.0383136563032865,0.0568839167386293,-0.0399978794157505,0.0199740473181009,-0.0540637411177158
2.530946044921876,-0.0253309502093121,0.0071652154542505,0.0483896446377038,-0.0319492742419242,0.0262764189392328,-0.0515079051256179
2.5409108886718883,-0.0229962236514315,0.0133396663054823,-0.011367197188735,-0.0183460693806409,0.0188447069376707,-0.0510543324053287
2.5508747558593825,0.004606288219057,-0.0077576283894479,-0.0999327848702669,-0.006501127500087,0.0064775189384818,-0.0493272729218006
2.5608391113281357,0.0576431010754779,0.0095114863194525,-0.1694429589480161,0.012518330477178,-0.003584797726944,-0.0487166531383991
2.5708039550781336,0.0836077460784465,0.0072362348638474,-0.1785048018038272,0.0251241363584995,-0.0059922961518168,-0.0477379411458969
2.5807680664062502,0.1024549237590283,-0.0681138974137604,-0.1442611714184284,0.0378846451640129,-0.0092389993369579,-0.0407039746642112
2.5907319335937586,0.0999364746646955,-0.1303176940008998,-0.1200467676162719,0.0579843185842037,-0.0196644756942987,-0.0355710014700889
2.600697021484379,0.0967030457014218,-0.1590140655227005,-0.098576694086194,0.0658007115125656,-0.0280893594026565,-0.0293442793190479
2.6106611328125098,0.0900112564451992,-0.1879153119668364,-0.018664952981472,0.0727230757474899,-0.0242312382906675,-0.0252986699342727
2.620625000000004,0.075216751688905,-0.1642377915203571,0.0831342102825641,0.0732792988419532,-0.0133130103349685,-0.020712960511446
2.630589843750002,0.070086439595744,-0.1256665071941912,0.1543862595915794,0.0679260790348053,-0.0015831179916858,-0.0192607380449771
2.6405539550781327,0.0584822918459773,-0.1034239879868924,0.1473252351641654,0.0611713267862796,-0.0002276608720421,-0.0222999360412359
2.6505180664062635,0.0603709916694089,-0.0939461116760969,0.1146422782242298,0.0558838881552219,-0.0067936847917735,-0.0210405271500349
2.660483154296884,0.054101884804666,-0.0624725305259227,0.088520579496026,0.0499769076704978,-0.0012377062812447,-0.0228333678096532
2.670447021484378,0.0409000195346772,-0.0527390720188617,0.0860726018220186,0.0413266941905021,-0.0075957365334033,-0.0301269683986902
2.680411865234376,0.0237300543513149,-0.0437226757399737,0.083014967817068,0.039176095277071,-0.0048882840201258,-0.0327957198023796
2.690375976562507,0.0155712978150695,-0.0161995857812464,0.0977571943968534,0.0352806895971298,0.0033597922883927,-0.0352905690670013
2.700339843750001,0.0004964782800525,0.0034901802033185,0.0647825610339641,0.0349444299936294,0.0062945215031504,-0.0331928059458732
2.7103049316406356,0.0070302639629691,0.0357427829019725,0.0108954880237579,0.032990738749504,0.0042532081715762,-0.0322202183306217
2.720269042968752,0.0206363261196762,0.035340924102813,-0.0400070162177085,0.0369840674102306,-0.0012748811859637,-0.0320255458354949
2.7302329101562606,0.0293721153588965,0.0478419476270675,-0.0556412232011556,0.0405130200088024,-0.0049641579389572,-0.0313232690095901
2.7401982421875033,0.0422214408641681,0.0790261904418468,-0.0658002136439084,0.0406653806567192,-0.0009411524515599,-0.0320090502500534
2.7501621093750117,0.0625073095783591,0.0904727364771068,-0.0562047023028135,0.0397415272891521,-0.006405958905816,-0.0308122262358665
2.760125976562506,0.0672098612461239,0.1069338958039879,-0.031589316484332,0.0397221446037292,-0.0065885200165212,-0.0323821380734443
2.7700910644531263,0.0778836693432182,0.1018317503593862,-0.0038140053302049,0.0335998013615608,-0.0054686614312231,-0.0351717993617057
2.7800549316406347,0.0604902706675231,0.0642807489916682,0.0326513927578926,0.0263261776417493,-0.0004986699204891,-0.0347941629588604
2.7900190429687513,0.0482337964888662,0.0028404841229319,0.0814314980179071,0.0157587546855211,0.0046545467339456,-0.0319259390234947
2.7999838867187634,0.0530584401663392,-0.0191064131386578,0.0929173531502485,0.0101807694882154,0.0118738524615764,-0.0293426774442195
2.80994799804688,0.0521796480378136,-0.0278461844332516,0.0831312876731157,0.0046416604891419,0.0037078014574944,-0.0284622348845005
2.8199130859375003,0.0633656434407457,-0.0341843014135956,0.051190673533082,0.002077673561871,0.0008919758256524,-0.0237364675849676
2.8298769531250088,0.0801845666967332,-0.0078355159312486,0.0486035796493291,0.0032433392480015,0.0022906679660081,-0.0196652933955192
2.8398410644531253,0.0969220952795818,0.0098166067458689,0.0411374815523624,-0.0017794757150113,0.0058431411162018,-0.0162021163851022
2.84980615234376,0.1208810630159452,-0.0197131468601524,0.0126624976962804,-0.0055851326324045,0.0016212321352213,-0.012336004525423
2.859770019531254,0.1188086041234433,-0.0338612069390714,-0.0021872809112071,-0.0057793571613729,-0.0021233381703495,-0.0063023525290191
2.8697338867187625,0.1153139669407159,-0.0758633424967527,0.0093009123086929,-0.0040488354861736,-0.0048671932891011,-0.0028216005302965
2.879698974609383,0.1036110715242102,-0.1182091769255697,0.0128781862735748,-0.0043336385861039,-0.0012526938226073,0.0054818848147988
2.889662841796877,0.0855601222552359,-0.0986684640228748,0.0308224237650632,-0.0070676398463547,-0.0006588089745491,0.0089210905134677
2.899626953125008,0.0825632785268127,-0.0604348872184753,0.0218143569231033,-0.0059600993990898,-0.0066116550005972,0.0166825931519269
2.909592041015628,0.0649320890398696,-0.0325900179594755,-0.0097457334667444,-0.0048389085568487,-0.0090082343667745,0.0199923701584339
2.919556152343759,0.0526307162735611,-0.0300346343882381,-0.0141354928582906,-0.0035174544900655,-0.0109070762991905,0.0215777531266212
2.929520019531253,0.0225105590263381,-0.0121921037055552,-0.0298351662933826,-0.0042570140212774,-0.0158331245183944,0.024481663480401
2.939484863281251,0.004279138623923,0.001311082598567,-0.0189297413975,-0.0015612114220857,-0.0107962395995855,0.0290969423949718
2.949448974609382,0.0317384060988202,-0.0731289490967988,0.032203064468503,-0.0038251648657023,-0.0102873109281063,0.029191218316555
2.9594140625000023,0.0415161786716431,-0.1307524321563541,0.0469511362671852,-0.0023297951556742,-0.006597492378205,0.0285147726535797
2.9693779296875107,0.0358526730172336,-0.1069634141594171,0.0600152005016803,-0.0008416208438575,-0.0065237223170697,0.0329550616443157
2.979341796875005,0.0382835534259676,-0.0377734119467437,0.0277080911368131,0.0011892430484294,-0.012576961889863,0.0337310843169689
2.989307128906262,0.0406498441658914,-0.0065372928142547,0.0020370587855577,-0.0030073658563196,-0.0188404507935047,0.0317587479948997
2.9992712402343784,0.0325213731700554,-0.0025965923644602,0.0149210902780294,-0.0044975252822041,-0.0176880620419979,0.0287038646638393
3.009235107421887,0.0080126991290599,-0.010823445700854,0.0350368265897035,-0.0059737153351306,-0.0101710222661495,0.0295195877552032
3.0191999511718848,0.0055495969511568,-0.025476824953407,0.029231939703226,-0.0058191665448248,-0.0097628515213727,0.0303185377269983
3.0291640625000014,0.0003686141166836,-0.0453795030362904,-0.013882979401946,-0.0017953966744244,-0.0153427068144083,0.0311366617679595
3.0391279296875098,-0.0148036013782024,-0.0446294153213501,-0.0294990662068128,-0.0018379036337137,-0.020013689994812,0.0239109620451927
3.0490927734375077,-0.0467717245796695,-0.0170629246123135,-0.0086123455226421,0.0005629360675811,-0.0173060540109872,0.0233714058995246
3.0590568847656385,-0.0559015911703929,0.0335018721073865,0.0347007265031337,-0.000764035154134,-0.0123223150148987,0.0197673551738262
3.069020996093755,-0.0638119624361395,0.0549687307670712,0.0220195241063833,-0.0078808004036545,-0.0168036166578531,0.0139270424842834
3.078986328125012,-0.0565205267863348,0.0679464318923652,0.0421171402394771,-0.0161644592881202,-0.0145855341106653,0.0061751008033752
3.088949951171884,-0.068253780808486,0.0650510027118027,0.0912339301079511,-0.0201738476753234,-0.0073630418628454,-0.0043430537916719
3.098915039062504,-0.0765393785947933,0.0529939235627651,0.1031429790884256,-0.0264935232698917,0.0007039478514343,-0.0079327328130602
3.108879150390635,-0.0682938936231657,0.0256787772662937,0.0574134935706853,-0.0317852273583412,-0.0046615228056907,-0.0144404340535402
3.118843017578129,-0.0567611671417951,-9.81996774673e-05,0.0022241057902574,-0.0373887792229652,-0.0092296423390507,-0.0206599794328212
3.128807861328127,-0.0599774623071774,0.0127577747642993,-0.0244382756859064,-0.036306831985712,-0.0202166978269815,-0.0214714407920837
3.138771972656258,-0.0685279946399852,0.0744926386654376,-0.0055891983091831,-0.0353299155831337,-0.0282806009054183,-0.0238682702183723
3.1487360839843745,-0.0632583836739882,0.1137504439510405,0.0059252983957529,-0.0349568054080009,-0.0298393499106168,-0.0331730879843235
3.15870068359375,-0.0561154896494001,0.0986309084914624,0.0047965866267681,-0.0387107692658901,-0.0308140236884355,-0.037285566329956
3.1686650390625033,-0.0450487001793459,0.0709983668088913,0.0243891758471727,-0.0429326780140399,-0.0239577144384384,-0.0398922674357891
3.178629150390634,-0.0340737902438268,0.0662289604499936,0.040500352692604,-0.0415196344256401,-0.0194056164473295,-0.0405921228229999
3.1885942382812544,-0.015483436868526,0.0271874282635748,0.0178366854637861,-0.0422975420951843,-0.018174435943365,-0.0414605811238288
3.1985578613281263,-0.0024995617307722,-0.0452798420540988,-0.0200835876077413,-0.038532517850399,-0.0260230861604213,-0.0381628088653087
3.208521972656257,-0.0036058424722403,-0.0750575790718197,-0.0129617729038,-0.0273363217711448,-0.0295357964932918,-0.0364725030958652
3.2184870605468774,-0.0107817985162138,-0.0411937417842447,0.0207207164674997,-0.0179315898567438,-0.0209552533924579,-0.0305884759873151
3.228451171875008,0.000340703196451,0.0411263756364583,0.007249240475893,-0.0125259049236774,-0.0216748397797346,-0.0257987808436155
3.2384157714843838,0.0379444211320951,0.0803368346489965,-0.0089133742958307,-0.0195340048521757,-0.0200494937598705,-0.0222288221120834
3.2483798828125003,0.0597441650079563,0.0763680771484971,-0.0042629181414842,-0.0150798680260777,-0.0212993156164884,-0.0208738055080175
3.2583442382812535,0.060021666775085,0.0184781982377171,-0.0125765729784965,-0.0109344087541103,-0.0158684104681015,-0.0231945347040891
3.2683090820312515,0.0543116550978273,0.0088186817497014,-0.0465969160020351,-0.0055841179564595,-0.018425578251481,-0.0188485216349363
3.27827294921876,0.0654323667122051,-0.030291385628283,-0.0802478411912918,-0.0019152904860675,-0.0239674765616655,-0.0155749451369047
3.2882370605468765,0.0650405178504064,-0.0827621620997786,-0.0819505534559488,0.0065751336514949,-0.0240343213081359,-0.0127503965049982
3.298202148437511,0.060659380156733,-0.0928423882178962,-0.027762451672554,0.0054495092481374,-0.0238261446356773,-0.0126585206016898
3.308165771484383,0.0430211398744955,-0.048573038380593,-0.0051782794207334,0.0083494251593947,-0.0273636206984519,-0.007057094015181
3.3181298828125136,0.0330444837287068,0.0012878478534519,0.0052817397952079,0.0062580313533544,-0.0233417339622974,-0.0058868927881121
3.328094970703134,0.0440150828152894,-0.0073180679284036,-0.0089139588177204,0.0046982178464531,-0.0203739069402217,-0.0057302983477711
3.3380590820312506,0.0442687287827953,-0.0691369568511843,0.0238759656280279,0.002048852853477,-0.019123151898384,-0.0054775872267782
3.348022949218759,0.0561669275756925,-0.1062187332719564,0.0439016855686903,0.0086617488414049,-0.0166426822543144,0.0002063973806798
3.3579880371093793,0.0498072928832843,-0.089954703952372,0.0334743995785713,0.0108470609411597,-0.0198982451111078,0.0014914306811988
3.36795214843751,0.0434489368325099,-0.0684044047929346,-0.00477437479496,0.0119442837312817,-0.0248839482665061,0.0030765442643314
3.377916992187508,0.0322277605183422,0.0113207276985049,-0.0114718266069889,0.0078252786770462,-0.022375039756298,0.0027886391617357
3.3878808593750023,0.0263778289137408,0.0950175402998924,0.0317108970373868,0.0043682288378477,-0.0112781822681427,0.0045316782779991
3.397844970703133,0.0306142609070986,0.0937168329648673,0.0274912335157394,0.0051410216838121,-0.0076630716212093,0.0033718477934598
3.4078100585937534,0.0345427594624459,0.0865228298075497,-0.0358896440267562,0.0081839486956596,-0.0131734181195497,0.007069646846503
3.417773925781262,0.0490703203782439,0.0117722708582878,-0.0947252793550491,0.0169259309768676,-0.0278345942497253,0.0076512973755598
3.427737792968756,0.0397444197587668,-0.0411738680399954,-0.0749275229513645,0.0214240085333585,-0.0346235260367393,0.0093003269284963
3.4377033691406353,0.0089456325976178,-0.0622621026456356,0.0113648591011762,0.0229589641094207,-0.0284726060926914,0.0118351262062788
3.4476672363281295,-0.0104902682237327,-0.0538802048780024,0.0649497342944145,0.0162765607237815,-0.0204314589500427,0.0120567008852958
3.4576315917968827,-0.004944543730095,-0.0069556643567979,0.0770458302795887,0.0084644658491015,-0.0095257777720689,0.0097197601571679
3.4675964355468807,-0.0045797290056943,0.0206987968966364,0.0671791007816791,0.007611989043653,-0.0092328302562236,0.0094840703532099
3.4775605468750115,0.0107972883462905,0.0231583188779652,0.017862988948822,0.0049950797110795,-0.011373920366168,0.0086110848933458
3.4875244140625057,0.0234730108503252,0.0067713938310742,-0.0202589441746473,0.0105821248143911,-0.0152181927114725,0.0043287216685712
3.497489501953126,0.0350112172244116,-0.0127414081513881,-0.0029483284115791,0.0121362404897809,-0.009874228388071,0.0049274116754531
3.5074533691406344,0.037434571913816,-0.0341455768384039,0.0145002345174551,0.0131128216162323,-0.0091426577419042,0.0018466669134795
3.5174182128906324,0.037879904528521,-0.016330810945481,0.0337520474761724,0.0093023478984832,-0.0060921041294932,0.0026090908795595
3.527382324218763,0.0301584434309974,0.0055982583984732,0.04224222792387,0.0086546670645475,-0.0056079421192407,0.0024538286961615
3.5373461914062574,0.029867534193024,0.0251519769132137,0.0455149659842252,0.0076822778210043,-0.0020148905459791,0.0017779604531824
3.5473115234375,0.029472105134651,0.0215051448434591,0.0279699569433927,0.0110767437145113,-0.0009299188386648,0.001277286093682
3.5572753906250085,0.0429728437533602,-0.0035588615253567,-0.0040571664363145,0.0175365190953016,-0.0044833570718765,0.002775837900117
3.567239501953125,0.0439926152551546,-0.0209305598258972,-0.0322971724927425,0.0216822605580091,-0.0064325248822569,0.0033215195871889
3.5772043457031373,0.0432266723839566,-0.0211002173043787,-0.0280021056473255,0.0256737079471349,-0.0103153390809893,0.0063303662464022
3.587168457031254,0.0451249072207137,-0.0170990188390016,0.0073187985807657,0.0296516735106706,-0.006958158686757,0.0072230580262839
3.5971323242187623,0.0248972349671646,-0.0215704651646316,0.0284644624620676,0.0255854055285453,-0.0049722967669367,0.0032591933850198
3.6070974121093826,0.0027992022644728,0.0003194412127137,0.0487970563948154,0.0169892534613609,0.001660838839598,0.0040829088538885
3.617061279296877,0.0036355069581419,0.0280909529745578,0.0787222390592098,0.0094293290749192,0.0038038762286305,0.0008176113478839
3.6270253906250076,0.0166901823097839,0.0188762576445937,0.0931020620673894,0.0032958034425973,0.0040092058479785,-0.002067391294986
3.636990478515628,0.0203651444954797,-0.0355884691230952,0.0932189664453268,-0.004535517655313,0.0082686217501759,-0.0033432892523705
3.6469545898437588,0.0195638745825737,-0.0586063566170632,0.0997042368113994,-0.0057669631205499,0.0114774648100137,-0.0021440680138766
3.6569194335937567,0.0177650815322995,-0.0209812670998275,0.1137444526016712,-0.0109933074563741,0.013996492139995,-0.0009776200167834
3.666883300781251,0.0248605927512049,0.0197634157426655,0.1099842232853174,-0.0224203988909721,0.0209721103310585,-0.0023683230392634
3.6768474121093817,0.036872444519028,0.0269132874973118,0.1164122105062007,-0.02804946154356,0.0261686015874147,-0.0008947714231908
3.686812500000002,0.0511931577511131,0.0609166793860495,0.0939595556795597,-0.0238991938531398,0.0260008219629526,0.0062755234539508
3.6967763671875105,0.0704187402900308,0.103021836926788,-0.0151432085961103,-0.0138072837144136,0.0078763822093606,0.0084845861420035
3.7067402343750047,0.1043721920898184,0.0731311410538852,-0.1239390988796949,5.10085374116e-05,-0.0100525515154004,0.0124993007630109
3.7167055664062616,0.0822295165278017,0.0330984058730304,-0.1003407811492681,0.0062689380720257,-0.0127343805506825,0.0156575571745634
3.726669433593756,0.045775516616553,0.0421799763426184,0.0089057755112648,0.0095555456355214,-0.0028593789320439,0.0135829541832208
3.7366335449218866,0.0008089417627081,0.0681393241159617,0.0809317318022251,0.0142024783417582,0.0099021960049867,0.0140785817056894
3.7465983886718845,-0.0371533072870224,0.0759765936128795,0.0807376705348491,0.0250202380120754,0.0138370161876082,0.0134024061262607
3.756562500000001,-0.0472324739592149,0.0522638557225465,0.0556663576424121,0.032046403735876,0.0159804727882146,0.0135914627462625
3.7665263671875095,-0.0197797823555767,0.0136604226924479,-0.0049006315231323,0.0413586795330047,0.0080024413764476,0.0140679012984037
3.7764912109375075,0.0149382240759208,-0.0020744681864976,-0.0680874477982521,0.0444266311824321,-0.0029793868307024,0.0134716276079416
3.7864553222656383,0.0335108956640586,-0.0071992638543248,-0.0507581273347139,0.0448210462927818,-0.0119398590177297,0.0096068494021892
3.796419433593755,0.0281654429828748,0.0046573242865502,0.0167845460623502,0.038993414491415,-0.0054286224767565,0.0057844216935336
3.8063845214843752,0.0152055332425981,0.0294654561981558,0.0706014764457941,0.0243505574762821,-0.0037649455480277,0.0042704148218035
3.8163483886718836,-0.0011230126805603,0.0283617327399551,0.0926630861282348,0.0126917017623782,-0.0010422780178487,-0.004634145181626
3.826313476562504,-0.0093969200290739,0.0128295248262584,0.1276607497513294,0.001153290271759,0.0095038395375013,-0.0061177923344075
3.8362775878906348,-0.0006429375460371,-0.0170310681693255,0.140697925978899,-0.0084022302180528,0.0182771664112806,-0.0086773494258522
3.846241455078129,-0.0018734657216817,-0.0441134286232292,0.0941805049538612,-0.0140979327261447,0.0205472446978092,-0.0073202028870582
3.856206298828127,0.0162456534126773,-0.0511209692977368,0.0335123935014009,-0.0167286563664674,0.0191329736262559,-0.0074927983805537
3.8661704101562577,0.0415295861424878,-0.0685259853459894,-0.0226642517507076,-0.0111778294667601,0.0110135292634367,-0.0034474562853574
3.876134277343752,0.0474992716692388,-0.0698616178639233,-0.0459995346307754,-0.0071205981075763,0.0095741730183362,0.0025292125064879
3.8860993652343865,0.0487585875479504,-0.0546409601174294,-0.0361877501904964,-0.0014983983710408,0.0036507698241621,0.0008258544839918
3.896063476562503,0.0394837960612028,-0.0487508791655302,-0.0275818344086408,0.0084490999579429,-0.0071628550067543,0.0056754890829324
3.906027587890634,0.0150876059513539,-0.0386197996430099,-0.0351537309676408,0.0040346439927816,-0.0048315236344933,0.0043585561215877
3.915992675781254,-0.0155974917022511,-0.0271317525535821,0.0407937826812267,0.0011508073657751,0.0083614345639944,0.0073018744587898
3.925956298828126,-0.0189521724250167,-0.0261111773341894,0.0802501792788505,-0.0027832146733999,0.0169059205800294,0.0083365123718976
3.935920410156257,-0.0216574127957224,-0.0499658079132437,0.0554179358392953,-0.0081357406452298,0.0154758691787719,0.0086422553285956
3.945885498046877,-0.0098936905700713,-0.0703019089773297,0.0194680860579013,-0.0078169601038098,0.0109628764912486,0.007769270800054
3.9558493652343856,-0.0081712872242555,-0.0672311232298612,0.0094119714677333,-0.0103157386183738,0.0034893872216343,0.0082673020660877
3.965814453125006,-0.0022137670593336,-0.0408073728151619,-0.0046130467534065,-0.0087684420868754,-0.0049672145396471,0.0036517772823572
3.9757785644531367,-0.0057329176288098,-0.0138576988302171,-0.022109540477395,-0.0160470940172672,-0.0100119886919856,-0.0005278154276311
3.9857426757812533,-0.0113414051603525,0.0109342125989496,0.0277308874905109,-0.0219862088561058,-0.010585100390017,-0.0067002233117818
3.995707275390629,-0.0266884657654911,0.0234079097248613,0.0830827723562717,-0.0298079084604978,-0.0014059743843972,-0.0079385973513126
4.00567138671876,-0.0376356839764863,0.0373220149174332,0.120303957247734,-0.0364969670772552,0.0093534626066684,-0.0129488017410039
4.015635498046876,-0.0245044727899134,0.0511883354455232,0.06240297242105,-0.0500931367278099,0.0053775114938616,-0.0214112475514411
4.025600585937511,-0.0002525865215808,0.041987814771384,-0.0047089083433151,-0.0547624565660953,0.0041178367100656,-0.0260283704847097
4.035564208984383,0.0078025635097175,0.0278523219130933,0.010800210955739,-0.054696936160326,0.0077229663729667,-0.0287067182362079
4.045528320312513,0.0232834430949762,0.0023164602488279,-0.0126636667400598,-0.047765526920557,0.0025282045826315,-0.0279301404953002
4.055493652343756,0.0443673668516799,-0.0240536602824926,-0.0719762719303369,-0.0433465242385864,-0.0042931903153657,-0.0298585444688797
4.065457763671887,0.0234616126734763,-0.0530494531422853,-0.0686304686337709,-0.0414836443960666,-0.0004023120272904,-0.0337472930550575
4.075421386718759,0.0104748149262741,-0.0578588992506265,-0.021385902377963,-0.038151916116476,0.0084590325132012,-0.0344778150320053
4.085386474609379,0.0180718459265306,-0.0528567070491611,-0.0108072252184152,-0.0327446311712265,0.0137475375086069,-0.0342908576130867
4.09535058593751,0.0356197775768116,-0.0295028655990958,-0.0723749158591032,-0.0185413360595703,-0.0024891996290534,-0.0292164403945207
4.105314453125004,0.053778534601815,0.0098757895871996,-0.1489583893239498,-0.0078740445896983,-0.0104706939309835,-0.0283458512276411
4.115279296875002,0.0559482433237135,0.0131536422140896,-0.1385626675158739,0.0076142121106386,-0.0164471492171287,-0.0327507369220256
4.125243408203133,0.0498036396214738,0.0262688521139323,-0.1123205572783947,0.0219140574336051,-0.0154492640867829,-0.0258595421910285
4.135208496093753,0.0526090158984065,0.0033553017772734,-0.0918342340886592,0.030495747923851,-0.0243598353117704,-0.0243894830346107
4.145172363281262,0.0475683913826942,-0.0396102719850838,-0.0540635986208915,0.0426328368484973,-0.0196183416992425,-0.0211353674530982
4.155136474609378,0.0236130403755232,-0.0503546611003577,0.0044184009641408,0.0499662160873413,-0.012550919316709,-0.0162607245147228
4.165101562500013,0.0183540238687768,-0.0031498423330485,0.0020762217521667,0.061423934996128,-0.013809529133141,-0.0119578531011939
4.175065673828129,0.0299928045405074,0.0468370083682239,-0.040823008775711,0.0674458369612693,-0.0234089363366365,-0.0119434520602226
4.185029296875001,0.0348863122031092,0.0421688704267144,-0.0677712214559316,0.0732110515236854,-0.0311789773404598,-0.0102081354707479
4.194994384765636,0.0457357325954362,0.0200075997620821,-0.0320773922622203,0.0737170651555061,-0.0319669879972934,-0.0051342896185815
4.204958496093752,0.0460826828695833,0.0418383232980966,0.0011135141998529,0.0795746892690658,-0.029151227325201,-0.0037379949353635
4.214922363281261,0.04170019346904,0.023007512230426,0.007221183425188,0.0791149362921714,-0.0385731384158134,-0.0033443770371377
4.224887207031259,0.0471964162651449,-0.0013458616510033,-0.0124836339980363,0.0719337239861488,-0.046818021684885,-0.0009691035374999
4.234851318359375,0.0292309167899191,-0.0373076941311359,0.0086123455226421,0.0584474951028823,-0.0520306006073951,0.0016418471932411
4.244815673828128,0.0206025699805468,-0.0729053694739937,0.0671358461618423,0.0438256710767746,-0.0475658103823661,0.0020429193973541
4.254780517578126,0.0179435799043625,-0.103510497226566,0.1319511404216289,0.0253334566950798,-0.0434051901102066,0.000952105037868
4.264744384765635,0.0170504304569214,-0.1419153389446437,0.1619675085008144,0.0088263843208551,-0.0392743609845638,0.0037415002007037
4.274708496093751,0.0169355353729799,-0.1710299358785152,0.1985293527007103,-0.013411970809102,-0.0270222872495651,0.0019574374891817
4.284673583984386,0.007605177774094,-0.1593205011233687,0.2135030499488115,-0.0303312987089157,-0.0180482342839241,0.0008266591466963
4.294637207031258,0.0138843311088159,-0.1197320025786757,0.1813356413155794,-0.0428684651851654,-0.0096676899120211,0.0047169947065413
4.304602294921878,0.0486445327142253,-0.0859495599642395,0.1247387248247861,-0.0453031286597251,-0.0097204204648733,0.0045023439452052
4.314566406250009,0.0630642493413761,-0.0784748401693999,0.026512743872404,-0.0437436625361442,-0.0111043658107519,0.0081748375669121
4.3245305175781255,0.0795370260408148,-0.0950308381728827,-0.0086450787484645,-0.0349344573915004,-0.0149531662464141,0.0116324201226234
4.334495361328138,0.0880876679714769,-0.0968695979073643,-0.027547932139039,-0.0225226804614067,-0.0157513096928596,0.0160437226295471
4.344459472656254,0.0666399158710613,-0.0685045041665434,-0.0402881712466478,-0.0056978948414325,-0.0257125981152057,0.0178946182131767
4.354423583984385,0.0320549612347036,-0.0494669184803962,-0.0115483989745378,0.0029147053137421,-0.0279878750443458,0.0173142962157726
4.364388427734383,-0.0002200359588488,-0.0729497931376099,0.0546820227801799,0.0091941719874739,-0.0179749224334955,0.0158783197402954
4.374352294921877,-0.0237992471300065,-0.0270097336091101,0.0539063622325658,0.0118152564391493,-0.0075688874348998,0.0110137900337576
4.384316406250008,-0.0231953994853422,0.0069157707378268,0.0181365451931953,0.0182164311408996,-0.0021916984114795,0.0064006624743342
4.394281494140628,-0.0299281418064609,-0.0015768939279019,-0.0361187766075134,0.0194981098175048,-0.0132914129644632,0.0027534700930118
4.4042451171875,-0.036788565627858,0.0091503979220986,-0.0957774187564849,0.0197662897408008,-0.0197338666766881,0.0001132125034928
4.414209228515631,-0.0618913696371018,0.0639610155180096,-0.0760480514138936,0.0157514810562133,-0.0293675009161233,-0.008051237091422
4.424174560546888,-0.0944146790359169,0.0937844913735985,-0.0240074830532073,0.0111892214044928,-0.0272252541035413,-0.0150468293577432
4.434138916015627,-0.1283753277614712,0.1196440320342779,0.0739794284462928,-0.003253161907196,-0.0180505402386188,-0.0241972021758556
4.444104003906261,-0.1352056487055495,0.1258161447979509,0.1331149235039949,-0.010904423892498,-0.0036598818842321,-0.0328841656446456
4.454067871093756,-0.1329417954267933,0.1429552033863961,0.1409177062094211,-0.0187612269073724,0.0013254206860437,-0.0425748527050018
4.464031982421886,-0.1006022085644304,0.1153730767168104,0.0767827954292297,-0.0258950367569923,0.0005499082617461,-0.0529888793826103
4.473996826171884,-0.0525716795627027,0.0685873601444065,0.0386187767297029,-0.0286474525928497,-0.0031730390619486,-0.0553775019943714
4.483960937500001,-0.0126832482233643,0.0439984239414334,0.009500234273076,-0.0299854278564453,-0.0059877336025238,-0.0631510019302368
4.493924804687509,-0.0020913827886804,0.0185559396490454,0.0067412909537553,-0.03974549472332,-0.012001359835267,-0.0691404342651367
4.50388989257813,-0.0212385663291439,0.0031872517339885,0.0548959577918052,-0.0491714850068092,-0.0070476145483553,-0.0709492564201355
4.5138540039062605,-0.0254168383944779,-0.0330721023879945,0.109572719874978,-0.0620076656341552,-0.0025506180245429,-0.0752846077084541
4.523817871093755,-0.0363030836658552,-0.0777826201215386,0.1338110890746116,-0.0755993723869323,0.0120741305872797,-0.0746939182281494
4.533782958984375,-0.0233161763207986,-0.099835461975634,0.1367442199170589,-0.0768353939056396,0.0235194750130176,-0.0678967535495758
4.543746826171883,0.0188961679214611,-0.0942570773214101,0.0361760597527027,-0.0711410269141197,0.018037624657154,-0.0608071535825729
4.5537109375,0.0666165349954739,-0.1030950482934713,-0.108093879494071,-0.0575607419013977,-0.0029296837747097,-0.0491110980510711
4.563675781250012,0.1015958957768976,-0.0837425514392554,-0.1463122587293386,-0.0452494844794273,-0.0086184628307819,-0.0455832108855247
4.573639892578129,0.1030769646475091,-0.0826646930746734,-0.1261100131779909,-0.0343804731965065,-0.0113889342173933,-0.0404041223227977
4.583603759765637,0.0862273539923131,-0.0449494410559535,-0.0804027394920587,-0.0275563914328813,-0.0103087555617094,-0.0363483950495719
4.59356909179688,0.0866400629790499,-0.0183652393825352,-0.032732641300559,-0.0187649093568325,-0.0014082535635679,-0.0329856388270854
4.603532958984388,0.0719760892672464,-0.0430025447718799,0.0055552960395812,-0.0101802097633481,0.0059244940057396,-0.0302793346345424
4.613497070312505,0.0847208949521183,-0.0771107122093439,0.0038707039535045,-0.0014796899631619,0.0040501272305846,-0.0247505959123373
4.623461914062503,0.0941226007541641,-0.091215517668426,-0.0351005394756794,0.0061553260311484,0.0059297857806086,-0.0241093076765537
4.633426025390634,0.0849199246555566,-0.0808401079960167,-0.0479506686985492,0.0191221814602613,0.0014314589789137,-0.021291734650731
4.643390869140632,0.0763496281763538,-0.0366650123134255,-0.0554378095835447,0.0237430296838283,-0.0029638218693435,-0.0197734665125608
4.653354736328126,0.0608026976175606,0.0073079849258065,-0.0278390240401029,0.0278977490961551,-0.0010450987610965,-0.0216885078698396
4.663318847656257,0.0393166228007525,0.0190837629154324,0.001126373681426,0.0190688334405422,0.0029421860817819,-0.0231298096477985
4.6732841796875135,0.0249833423480391,0.0267319395810365,0.0550888500154018,0.0110457250848412,0.0117349866777658,-0.0238885544240474
4.683248046875008,0.0021309841467067,0.0359193085126578,0.0854986013263463,0.0045545361936092,0.0167036466300487,-0.0289581473916769
4.693211914062502,0.0201310069460421,0.0106118487767875,0.0614268208652734,0.0008211880922317,0.0148005923256278,-0.0320204906165599
4.7031770019531365,0.0228938957881182,-0.0152140818752348,0.0266442612975835,0.000982841476798,0.0103970551863312,-0.0311325937509536
4.713140869140631,0.0240488745095208,-0.0178111126311123,0.01376373693645,-0.0003942213952541,0.0017746071098372,-0.031243946403265
4.7231049804687615,0.0214708772476762,-0.042579789315164,0.0256195944249629,-0.0036081243306398,0.0038761075120419,-0.0327526293694973
4.733069824218759,0.0194308227874338,-0.0372873819954693,0.0553565610408782,-0.0083097200840711,0.0022781512234359,-0.0347861871123313
4.743033935546876,0.0037152211308479,-0.02109305691123,0.0666658905625343,-0.0144224734976887,0.0070454757660627,-0.0348591580986976
4.752997802734384,-0.0120456444395706,-0.025375264275074,0.0822170954376459,-0.0162518396973609,0.0069311652332544,-0.0357651375234127
4.762962646484382,-0.0159754581691697,-0.0249713596493005,0.0811941821306943,-0.017741609364748,0.0118228597566485,-0.0365808643400669
4.772927001953136,-0.0278407045405358,-0.0059257367871701,0.0640016397893428,-0.0222027748823165,0.0169049818068742,-0.0359774380922317
4.782891113281252,-0.0194083917599171,0.0264481542035937,0.0353618207603693,-0.0193585194647312,0.0156053584069013,-0.0331243947148323
4.79285595703125,-0.0012586948242038,0.0376214362554252,-0.0026005378872156,-0.021799262613058,0.0129138249903917,-0.0320873335003852
4.8028198242187585,0.0104299894038587,0.0137616911098361,-0.0362736749082803,-0.015527251176536,0.0085185449570417,-0.0340330377221107
4.812784912109379,0.0150943644857034,-0.0040533670440316,-0.0623188012689352,-0.0159617010504007,-0.0026229640934616,-0.0298651922494173
4.82274902343751,0.0085001538524404,-0.0376522697851061,-0.0383206705659627,-0.0142120048403739,-0.0125538920983672,-0.0297307055443525
4.832712890625004,0.0011724413128569,-0.0679714202031493,0.0367319400697946,-0.0178631283342838,-0.0012933663092553,-0.0305472146719694
4.842677734375002,-0.025156251229532,-0.0762853673011064,0.0769224961608648,-0.0216759741306304,-0.0031330776400864,-0.0281128194183111
4.852641845703133,-0.037298378313519,-0.0564139611393213,0.0396153865516185,-0.0263116024434566,-5.07577788084e-05,-0.0299072917550802
4.862605957031263,-0.0265408374557271,-0.0443107047609984,0.0339233123898506,-0.0292954072356224,0.0039794039912521,-0.0305392574518919
4.872570800781261,-0.0195873285233974,-0.0390412399254739,0.0169867906361818,-0.023957310244441,0.0012234392343088,-0.0299219209700822
4.882534912109378,0.0071063248738646,-0.0038004151962697,-0.0519546436429023,-0.0195316672325134,-0.0058539109304547,-0.0319014489650726
4.892499023437509,0.0311771920194849,0.0175979082718491,-0.0900233852744102,-0.0143849151208996,-0.0171384140849113,-0.0319951996207237
4.902463867187507,0.0211513629697263,0.034550065986067,-0.052727381581068,-0.0109627535566687,-0.017328031361103,-0.0338234603404998
4.912427734375001,0.0081918550882488,0.0397743765056133,-0.0054565118402242,-0.0113983312621712,-0.022011524066329,-0.0380057021975517
4.922391845703132,-0.0241810129892081,0.0232629482962191,0.0111889180123805,-0.0143006443977355,-0.0218714419752359,-0.0426672995090484
4.932356933593752,-0.0301441957099363,0.0032445348791778,0.0479220271259546,-0.0146292075514793,-0.0188185013830661,-0.0475528612732887
4.9423208007812605,-0.0274807486543431,-0.0194344760492444,0.0773164639145135,-0.0148569075390696,-0.0112311569973826,-0.052267987281084
4.952284912109377,-0.0315447466902434,-0.0579376635752618,0.0613274521440267,-0.0125328861176967,-0.0069535393267869,-0.0565692335367202
4.962250000000012,-0.0260466241979971,-0.0721156804010272,0.0081622636675834,-0.0076164244674146,-0.006556462496519,-0.0596422553062438
4.972214111328128,-0.0199636144898831,-0.0542692041955888,-0.0589057779550552,0.0022937785834074,-0.0146699892356991,-0.0597277730703353
4.982178710937504,-0.010705262681283,-0.0250895792014896,-0.0844920546323061,0.0079370168969035,-0.0234424397349357,-0.061945654451847
4.9921428222656345,-0.0376410177387297,0.0038426469027996,-0.0404734646856784,0.0141600538045167,-0.0237507373094558,-0.0658415555953979
