time,ax,ay,az,gx,gy,gz
0.0,0.2070775286796502,0.0876211464382708,-0.0235983177304267,-0.0530889257788658,0.1314606368541717,0.3399509191513061
0.009964843750005059,0.1871676719373091,0.0683975366607308,-0.0943196211636066,-0.0405420176684856,0.1229212060570716,0.3492900431156158
0.01992895507812875,0.1880847502496093,0.0218963361181318,-0.1022416463345289,-0.0345938466489315,0.1165922060608863,0.3569338321685791
0.02989404296874909,0.178845395402424,0.0114187812454998,-0.0530056140005588,-0.0273819230496883,0.1174472942948341,0.3664815723896026
0.03985815429687989,0.1624409712314605,0.0323088629305362,-0.0264402631580829,-0.0250010564923286,0.1102290675044059,0.3766084909439087
0.04982275390624835,0.1340061732552945,0.0795727184087038,-0.0062198974281549,-0.0251532774418592,0.1083463355898857,0.3820719420909881
0.059787841796875796,0.1097910753333941,0.0936306159861385,-0.0019692542463541,-0.0230400599539279,0.1083087846636772,0.3877503275871277
0.06975195312499949,0.0918237126946449,0.0617471388608217,0.0193488435924053,-0.024717777967453,0.1053705066442489,0.3915638029575348
0.07971704101562693,0.0673425111824646,0.0496932745821774,0.0318330621123313,-0.0231414530426263,0.1022141277790069,0.3964033126831054
0.08968115234375063,0.0682005893165245,0.0339414325684309,0.00594926379323,-0.0200737863779068,0.0977986305952072,0.4042955636978149
0.0996457519531262,0.0621812559617683,0.022998159880191,-0.0106523269176483,-0.0241974256932735,0.0952012538909912,0.4046249985694885
0.10960986328124989,0.0596923617554828,0.0390628672353923,-0.0146323364645242,-0.0358833819627761,0.0946540087461471,0.4057124257087707
0.11957495117187733,0.0634678982388228,0.0728182757124304,0.018021394380927,-0.0397484302520751,0.0973105132579803,0.4051986932754516
0.12953906249999392,0.0514986435037106,0.07246463996917,0.0532388382345438,-0.0380400419235229,0.0959235578775405,0.4003714323043823
0.13950390624999898,0.0288237972937524,0.0589499093577265,0.1272264499872923,-0.0392888002097606,0.1079149693250656,0.3924474418163299
0.14946801757812977,0.045357181606628,0.0180639183484017,0.1557078635841608,-0.0408626645803451,0.1190115287899971,0.3890367746353149
0.1594331054687501,0.0783201245317235,-0.0490510311558842,0.1390033970206975,-0.0431359373033046,0.1265384256839752,0.3842436075210571
0.16939697265625853,0.0990957495242357,-0.1030323583208024,0.0852092629909515,-0.0467819981276989,0.1320920586585998,0.3853298425674438
0.17936206054687887,0.1084417430836707,-0.152414813388139,0.0412029480040073,-0.0506981760263443,0.131933331489563,0.3882095217704773
0.18932592773438017,0.0996765816194936,-0.1632698232710361,0.0099134912490844,-0.0493740104138851,0.1300435066223144,0.3967052698135376
0.19929077148437813,0.0758581913975998,-0.1506973419457674,-0.0532242251873016,-0.048508483916521,0.1268346607685089,0.4083574116230011
0.20925488281250182,0.0604089125270023,-0.1228761458232998,-0.0770072518348693,-0.0497254244983196,0.1177328526973724,0.4248737096786499
0.21922021484375165,0.0717041404580697,-0.152155577930063,-0.081409286186099,-0.0533699579536914,0.1178740039467811,0.4432343542575836
0.22918408203126006,0.0812711563570424,-0.1860131316073238,-0.0760807846397161,-0.051751933991909,0.1166042238473892,0.4592931568622589
0.23914892578125801,0.07915551590994,-0.1698966940648853,-0.0672889908969402,-0.0525104030966758,0.1100059747695922,0.4736638367176056
0.2491130371093746,0.0626956717573106,-0.117102676988393,-0.054693128696084,-0.0557298026978969,0.1051526516675949,0.4833179116249084
0.25907788085937966,0.0439433327533304,-0.071063102608174,-0.0399567473351955,-0.0582438260316848,0.1046605035662651,0.4875129163265228
0.26904174804687386,0.0057595133747905,-0.0187457631327211,-0.0221206463932991,-0.0546698160469532,0.1117506399750709,0.4883747696876526
0.2790068359374942,-0.0176842713810503,0.0158738609582185,-0.0441395859777927,-0.052925981581211,0.1163057088851928,0.485057532787323
0.2889711914062545,-0.0564782950798049,0.0314041691757738,-0.0445960975736379,-0.0402407199144363,0.1220224425196647,0.4798418283462524
0.29893603515625955,-0.0792746487775817,7.87643246352e-05,-0.0445002359837293,-0.0254796184599399,0.125003308057785,0.475837230682373
0.30889990234375375,-0.0955526335572823,-0.0303244111150503,-0.0805073689103126,-0.0054031917825341,0.1210469007492065,0.4675086140632629
0.3188649902343741,-0.1063890483375638,-0.034814854402095,-0.1091343284577131,0.0119768632575869,0.1182290092110633,0.4550889730453491
0.3288288574218754,-0.1346832322666421,0.0055769233494997,-0.1017290206372737,0.0245357155799865,0.1130487844347953,0.4391486644744873
0.33879394531250284,-0.1405743361318484,0.0891242444775998,-0.0835942290097475,0.028115801513195,0.1185308992862701,0.4252408444881439
0.3487590332031303,-0.1521574776262045,0.1948734605416655,-0.0657967065125703,0.0297200549393892,0.1211147606372833,0.4035321176052093
0.3587229003906245,-0.1379142500771209,0.2489639471694827,-0.0348585474133491,0.0302313808351755,0.1268674582242965,0.388579785823822
0.36868798828125904,-0.1173494913563132,0.2152750280573964,-0.0276741888672113,0.0345632806420326,0.1264991462230682,0.3710511326789856
0.3786520996093756,-0.1210420987965539,0.1546142231285572,-0.0839537099719047,0.0327408760786056,0.1168899163603782,0.3587734401226043
0.3886169433593736,-0.088590575992316,0.083610011100769,-0.1032885250389576,0.0268918499350547,0.1073413118720054,0.3466413617134094
0.3985808105468749,-0.0688094053972512,-0.0178596279479563,-0.0541460162073373,0.0264692045748233,0.1048840135335922,0.3381637334823608
0.40854589843750233,-0.0692258407110348,-0.0882968537427485,0.000246083715558,0.0250574424862861,0.1086893826723098,0.3308280110359192
0.41850976562500364,-0.0851988146621733,-0.1230132162064313,0.0116389998674392,0.0170013792812824,0.1098475903272628,0.325423389673233
0.428474853515624,-0.0987622432535514,-0.1445873346328735,0.0434206240534782,0.0196865946054458,0.1048875823616981,0.3296080827713012
0.4384387207031253,-0.0886231996202841,-0.1274700494848191,0.0320662863463163,0.0234062317758798,0.1063597798347473,0.3352601230144501
0.44840380859375273,-0.078729582115449,-0.0865241449818015,-0.0228770177185535,0.0266738310456275,0.0925655364990234,0.3424341678619385
0.4583679199218764,-0.07276892014537,-0.0769914697438478,-0.06680442225039,0.031901616603136,0.082469493150711,0.3532181084156036
0.46833300781250387,-0.066264104828611,-0.0469631189659237,-0.062149289920926,0.035914409905672,0.0725459828972816,0.3568492531776428
0.4782968750000052,-0.0683011636141687,0.0183057642802596,-0.0671340925961732,0.0349964201450347,0.0684633553028106,0.3546337485313415
0.4882617187500031,-0.0788846265466883,0.0465982311762869,-0.0326198285758495,0.0263574160635471,0.0697507858276367,0.3542748391628265
0.4982258300781268,-0.0893207899630069,0.043744595310837,0.0466413396656513,0.0197868645191192,0.0797783881425857,0.3491381406784057
0.5081909179687543,-0.0895432005420327,0.0401969858318567,0.0800391668766736,0.0167289301753044,0.0854850262403488,0.3444554209709167
0.518155029296878,-0.1136441340323537,0.0273524095669388,0.0412310050547122,0.010106979869306,0.0840051099658012,0.3393924832344055
0.5281198730468759,-0.1268178326537832,0.0300622530475258,0.0009282207608222,0.0071918424218893,0.0774935483932495,0.3279050588607788
0.5380839843749996,-0.136057698957622,0.0178416538998484,-0.0137117144882678,0.0070347161963582,0.071308359503746,0.3218588829040527
0.5480488281250047,-0.1418961958527564,0.0088851711146533,-0.0123918640613555,0.0109579283744096,0.068569079041481,0.3131350576877594
0.5580129394531284,-0.1451196148786693,0.0423695075653493,-0.0137093764007091,0.0030928142368793,0.0630278438329696,0.2977563738822937
0.5679777832031263,-0.1651072678312659,0.1074890454687178,0.0194330147445201,-0.0012176530435681,0.062270637601614,0.2815809249877929
0.5779428710937538,-0.170480193041265,0.1318504565261304,0.067030047699809,-0.0082531915977597,0.06583022326231,0.2621185183525085
0.5879069824218774,-0.1702568691467866,0.0973918682157993,0.0857031839877367,-0.013755215331912,0.0694120898842811,0.2432548105716705
0.5978718261718754,-0.1614586456632241,0.0787812757700681,0.0563578470379114,-0.0111051043495535,0.0703977271914482,0.2234978824853897
0.6078356933593767,-0.1442132406234741,0.0725581634715199,0.0244178174197673,-0.0094840694218873,0.0689135640859603,0.2065058350563049
0.6178007812500041,-0.1129457399720326,0.046376112858206,-0.0187964704066514,-0.0030298987403512,0.0661942139267921,0.1927159875631332
0.6277648925781278,-0.086435261121951,0.0199972244985401,-0.0527168601870536,0.0008766241371631,0.06303471326828,0.173547089099884
0.6377297363281258,-0.0832817289944738,0.0156786306470632,-0.038965398210287,0.0029288558289408,0.0640328675508499,0.1627237349748611
0.647694091796879,-0.0626032442335039,-0.0392279946692287,-0.0298942030042409,0.0142794493585824,0.0667015090584755,0.1510597169399261
0.6576589355468769,-0.0425404071528464,-0.0957479004010558,-0.0314870251536369,0.0241946652531623,0.0630777403712272,0.1437133848667144
0.6676228027343782,-0.0219856949020177,-0.1481637318149209,-0.0532996285110712,0.0338948667049407,0.0558613575994968,0.1436245739459991
0.6775878906249986,-0.0017835224159061,-0.2004445386722683,-0.0715063163310289,0.0391298420727252,0.0454553216695785,0.1396974772214889
0.6875520019531294,-0.0168765351947396,-0.2084925283104181,-0.0549549945026636,0.045182142406702,0.0431021526455879,0.1354444175958633
0.697516601562505,-0.0451097096515819,-0.1407693837799132,-0.0614028554677963,0.0481888502836227,0.0381175130605697,0.1330702006816864
0.7074807128906286,-0.0770818149084225,-0.0474434498287737,-0.0510977345526218,0.0591168887913227,0.032120257616043,0.1299728751182556
0.7174460449218785,-0.1074010018590837,0.0138809335753321,-0.0419464598476886,0.0627246797084808,0.0307085160166025,0.1306799501180648
0.7274101562500022,-0.1189377834610641,0.031193156773597,-0.0255786778926849,0.0687250047922134,0.0356631241738796,0.1262186467647552
0.7373747558593777,-0.1144865762058645,-0.0023337036445736,-0.0351186596542596,0.0747655779123306,0.0383238866925239,0.1220446676015853
0.7473388671875014,-0.0985360332822427,-0.0271736919991672,-0.0663514177858829,0.0793697386980056,0.027009392157197,0.1150139644742012
0.7573037109374994,-0.1022332803649827,-0.0274131998434662,-0.0550824202746152,0.0813940167427063,0.0264346823096275,0.1084551364183425
0.7672678222656302,-0.1298896047819405,-0.0271500188626348,-0.0063186816275119,0.0818165391683578,0.0281004346907138,0.1006268858909607
0.7772329101562505,-0.1580275021707639,-0.0194325763531029,0.0347983416587114,0.0845811665058136,0.0258055888116359,0.0897779688239097
0.7871967773437518,-0.1992323133382946,0.0117461135037243,0.0832803407549858,0.0903287082910537,0.0280711576342582,0.0769129544496536
0.7971618652343793,-0.2009260385788977,0.0508088346086442,0.0588835661232471,0.0942230522632598,0.0253803003579378,0.070990078151226
0.807125976562503,-0.1767062279492616,0.1154997718364,-0.0049158290922641,0.0985677689313888,0.0193600989878177,0.0564003735780715
0.8170910644531233,-0.1542179903525859,0.1712440170206129,-0.0381833079218864,0.0956526696681976,0.0121240252628922,0.0448270738124847
0.8270546875000022,-0.1270362611774355,0.1687950164332985,-0.0121551326960325,0.0936192423105239,0.0035986874718219,0.0292730405926704
0.8370197753906297,-0.1224651904022321,0.1355586633943021,-0.0138116677314043,0.0876393839716911,-0.0027034170925617,0.0131729012355208
0.84698486328125,-0.1475749356089159,0.1171183129489421,0.0071241527915,0.0704594179987907,-0.0079519059509038,-0.0062861409969627
0.8569489746093737,-0.1819508871370926,0.1451679109998047,0.0694680885016918,0.0525576509535312,-0.0064685246907174,-0.0223841499537229
0.866914062499994,-0.2011893291575834,0.1138007128335535,0.1110059675484895,0.0294440761208534,-0.0002798710484057,-0.0354088693857193
0.8768779296875024,-0.2008196190623566,0.0558677254334092,0.1563484995752573,0.0109116705134511,0.002086081309244,-0.0493206903338432
0.8868427734374933,-0.2017382317446172,0.0013275953419506,0.1398760882019996,0.0018894700333476,0.0029638239648193,-0.0562667213380336
0.8968068847656241,-0.1721536426788195,-0.0119952659592032,0.0676747753441333,-0.0075839268974959,0.0017883045366033,-0.0633981376886367
0.9067719726562586,-0.1497228343578055,-0.028117694851011,0.0399181688904762,-0.0077593685127794,-0.006019321270287,-0.0651523321866989
0.9167355957031234,-0.1166935481982305,-0.0327757497899234,0.0061351417541503,-0.008190001361072,-0.0078172208741307,-0.068813644349575
0.9267009277343803,-0.0896979892449453,-0.0176611827664077,-0.0406026440232992,-0.0078230090439319,-0.0216643679887056,-0.0759901031851768
0.936665039062504,-0.0758177863219752,0.029747634140402,-0.0477554383873939,-0.0124166952446103,-0.0245413798838853,-0.0743306875228881
0.9466298828125019,-0.0693659798340871,0.0313056772373616,0.0164864398986101,-0.0047110486775636,-0.023821098729968,-0.0750761702656745
0.9565937500000032,-0.0789493623459711,-0.0114383627288043,0.0352712198674678,-0.0025935694575309,-0.0246855597943067,-0.0751893520355224
0.9665588378906236,-0.0810685829896479,-0.061418345297873,-0.0181043964892625,-0.0016176621429622,-0.0333332233130931,-0.0757989287376403
0.9765229492187544,-0.0706983974816277,-0.0799262080214917,-0.0430979679703712,0.0009094113484025,-0.0433791987597942,-0.0792383998632431
0.9864880371093747,-0.0929505978327244,-0.0500828584216535,-0.0286386499851942,0.0060032550245523,-0.0500631742179393,-0.085123673081398
0.996451904296876,-0.1189784442650154,0.0177094058223068,0.0150870944947004,0.0090784057974815,-0.045145645737648,-0.0933696180582046
1.006416748046874,-0.1416826261673122,0.0916048092469573,0.0222533328622579,0.0074782669544219,-0.0429884195327758,-0.0992398113012313
1.0163808593750048,-0.1554308732736855,0.1208947627477347,0.0030336686074733,0.0040675560012459,-0.0435173213481903,-0.1077115908265113
1.0263459472656251,-0.1290428882921114,0.1018045700915157,-0.011564765587449,0.0029071336612105,-0.0517128109931945,-0.119027592241764
1.0363098144531264,-0.138745367139019,0.0830167213827371,0.0150029233425855,-0.0033592847175896,-0.0570111721754074,-0.1310014128684997
1.0462746582031244,-0.1500815116023644,0.0468187420591712,0.0675754066228866,-0.0049134762957692,-0.0571344979107379,-0.1412931829690933
1.0562387695312552,-0.1541112055098638,-0.003140636113286,0.0833949070453643,-0.0083172628656029,-0.0566841550171375,-0.1607846021652221
1.066204101562505,-0.1675843620019033,-0.0070784139536321,0.0813034877240657,-0.0123274661600589,-0.0587904714047908,-0.1786800324916839
1.0761677246093768,-0.1773592850305139,0.0104836923524737,0.0540437248766422,-0.017312902957201,-0.0662404000759124,-0.1929194182157516
1.0861328125000043,-0.1662715258376672,0.049015959842503,0.0661708005219697,-0.0257381349802017,-0.067294180393219,-0.2135280668735504
1.096096923828128,-0.1491018529152497,0.1114393905296921,0.0415542456597089,-0.0324261300265789,-0.0694177895784378,-0.2302979826927185
1.106061767578126,-0.1308888449523597,0.1322489543244242,-0.0048866029977798,-0.041186012327671,-0.0705035924911499,-0.2476745396852493
1.1160256347656272,-0.1177559897979721,0.142391285893321,-0.0068850833386182,-0.0459967479109764,-0.0681392326951026,-0.2617895603179931
1.125990966796877,-0.0892888969874009,0.1014265305593609,-0.0049988312005996,-0.0434328243136405,-0.0716251358389854,-0.2756912410259247
1.1359550781250007,-0.0796755942612886,0.0862795225709676,-0.0189396782696247,-0.0339583605527877,-0.0617235116660594,-0.2821544706821441
1.1459199218749987,-0.0610845102336257,0.0814421655423939,-0.062255672904849,-0.0180218797177076,-0.0670922845602035,-0.2860629260540008
1.1558840332031295,-0.0324715061463415,0.0474755985327065,-0.1085445458710193,-0.0066579049453139,-0.0733062401413917,-0.2886517941951751
1.165848632812505,-0.0067031874330714,0.0021541092939674,-0.1152343988984823,0.0019111949950456,-0.0805602893233299,-0.2927751839160919
1.1758127441406288,-0.0369525605505332,0.0035540392197668,-0.0992202526867389,0.0127883432433009,-0.0865169838070869,-0.2939323484897613
1.185777832031249,-0.0383835432017222,0.0065242872022092,-0.0629237814247608,0.011690723709762,-0.094001717865467,-0.2935494482517242
1.1957419433593799,-0.0492163047201931,-0.0032258301787078,-0.0193950208216905,0.0101695274934172,-0.0961207896471023,-0.2985234260559082
1.2057067871093778,-0.0726423711562529,-0.0185642690859735,0.0331961671590805,0.0063666813075542,-0.0933712050318718,-0.3005442023277282
1.2156708984375015,-0.0820339939557015,-0.004570961177349,0.0592032995969057,0.0037336144596338,-0.0876627191901207,-0.3028504848480224
1.225635986328129,-0.0744909946976229,0.0073906947731971,0.0516524458259344,0.0042179450392723,-0.083190381526947,-0.3064417839050293
1.2355998535156303,-0.0515912171579897,0.0603749737247824,0.0049181671798229,0.0035942327231168,-0.0856338292360305,-0.3079211413860321
1.2455649414062506,-0.0237356073092669,0.0885898453399539,-0.049344168883562,0.006131955422461,-0.0870013907551765,-0.309061586856842
1.255528808593752,-0.0149748662918806,0.0835892605736851,-0.06479015981853,0.0121435094624757,-0.0939320027828216,-0.308874636888504
1.2654938964843794,-0.0274471021130681,0.0848049199737608,-0.0626344430893659,0.0152043057605624,-0.0942036658525466,-0.3130736052989959
1.275458007812503,-0.0662189139800146,0.0597726239174604,-0.0549684385061264,0.0149182816967368,-0.0904624536633491,-0.3151356875896454
1.2854230957031234,-0.0778587906302884,0.028100013063848,-0.0340887320846319,0.0106769558042287,-0.0925453603267669,-0.3165192306041717
1.2953869628906247,-0.1071981727633625,0.045984483192116,0.0249824655652046,0.0082928948104381,-0.091506190598011,-0.3207555115222931
1.3053518066406298,-0.1257728901781141,0.112053138513863,0.0616617986649274,0.0059274015948176,-0.0876791477203369,-0.3202628493309021
1.3153159179687535,-0.1180069323517382,0.0887954509146511,0.0340858094751834,0.00019121915102,-0.0816553458571434,-0.3256781101226806
1.3252807617187514,-0.0972486603528261,0.0575489565186202,-0.0135936410665512,-0.0036345771513879,-0.0789579600095748,-0.3270169198513031
1.3352446289062598,-0.0736440590120851,0.0517370553694665,-0.0380541285842657,-0.0040252627804875,-0.0901264548301696,-0.3258632123470306
1.3452099609375026,-0.0533260050613433,0.0300439867384731,-0.0910129808336496,-0.0042990883812308,-0.1004953831434249,-0.3221594989299774
1.3551740722656263,-0.0596612724974751,-0.0061962242916226,-0.0700911888360977,-0.011317316442728,-0.1063175797462463,-0.323909193277359
1.3651389160156242,-0.0668052625006064,-0.0430903691858053,0.0151128134578466,-0.0120591968297958,-0.1022031083703041,-0.3249183297157287
1.3751027832031255,-0.0771126849707216,-0.0597583031311631,0.0905173062711954,-0.0176931135356426,-0.0919645875692367,-0.3272267580032348
1.385067871093753,-0.0768604272427037,-0.0590551232978701,0.1166138705581426,-0.0232002772390842,-0.0824698954820633,-0.325251817703247
1.3950317382812543,-0.0531323821853846,-0.0078274787552654,0.0842611684858798,-0.0242785923182964,-0.0813167467713356,-0.3273778259754181
1.404997070312504,-0.0072708312531933,0.0456035210505127,0.0237006090611219,-0.0311831422150135,-0.079833023250103,-0.3276437819004059
1.4149609374999983,0.026523484462127,0.0678399027779698,-0.0237462017685174,-0.0321381539106369,-0.0857210084795951,-0.3318102955818176
1.4249257812500034,0.0353701867299154,0.0724950351074338,-0.0478214893609285,-0.0304799433797597,-0.0886919051408767,-0.3380700945854187
1.434889892578127,0.0447163629524409,0.0714025636956095,-0.0566126985818147,-0.0341820046305656,-0.0932411178946495,-0.345070481300354
1.4448549804687545,0.0403325218450278,0.0417041755244135,-0.0509808301746845,-0.0375732295215129,-0.1007669419050216,-0.3532801568508148
1.4548186035156263,-0.0081490023272112,0.0527373184531927,-0.0137532155424356,-0.0370560437440872,-0.094938613474369,-0.3534082472324371
1.4647836914062538,-0.0168037987520918,0.0658650955736637,0.0234434194296598,-0.0350235626101493,-0.0857216864824295,-0.3555569350719452
1.4747478027343774,0.013681611610949,0.0713411888971924,0.0035755203992128,-0.0326368361711502,-0.0870484709739685,-0.3571079671382904
1.4847128906250049,0.0466975633649155,0.0446285385385155,-0.0176502229809761,-0.0293436236679554,-0.0931291729211807,-0.3599212765693664
1.4946770019531286,0.0647823418382555,0.0324805662356317,-0.0247848971664905,-0.023850854486227,-0.0921408757567405,-0.3627452850341797
1.5046418457031265,0.0797112135639414,0.0116357849970459,-0.025474048474431,-0.018156312406063,-0.0917541161179542,-0.3672165274620056
1.5146059570312502,0.1003456399874761,-0.0181890060327947,-0.0167266783952713,-0.0133045660331845,-0.0923770293593406,-0.363637775182724
1.5245708007812553,0.1127213931642472,-0.0161949096061289,-0.0066483519732952,-0.0040043015033006,-0.0911780297756195,-0.3651019334793091
1.534534912109379,0.1254415027992799,-0.0014129355378448,-0.0101981534093618,0.002168639563024,-0.0876333639025688,-0.3598408699035644
1.544499755859377,0.1439572931010276,-0.0088407474510371,0.0093126027464866,0.0059242649003863,-0.0858810767531395,-0.3567854762077331
1.5544638671874935,0.1491679404214024,-0.0095107556670904,0.0073848495543003,0.0065618259832262,-0.0849982425570488,-0.3510290682315826
1.564428955078128,0.1766302766362205,-0.0312603767909109,-0.0202396549522876,0.0035887109115719,-0.0898049548268318,-0.3428682088851928
1.5743930664062589,0.1748489096447825,-0.0249910872630774,0.0011129296779632,0.0016187708824872,-0.0894978865981102,-0.3352270722389221
1.5843576660156273,0.1311066158888861,0.0018894670084118,0.0423632239550352,-0.0002723634243011,-0.0815596058964729,-0.3281677365303039
1.594321777343751,0.1045143770394846,-0.0371456354372203,0.0598538724601268,-0.000777032226324,-0.0756258144974708,-0.3154921531677246
1.6042868652343785,0.0930938422283157,-0.082932111839205,0.0390735347598791,-0.0026880661025643,-0.0727147236466407,-0.3026268780231476
1.6142507324218798,0.074868084381707,-0.0966179612338542,0.0009597849428653,-0.001953300088644,-0.0759533941745758,-0.2887254357337951
1.6242160644531296,0.0607201704332604,-0.1084095213145017,-0.0212912098318338,-0.0062438137829303,-0.077722392976284,-0.2811959087848663
1.6341799316406238,0.0156887501822784,-0.0573297608099877,-0.0040045594662427,-0.0141635220497846,-0.0756720229983329,-0.2722280025482178
1.6441447753906289,-0.0111501203719526,-0.0150813954062759,0.0734767396211624,-0.0259580761194229,-0.068848006427288,-0.2695065438747406
1.6541088867187526,-0.0207344892645254,0.009825666835159,0.1166740763127803,-0.0427088253200054,-0.0581839084625244,-0.2649101912975311
1.66407397460938,-0.0106635058987885,0.0115555593676865,0.113465051138401,-0.0553074367344379,-0.0544796697795391,-0.2610514461994171
1.6740378417968742,-0.0211240731040015,0.0032198388293385,0.0670090049117803,-0.0551841333508491,-0.0584440492093563,-0.2586447596549988
1.6840026855468793,-0.0028868074826896,0.0083167235769331,0.0180406836032867,-0.0578695721924304,-0.0687958970665931,-0.2617551386356354
1.6939670410156253,-0.0154121617306023,0.0183285606339573,0.0066892685055732,-0.0706221237778663,-0.0764175951480865,-0.2577574551105499
1.7039318847656233,0.01478127994854,0.0192528358720242,0.0790583391457796,-0.0798415169119834,-0.0665949657559394,-0.2646131813526153
1.7138957519531246,0.0058710839904844,0.0244102186352014,0.1497387260466814,-0.0853111147880554,-0.0561231523752212,-0.2774749100208282
1.723860839843752,-0.0074857161128893,0.0221827518440783,0.1569137322425842,-0.089547075331211,-0.0457699634134769,-0.2896661758422851
1.7338249511718757,-8.50114023312e-05,0.0172303901337087,0.1225865152269601,-0.0963799431920051,-0.0406702756881713,-0.3035939633846283
1.7437890624999994,-0.0003162263423204,0.0212286659896373,0.1011222869157791,-0.092577263712883,-0.0285410769283771,-0.313507467508316
1.753753662109375,0.010720862109214,0.0112320265017449,0.0279763866841793,-0.0838825702667236,-0.0239926632493734,-0.3189243376255035
1.7637177734374987,0.0409971597662195,0.0090634502910077,-0.0791290662944316,-0.0690419375896453,-0.0277753714472055,-0.3213375508785248
1.7736828613281261,0.0720742524120956,0.0024472470216453,-0.1995452517449855,-0.0503976792097091,-0.038072220981121,-0.3218304812908172
1.7836469726562498,0.0939431525340303,0.0231093651697039,-0.2684001767843961,-0.033068411052227,-0.0520403087139129,-0.3180781006813049
1.7936118164062549,0.0822169127745553,0.0525258676595985,-0.2595674665093422,-0.0157171189785003,-0.0585514716804027,-0.3141810894012451
1.8035759277343786,0.1029628002159297,0.0652606999397277,-0.2071826147556305,-0.0060609150677919,-0.0633359476923942,-0.3090254366397857
1.8135407714843765,0.0926528569951653,0.0788430889599025,-0.1608458109945058,0.0062772436067461,-0.0595236346125602,-0.3066387176513672
1.8235048828125002,0.1024084908014163,0.0579747807152569,-0.1008545758903026,0.0146036185324192,-0.0557369068264961,-0.2989204227924347
1.83347021484375,0.1417495173910632,-0.0279345933690667,-0.0435018725961446,0.0303937681019306,-0.0564333237707614,-0.2888414263725281
1.843433837890629,0.1696351570518687,-0.1096883090786635,-0.0243932675004005,0.0511924661695957,-0.0584511160850524,-0.2802055180072784
1.8533989257812493,0.1846649684013798,-0.1865656509235501,-0.0310451266050338,0.0645538046956062,-0.0648988932371139,-0.2667642831802368
1.8633630371093801,0.1858311991691589,-0.244622556964308,-0.0302039996057748,0.0775853618979454,-0.0721500813961029,-0.2552067637443542
1.873327880859378,0.1908376656869426,-0.2004327021040022,-0.0214630592674016,0.0841300785541534,-0.0789123773574829,-0.2470425516366958
1.8832917480468794,0.1767877687528729,-0.1095453934766352,0.0182885208845138,0.0875721201300621,-0.0852915942668914,-0.2373430132865905
1.8932568359374997,0.1322971043150872,-0.0050489539526402,0.0942412952303886,0.0855763480067253,-0.0836622714996337,-0.2348636090755462
1.9032209472656234,0.0927830957787111,0.073403820515424,0.1627034215599298,0.0745603069663047,-0.0741802304983139,-0.2369619458913803
1.9131860351562509,0.0705195337833836,0.1252392216928303,0.1712549768060445,0.0584995858371257,-0.0627526119351387,-0.2415170073509216
1.9231499023437522,0.0744316291932016,0.1284426939092576,0.1667827998280525,0.0439674407243728,-0.0537214875221252,-0.2422200739383697
1.9331147460937501,0.0767737718725577,0.0959244260117411,0.1592868911147117,0.0320103764533996,-0.0508290268480777,-0.2465330511331558
1.9430788574218738,0.0586978708254173,0.0524513411186635,0.1151420444399118,0.025211464613676,-0.0507226251065731,-0.2509000897407532
1.9530439453125084,0.0502385604400187,0.0064237494371831,0.0756365480035543,0.0207927487790584,-0.0573688074946403,-0.2485764771699905
1.9630078125000026,0.0363946709394454,-0.0268082196876406,0.0989373440921306,0.0176979638636112,-0.0592663884162902,-0.2468893826007843
1.97297290039063,0.0333676512684673,-0.0327633286997675,0.1513502528965473,0.0096368407830595,-0.0533240772783756,-0.2461887001991272
1.9829370117187537,0.0424158674577251,-0.0478767266795039,0.1396101307421922,-0.002683613449335,-0.0475712083280086,-0.2391203343868255
1.992902099609374,0.0607946969741955,-0.0584071807831525,0.1054395655930042,-0.0177933238446712,-0.0491323545575141,-0.2346299737691879
2.00286572265626,0.094079601862654,-0.0488324199691414,0.1010550668984651,-0.0296062789857387,-0.0513188950717449,-0.2296601086854934
2.0128298339843766,0.1158239257568493,-0.0531672343030571,0.0827940185427665,-0.0388676896691322,-0.0540694072842597,-0.2216663658618927
2.022794921875004,0.1424102828547358,-0.1105982635304331,0.0789911191284656,-0.047676533460617,-0.0574474558234214,-0.2114491462707519
2.032759033203128,0.1491886909484863,-0.1673820808954536,0.0847673644423484,-0.0516305267810821,-0.0502073876559734,-0.2055712938308715
2.0427236328125034,0.1311858186049386,-0.206634187092632,0.1019260045140981,-0.054746389389038,-0.0443255566060543,-0.1934986263513565
2.052687744140627,0.1221781170891597,-0.2119561127677559,0.0843622907727956,-0.0520323663949966,-0.0368468686938285,-0.1801332980394363
2.0626528320312545,0.1386595885517075,-0.2261212701119482,0.0278168122082948,-0.0493919178843498,-0.0369661003351211,-0.1753398478031158
2.072616943359378,0.1274380469113588,-0.217026109508425,-0.0060205754637718,-0.0353892818093299,-0.0324994437396526,-0.1654075980186462
2.0825820312499985,0.1161494313841685,-0.2073172009207308,-0.0391226345986127,-0.0179453864693641,-0.0310330297797918,-0.1562564373016357
2.0925458984375,0.1211364625491201,-0.2055399621151387,-0.1352735628426075,-0.003086544573307,-0.0349611900746822,-0.1471359133720398
2.102510742187505,0.0971101651975885,-0.1598892409220337,-0.1864654054194688,0.0192958414554595,-0.0394815169274807,-0.1407492160797119
2.1124748535156286,0.0904412453602999,-0.1178532030947506,-0.2079278801649808,0.0408216379582881,-0.0454834811389446,-0.1333594769239425
2.1224401855468784,0.0765186280677095,-0.0782775640316307,-0.1894037969589233,0.0516378208994865,-0.052001304924488,-0.1274074912071228
2.1324038085937502,0.0588103182239457,-0.0947594738855957,-0.1100210481643676,0.0587995946407318,-0.0541640594601631,-0.1247171834111213
2.1423688964843777,0.0458374759368598,-0.1023996133752167,-0.059653965973854,0.063571996986866,-0.0555765926837921,-0.1237802058458328
2.1523330078125014,0.0493880810905247,-0.0827118932172656,-0.0207101950734853,0.0638444349169731,-0.0581345595419406,-0.120773509144783
2.1622978515624993,0.0745048405598849,-0.0646381841272115,-0.01117138235569,0.0553948581218719,-0.0637561008334159,-0.1281636208295822
2.1722617187499935,0.0747428140342235,-0.0680335256539285,0.049333062967658,0.0564910173416137,-0.0620868280529975,-0.1317434310913086
2.182226806640628,0.0566050997972488,-0.0679473086751997,0.1088946744829416,0.0559856183826923,-0.0521034933626651,-0.1360435932874679
2.1921909179687518,0.0645015886681154,-0.0675992258898913,0.1143383268415927,0.051592469215393,-0.0488970465958118,-0.1425680816173553
2.2021545410156236,0.0540250567087903,-0.0526388265147805,0.09895721783638,0.0424622446298599,-0.045954942703247,-0.1535855829715728
2.2121198730468734,0.0227767356818541,-0.042359716823697,0.1003144776642322,0.0417770147323608,-0.0434427820146083,-0.1614126116037368
2.222083984375004,-0.00763012955226,-0.0127878776416182,0.0969002853065729,0.0383835174143314,-0.0402008257806301,-0.1680955588817596
2.2320488281250093,-0.0012751345023512,0.026564035668224,0.0356914911061525,0.0312379896640777,-0.0419308133423328,-0.1729020327329635
2.242012939453126,0.0154528955997899,0.0438590154707431,-0.0092383684664964,0.0256059747189283,-0.044417418539524,-0.1798759698867797
2.251977783203124,0.0150349989812821,0.0347834363505244,-0.0408148254692554,0.0216703545302152,-0.0496952682733535,-0.1844262480735778
2.2619418945312546,-0.0028240809774026,0.058484629933536,-0.0522597640693187,0.0144140012562274,-0.0507980734109878,-0.1865861415863037
2.271906982421875,-0.0077399466022849,0.1018051546134054,-0.072899231994152,0.0022870320826768,-0.0511946193873882,-0.1900586485862732
2.2818710937499986,-0.0063023515472188,0.1251496437132358,-0.0637619858145713,-0.0140093239024281,-0.0517901703715324,-0.1894272267818451
2.291835693359374,-0.0282856718290597,0.1179907118692994,-0.0487596469938755,-0.0275006312876939,-0.0460673011839389,-0.1927268803119659
2.301799804687505,-0.0444428067080676,0.1028454574465751,-0.0489922867059707,-0.0366778820753097,-0.0368698090314865,-0.1983370929956436
2.3117648925781253,-0.065762621579878,0.0907404475025832,-0.0589385111808776,-0.0421114675700664,-0.0286476295441389,-0.2023134678602218
2.321729003906249,-0.0709592769075185,0.1313330085232854,-0.0833399619877338,-0.0435180403292179,-0.0210018027573823,-0.2055130004882812
2.3316936035156246,-0.059695540093258,0.1652361549079418,-0.1190863981515169,-0.0470675006508827,-0.0146855823695659,-0.2100459635257721
2.3416577148437483,-0.0617525456883013,0.2011656925536692,-0.1159428394287824,-0.0471428111195564,-0.0105167366564273,-0.2183526456356048
2.3516228027343757,-0.056107854332216,0.2488260000035166,-0.1094283429682254,-0.0424074381589889,-0.0035283358301967,-0.2222922593355178
2.3615869140624994,-0.0161115787042304,0.244490162756294,-0.0842184983879327,-0.0322662107646465,-0.0098952986299991,-0.2226833552122116
2.3715507812499936,0.0306998568313196,0.1762647677920758,-0.0603244125813245,-0.0273936912417411,-0.0146991079673171,-0.2229864299297332
2.381515869140628,0.0757641929712146,0.0704841336764395,-0.032508769416809,-0.0216276086866855,-0.0199325941503047,-0.2200994044542312
2.391479980468752,0.1297815412975847,-0.04313289315328,0.0020218612164258,-0.009272938594222,-0.0243843346834182,-0.2180349230766296
2.4014450683593793,0.1627112760728225,-0.1270763739921152,0.0300736512243747,-0.0017916304059326,-0.0315058529376983,-0.2159331887960434
2.4114089355468735,0.1978283282918855,-0.1744365294516086,0.0510854595929384,0.0076902881264686,-0.03429951146245,-0.2079700678586959
2.421374023437494,0.2165342708708718,-0.1779508211828768,0.087306527531147,0.0042295893654227,-0.0351352915167808,-0.2058968245983123
2.4313381347656247,0.2195198260203003,-0.1710650071918964,0.111450788706541,0.0009150197729468,-0.0283727254718542,-0.2009207010269165
2.441303222656259,0.229758457570523,-0.1605399599157273,0.1193015022069215,-0.0018546725623309,-0.0164137873798608,-0.1947855204343795
2.451267333984376,0.2311026387210935,-0.1765365704707801,0.113211368638277,0.0050141522660851,-0.0073638344183564,-0.1834718734025955
2.4612319335937514,0.2074974163258448,-0.1840729573249817,0.0670943451076745,0.0159663408994674,-0.00831825658679,-0.171279177069664
2.471196044921875,0.2034667360376566,-0.203276254966855,0.0207031808108091,0.0299229025840759,-0.0149649735540151,-0.15459606051445
2.4811611328125025,0.2283329913446679,-0.2227430258505046,-0.0390004695236682,0.0465253144502639,-0.022765640169382,-0.1383430659770965
2.491125000000004,0.2400368000766262,-0.1976049313321709,-0.0962403600931167,0.0522836036980152,-0.0320936255156993,-0.1261979788541793
2.501090087890624,0.2440003699453547,-0.1567791460774839,-0.08996785569489,0.0568034648895263,-0.0302061922848224,-0.1134593114256858
2.511054199218755,0.2230741940336301,-0.125917705476284,-0.0616010083884,0.0546308569610118,-0.0230518765747547,-0.0983221679925918
2.5210183105468786,0.2185414825074374,-0.117199707622081,-0.0292120659589767,0.0551719740033149,-0.0138958878815174,-0.0825149491429328
2.5309831542968766,0.1923530021533369,-0.107130441289395,-0.0007400047123432,0.0537810064852237,-0.004288534168154,-0.070971742272377
2.540947021484378,0.1731851046184077,-0.1057363565824925,0.0546101265877485,0.05737841501832,0.0016516329487785,-0.0555230006575584
2.550911865234376,0.156581321950443,-0.0826180774539709,0.0593821632951498,0.0662483423948288,0.0023459191434085,-0.0455073826014995
2.5608759765624995,0.1529560441253706,-0.0769417853832244,0.0453448701143264,0.0688183531165123,-1.36962626129e-05,-0.0357457920908927
2.5708413085937494,0.1530759076453745,-0.0477596761710941,0.0245914204210042,0.0629151910543441,-0.0040025790221989,-0.0276678912341594
2.580805175781258,0.1280198653873056,-0.0374985405281186,0.0545499208331108,0.053663857281208,0.0054775169119238,-0.0240034125745296
2.5907700195312486,0.1049556545335799,-0.0101208503894507,0.0922135887950658,0.0392092838883399,0.0158787593245506,-0.015471177175641
2.6007341308593794,0.0819243595687672,-0.0090771865554153,0.0835556505650281,0.0308968853205442,0.0225482452660799,-0.0058808997273445
2.6106992187499998,0.0760294928438961,-0.0320281462930142,0.0458633410304784,0.0257841516286134,0.0208560731261968,0.0051344675011932
2.6206628417968787,0.0878678512083366,-0.0811855604328215,0.0005588029265403,0.022045899182558,0.0155864497646689,0.0137468827888369
2.630627929687499,0.086239446288906,-0.1166331597805023,0.0259498492926359,0.0168000049889087,0.0140748396515846,0.019628208130598
2.64059204101563,0.051669652689062,-0.1379747846253216,0.0713701227307319,0.0118675222620368,0.0182099696248769,0.0243923086673021
2.6505561523437535,0.0488008192544803,-0.1192592705003917,0.0544236641049385,0.0094403168186545,0.0202747173607349,0.029417160898447
2.6605209960937515,0.0613978139664977,-0.0622419366404414,0.0089396777808666,0.0087314397096633,0.0181742310523986,0.0317682363092899
2.670485107421875,0.0708631595892831,-0.0138869249247014,0.0096574706614017,0.0027313381433486,0.0169550348073244,0.0293551459908485
2.6804501953125026,0.0877949321025982,0.0549262067995965,0.0090659345090389,0.0058484971523284,0.0185711067169904,0.0248849838972091
2.690414062500004,0.0704869101554155,0.1244450025752186,0.005253682744503,0.0101164784282445,0.0220569185912609,0.023985369130969
2.7003791503906243,0.0495661776037886,0.1478992356598377,0.0001952303111553,0.0188115276396274,0.0277778282761573,0.0202955603599548
2.7103430175781256,0.0459305975804105,0.106950554677844,-0.0547480737537145,0.0295368768274784,0.0215074159204959,0.0184212289750576
2.720308105468753,0.0480212131841108,0.069783876452595,-0.1164893673956394,0.0413726828992366,0.0113233011215925,0.0170608926564455
2.7302722167968767,0.0510601424885913,0.0484942740559577,-0.1192383738428354,0.0564919784665107,-0.0012819725088775,0.022831430658698
2.740237304687504,0.0675518430842086,0.0468086590565741,-0.0879646991789341,0.0643388703465461,-0.0097658839076757,0.0202870871871709
2.750200927734376,0.0586129324883222,0.0463911642968654,-0.0406108273297548,0.0678252130746841,-0.0208483636379241,0.0259841214865446
2.7601660156250034,0.0398083883730694,0.0511943267948925,0.0162239895701408,0.0613839402794837,-0.0222202781587839,0.0269998088479042
2.770130126953127,0.0372564023353159,0.0405275329604744,0.0736240391373634,0.0475701242685318,-0.0207435544580221,0.0250509083271026
2.7800939941406284,0.0304305383706465,0.0304578282363712,0.1435796188950538,0.0321142971515655,-0.0117211174219846,0.0259400717914104
2.7900588378906264,0.0335043197927996,0.0201397017091512,0.1950759973764419,0.0222171880304813,-0.0045071458443999,0.0239661373198032
2.8000231933593795,0.0423185080304741,0.002912964837253,0.1718757390528917,0.0105496114119887,-0.0056845243088901,0.0192804299294948
2.80998828125,0.0453057802129536,0.0158873049616813,0.155735336112976,0.0021273642778396,-0.0021411883644759,0.011345274746418
2.819952148437494,0.0354523120554164,0.0568212267659604,0.1505564721703529,-0.0068947286345064,0.005835604853928,0.0084490189328789
2.829916992187499,0.050521469034627,0.085270783919841,0.1328033733367919,-0.0149302845820784,0.0155753176659345,0.0081483479589223
2.83988110351563,0.0526763455135747,0.0586596942394971,0.0704576840609312,-0.0181772112846374,0.0201836507767438,0.0046193930320441
2.849845947265628,0.0726669210756197,0.012201748316735,0.0042021278649568,-0.0185545794665813,0.0173380635678768,0.0052907760255038
2.8598100585937516,0.0576062761964276,-0.0036678748577833,-0.0334825828850269,-0.0161777883768081,0.0171818155795335,0.0057813366875052
2.869775146484379,0.0416209907529875,-0.0088851711146533,-0.0404506683319807,-0.0115763787180185,0.0190865080803632,0.013834735378623
2.8797390136718803,0.0495359285959973,-0.0105564653277397,-0.0520271243572235,-0.0035242680460214,0.0150730833411216,0.019296845421195
2.889703125000004,0.0734928505057469,0.0191474758014082,-0.0723854372531175,0.0004164110869169,0.0097440984100103,0.0242852121591568
2.8996682128906244,0.1255246510380879,0.0399095471926033,-0.1067027173966169,0.004611087962985,9.1005815193e-05,0.0336425118148326
2.9096320800781257,0.1687427747894078,0.0373557710565626,-0.0842313578695058,0.008307822048664,-0.0079887583851814,0.0378412492573261
2.9195969238281236,0.1700875039292499,-0.0180611418694257,-0.0278752643972635,0.0148457214236259,-0.0042844070121645,0.0378212854266166
2.9295610351562544,0.1369625023102387,-0.0665615534052252,0.0183633396863937,0.0281178504228591,0.0002064814325422,0.0445969030261039
2.9395263671875043,0.1490076352931559,-0.0816327196784317,-0.0199012167781591,0.0338088534772396,-0.0037228397559374,0.0532306060194969
2.949489990234376,0.1825548809122294,-0.1246739890255033,-0.0357943669587373,0.039461676031351,-0.0109895411878824,0.0631279796361923
2.9594550781250035,0.1977964718488976,-0.1384942784547805,-0.0246136322528123,0.0475925765931606,-0.0124236531555652,0.0728114992380142
2.969419189453127,0.1906327907646074,-0.1433611538387835,0.0124304425060749,0.0539665855467319,-0.0080416882410645,0.083406887948513
2.979384033203125,0.1770623844431713,-0.1333490245208144,-0.0063280339777469,0.0622808337211608,-0.003699256805703,0.0931450277566909
2.9893479003906265,0.1638358961885795,-0.1104937802426516,-0.032790508967638,0.0823075324296951,-0.0092665953561663,0.1159989386796951
2.99931201171875,0.2016672123350203,-0.0983966613441705,-0.1357680683612823,0.0846744179725647,-0.026056095957756,0.1215928718447685
3.0092770996093776,0.1628831255083903,-0.0529644052073359,-0.1215811375766992,0.0829508230090141,-0.0265796724706888,0.1250267624855041
3.019240966796879,0.1011336120273917,-0.0178645963840186,0.0044154783546924,0.0780710279941558,-0.0086405389010906,0.128157839179039
3.0292060546874993,0.0479998781351372,0.0631850627094507,0.0769856245249509,0.0781325548887252,0.0084154084324836,0.137694627046585
3.03917016601563,0.0352038537196815,0.1257365036904811,0.0154202719718217,0.0791920199990272,-0.0013171806931495,0.1439003050327301
3.049135009765628,0.0534402425581589,0.130991501609236,-0.0839104553520679,0.0866573899984359,-0.0208639837801456,0.1455631852149963
3.0590991210937517,0.0786284232959151,0.0989019805178046,-0.0797860688984394,0.0925076901912689,-0.0279339998960495,0.1477434784173965
3.069064208984379,0.0898831365535035,0.0974509049266576,-0.0153185651630163,0.0836497545242309,-0.0215687789022922,0.1460672914981842
3.0790280761718734,0.0746531995220109,0.1007953930489718,0.0579442394465208,0.0679020434617996,-0.0166486948728561,0.1398506760597229
3.088993164062508,0.0442379683183506,0.0538283285602927,0.1483136616796255,0.0510684698820114,-0.0057787364348769,0.1377105563879013
3.0989572753906245,0.0019889087948948,0.0076234806157648,0.2281102519720792,0.0335104502737522,0.0046782330609858,0.1341688334941864
3.108921142578126,-0.032169819786027,0.0045676001764833,0.2605348502367735,0.0203182138502597,0.0091512780636549,0.1306763738393783
3.1188859863281237,-0.0361521308878436,0.0319829919770359,0.2570768187373876,0.0023744320496916,0.013776060193777,0.1272428035736084
3.1288500976562545,-0.0257367179986089,0.0514990088298916,0.2303536469846963,-0.0139803066849708,0.0235056523233652,0.1201345548033714
3.138815185546875,-0.0160916318947449,0.0744128514274954,0.1928665046334266,-0.0243050288408994,0.0339560806751251,0.1188543066382408
3.148778808593754,0.0135157169921323,0.1130560319460928,0.1163309619635343,-0.0312585420906543,0.0354716852307319,0.1166691854596138
3.158743896484374,0.050248716507852,0.1454008429728448,0.0261889187455177,-0.0373394787311553,0.0283691696822643,0.1133088394999504
3.168708007812505,0.0652231078756973,0.116292383518815,-0.0272907425075769,-0.040375217795372,0.0252998750656843,0.1121149435639381
3.1786730957031253,0.0747711633458733,0.0705503307804465,-0.0517553216785192,-0.0475464947521686,0.0191124733537435,0.1173131614923477
3.1886369628906266,0.0717348278572782,0.013772066373378,-0.0496241548687219,-0.0497510582208633,0.0176871493458747,0.1196711212396621
3.198602050781254,0.042183300810866,-0.0562650541879236,-0.0189238961786031,-0.0507632307708263,0.0219134930521249,0.1267221122980117
3.2085661621093777,0.0215652775328606,-0.1240675475649535,0.0046890345990657,-0.0439777635037899,0.0336351282894611,0.1381476074457168
3.218530029296879,0.0284621609071269,-0.1518904972530901,-0.0109200379431247,-0.0365768745541572,0.0371105894446373,0.1552844941616058
3.2284951171874994,0.0478700046777725,-0.1438851777128875,-0.0690326196938753,-0.0298515949398279,0.034548096358776,0.1694770008325576
3.2384589843750007,0.053822556406632,-0.1514814780607819,-0.1233633448183536,-0.0163245797157287,0.0283405147492885,0.1810674220323562
3.248424072265628,0.0673075859995558,-0.1568960504554212,-0.1626058064043521,-0.0020716087892651,0.0226613245904445,0.1942846924066543
3.258388183593752,0.0807760297838598,-0.1212491291433572,-0.1819634178251028,0.0121126538142561,0.0114283766597509,0.2010102421045303
3.2683532714843793,0.0845720245333388,-0.0742947780057787,-0.1744365294516086,0.0184179544448852,0.0034929560497403,0.2064950168132782
3.2783171386718735,0.088154266934283,-0.0421842141263186,-0.1107651445299386,0.0228315703570842,0.0004495345056056,0.2128146737813949
3.2882819824218785,0.0777727928472682,-0.0445920059204101,-0.0312023629933595,0.0180975347757339,-0.0002918895334005,0.2118255794048309
3.298246093750002,0.055336029709503,-0.0610924743443727,0.0145633628815412,0.0070218071341514,0.0101116560399532,0.2113898992538452
3.3082109375,0.0255636447203345,-0.0762958886951208,0.0926923122227191,-0.0104203000664711,0.0255428105592727,0.2041634023189544
3.318175048828124,-0.0213817924584262,-0.0680089757345616,0.1797439882099628,-0.0175840444862842,0.0402206629514694,0.2038723081350326
3.3281391601562547,-0.0482381804030388,-0.0349599619612097,0.1935948189079761,-0.0160734988749027,0.0502498596906662,0.2000109851360321
3.338104248046875,-0.0718705282672308,0.0136059160262346,0.0980699136078357,-0.0161335505545139,0.0422439984977245,0.1974173635244369
3.3480681152343763,-0.0724205450991168,0.0589290127001702,0.0542903931140899,-0.0126860896125435,0.034668106585741,0.1909003406763076
3.3580329589843743,-0.0687802889006212,0.0829953863337635,0.0676467182934284,-0.011212857440114,0.0323112346231937,0.1825318783521652
3.367997070312505,-0.0752281133331358,0.0685226243451237,0.1068260515153408,-0.0083792535588145,0.0374455414712429,0.1709745675325393
3.377961914062503,-0.116813977973815,0.0441373940207064,0.1308726975351572,-0.0109232347458601,0.0429323315620422,0.1611286699771881
3.38792504882813,-0.1353391754247248,0.0538879497930407,0.1208849720060825,-0.018462911248207,0.0461382456123828,0.1487718671560287
3.39789038085938,-0.1446519243016839,0.0655517918407917,0.1018412488400936,-0.0294749084860086,0.0469513908028602,0.1358956843614578
3.4078544921875036,-0.1456622886543162,0.0903648921884596,0.1051888057023286,-0.040487878024578,0.0505796819925308,0.1228632479906082
3.4178193359375015,-0.1471963115548714,0.1099335160113871,0.0843815799951553,-0.0496354959905147,0.0552643798291683,0.1101893186569213
3.42778320312501,-0.1566103653818368,0.0955761970959603,0.0404196886718273,-0.0564159043133258,0.0525199919939041,0.0974538028240203
3.4377482910156303,-0.1329918451135978,0.0926879283085465,-0.0249988321781158,-0.055546648800373,0.0478565283119678,0.0852831602096557
3.447712402343754,-0.091610946726799,0.0879851574450731,-0.0843137754559516,-0.0550185404717922,0.0406739823520183,0.0711569637060165
3.4576762695312553,-0.0759212466964498,0.0992532781735062,-0.1036222870379686,-0.0462483912706375,0.0382786430418491,0.0634098276495933
3.467641601562505,-0.0657423825094476,0.0982907167516648,-0.091554832625389,-0.0360804423689842,0.0417713783681392,0.0583096072077751
3.4776054687499993,-0.0590856280339881,0.1030915411621332,-0.0767418788969516,-0.0294901058077812,0.0422554612159729,0.0547138005495071
3.4875703125000044,-0.0497537725977599,0.0708703565150499,-0.0833095668494701,-0.0115270847454667,0.0432797148823738,0.0542805045843124
3.497534423828128,-0.0481974830664694,0.0414336880199611,-0.1217734452784061,0.0060044797137379,0.0275527220219373,0.0572821907699108
3.5074995117187484,-0.0404839860796928,0.0523515340059995,-0.1425958685547113,0.0167870856821537,0.0189789403229951,0.0606907680630683
3.5174633789062497,-0.0271947347871959,0.042572482791543,-0.1031020625561475,0.0203733406960964,0.0119657199829816,0.063981607556343
3.5274282226562548,-0.0082533760171383,-0.0129134037174284,-0.0177747261434793,0.025489006191492,0.0059706792235374,0.0674863308668136
3.5373923339843785,-0.0192633207334205,-0.0831273421503603,0.0468131891012191,0.0293293390423059,0.0104948338121175,0.0740319341421127
3.547357421874999,-0.02199760453552,-0.1314864455193281,0.0840922416597604,0.0319871753454208,0.0086407409980893,0.0780583694577217
3.5573212890625,-0.0525244428874924,-0.1195361877456307,0.0786351452976465,0.0356619171798229,0.0009113210253417,0.0793560892343521
3.5672863769531276,-0.0687232249511405,-0.0698994656562805,0.092679452741146,0.0300008356571197,-0.000555281760171,0.0795318558812141
3.5772504882812584,-0.0709433121534064,-0.0285854584932327,0.1346954706937074,0.0265299007296562,-0.0024841602426022,0.0740348547697067
3.587215332031249,-0.0741813807591795,0.0039174657046794,0.164480368104577,0.0135784149169921,0.0098129864782094,0.0678222328424453
3.5971791992187434,-0.0756601115422323,0.0569355007953941,0.1376297705799341,0.0009186975657939,0.0090253315865993,0.0570300221443176
3.607144287109378,-0.0830840875305235,0.1292399817667901,0.0849222627431154,-0.0103560611605644,0.0065302159637212,0.0468189306557178
3.6171083984375016,-0.0799955103980377,0.1449069219760596,0.0882318256825208,-0.0181890614330768,0.0064246160909533,0.0371333174407482
3.627073486328129,-0.0779873123807832,0.1215514730907976,0.1256365504473447,-0.0240496136248111,0.0108105763792991,0.0285811088979244
3.6370373535156233,-0.0907674451073631,0.0831613905504345,0.1034428388178348,-0.0275460630655288,0.0078488904982805,0.0179868414998054
3.6470021972656284,-0.0688158716706559,0.0767244893707334,0.0442027143418788,-0.0256456304341554,0.0035239169374108,0.014511683024466
3.656966308593752,-0.03703534346316,0.0745507985934615,0.011592822638154,-0.0268274918198585,-0.0045987861230969,0.006747749634087
3.6669313964843795,-0.0254219894936308,0.0540380257882177,0.0148953713148832,-0.0255134887993335,-0.0057540656998753,0.002397209405899
3.6768950195312584,0.0048601168496534,0.0283374750815331,0.0202735572218894,-0.022644005715847,-0.0045065628364682,-0.0006020343862473
3.6868603515625082,0.0356217503381893,-0.0059301207013428,0.0398766678363084,-0.0140100372955203,-0.003604284254834,-0.0063275648280978
3.696824462890625,0.0604167305072769,-0.0464089922145009,0.0529494998991489,-0.0010593049228191,-0.0008301008492708,-0.0019887182861566
3.70678930664063,0.0782057409044355,-0.1132872103534638,0.0532142883151769,0.0038995007053017,-0.0006162491627037,-0.0006065377965569
3.7167534179687536,0.0933426658902317,-0.1889171824857592,0.0607575433015823,0.0040291501209139,0.0009435961255803,0.0048081772401928
3.7267182617187515,0.1063026486957445,-0.2078280730523169,0.0603302578002214,0.0080979270860552,0.0018946109339594,0.0151582863181829
3.7366823730468752,0.1077342158688232,-0.193096075605601,0.0555424390017986,0.0038870330899953,0.0017720413161441,0.0244295969605445
3.7466474609375027,0.1099511247333139,-0.1655003588020801,0.0414537078946828,-0.0025799213908612,-0.0009329314343631,0.0362697467207908
3.7566115722656264,0.0975561919320374,-0.1192516717158257,0.0409966117769479,0.0027918685227632,-0.000717936316505,0.045878704637289
3.766576171875009,0.09040730655808,-0.0911930135756731,0.0315285262078046,0.001586521975696,-0.005260756239295,0.0577729158103466
3.7765402832031256,0.0769403606111183,-0.0484467816524207,0.0269692554682493,0.0048898980021476,-0.0078508770093321,0.0638463348150253
3.7865043945312493,0.0543064309334382,-0.0007268529698252,0.0658820467084646,0.0077330879867076,-0.0029573184438049,0.0645733773708343
3.7964694824218768,0.0262022896837443,0.0383136563032865,0.1086889227777719,0.0064462115988135,0.0066122091375291,0.068982183933258
3.8064340820312594,0.0101917967338114,0.0517765105970203,0.1313397305250167,0.0089067062363028,0.0193200148642063,0.0681803002953529
3.816398193359376,0.0136991107350215,0.0358336760558187,0.1086819085150957,0.0159565806388854,0.0211307592689991,0.0640630796551704
3.826363525390626,0.0145742130691185,0.0100775957696139,0.0647609337240457,0.0220951661467552,0.0223989561200141,0.0595849752426147
3.836327392578127,0.0098759357176721,0.0018779227010905,0.0435749378323555,0.0289308838546276,0.0197337847203016,0.0579903200268745
3.8462924804687546,0.0114392760442569,0.0327365868233144,0.0406821390002965,0.0355973094701767,0.0195478945970535,0.0516794249415397
3.856256347656249,0.0073217211902141,0.0588033404938876,0.0539531239837408,0.0407898537814617,0.0183102171868085,0.0457430556416511
3.866221191406254,-0.0018535189121961,0.0791663295648992,0.076772858557105,0.036914687603712,0.0124928075820207,0.0370049588382244
3.8761853027343776,-0.0006999649628996,0.0949770621590316,0.0811982737839221,0.0292286276817321,0.0124708116054534,0.0289101954549551
3.8861506347656274,0.008742292045243,0.108560035701096,0.0836579418957233,0.0250666365027427,0.0146615281701087,0.0207995381206274
3.8961145019531287,0.0409605540828779,0.1287989600010216,0.0986994436830282,0.0141955157741904,0.0143644139170646,0.0108624808490276
3.9060793457031266,0.0478112967604771,0.1381022103972733,0.0983896470814943,0.0066768787801265,0.0185623541474342,0.0023014834150671
3.9160434570312503,0.0609097747212275,0.089083766336739,0.1171247426897287,-0.0037886849604547,0.0203369725495576,-0.0027033761143684
3.9260083007812483,0.0610389540588483,0.0399484178982675,0.1384165370434522,-0.0075962063856422,0.0278409626334905,-0.0079849576577544
3.9359721679687496,0.0630842326834797,-0.0014987141251564,0.1051391213417053,-0.0081250499933958,0.0273439809679985,-0.0094398148357868
3.945937255859377,0.0753116268981248,-0.0337950098350644,0.068712301698327,-0.0059953206218779,0.022649360820651,-0.0069502922706305
3.9559013671874936,0.0917103885132819,-0.0422388669230043,0.0503694202780723,-0.0053031826391816,0.0145826218649744,-0.0031401575542986
3.965866455078128,0.093932631140016,-0.0499944494858384,0.0484153636008501,-0.0077274581417441,0.0065039219334721,0.0026985565200448
3.9758303222656295,0.0777358949029818,-0.0422542106226086,0.0794862091690301,-0.0122421188279986,0.0099669080227613,0.0079287476837635
3.98579541015625,0.0523240614771842,0.0094784608326852,0.1094844570696353,-0.022356804460287,0.0212666988372802,0.0174740497022867
3.995759277343751,0.0443103029021993,0.018755407743901,0.0808691879600286,-0.0346428863704204,0.0265937708318233,0.0261038653552532
4.005724365234379,0.0314550956454128,-0.04147767329216,0.0405202264368534,-0.0406773462891578,0.0286289602518081,0.0330179631710052
4.01568823242188,0.0260655480941757,-0.0857467308685183,0.0192155726015567,-0.0403135158121585,0.0310504734516143,0.0382627323269844
4.0256533203125,0.0101661143032833,-0.0772100809305906,-0.0247919114291667,-0.0434619039297103,0.0269665159285068,0.0475417152047157
4.035617431640624,-0.0006854249808937,-0.0544968754716217,-0.0408148254692554,-0.0423763692378997,0.0206955522298812,0.0570204555988311
4.0455825195312585,0.0088252576209604,-0.0348547480210661,-0.0616243892639875,-0.0394386351108551,0.0143561642616987,0.0640831589698791
4.055546630859375,0.0052091494830325,0.0354829629220068,-0.0878483793228864,-0.0393329113721847,0.0041786665096879,0.0738500729203224
4.0655112304687435,0.0004413870919495,0.0767231741964817,-0.1085585743963718,-0.0473972298204898,-0.0053559821099042,0.0812685713171958
4.075475341796874,0.0143637121235951,0.0501598691806197,-0.0741740742355585,-0.0512199960649013,-0.0102220736443996,0.0862265527248382
4.085440185546879,0.0174406353509053,0.0228818400241434,-0.0261140999436378,-0.0513488911092281,-0.0066896569915115,0.0835143849253654
4.09540429687501,-0.0081860098693519,0.0150410633958876,0.0049245969206094,-0.0564658530056476,-0.0099986921995878,0.0767382159829139
4.105369384765623,-0.0238692436262965,0.0188441089406609,0.0447463196992874,-0.0623748749494552,-0.0065818568691611,0.0685340836644172
4.115333496093754,-0.0328137802453711,0.040163814214617,0.101031101500988,-0.0675994381308555,-0.0003039662260562,0.050228364765644
4.125298339843752,-0.0283831043215468,0.0647651715077459,0.118101478767395,-0.0685829445719719,0.0099470736458897,0.0348422192037105
4.135262451171876,-0.0173598982648924,0.0874501737855374,0.0768073453485965,-0.0687843039631843,0.0114786364138126,0.0207082387059927
4.145227539062503,0.0074287252286449,0.0475309819817543,0.0178501294672489,-0.0693454295396804,0.0132584264501929,0.0135142412036657
4.155191162109375,0.0225466167204082,-0.0487331973783671,-0.0345832376033067,-0.0640497803688049,0.0101569024845957,0.003223723033443
4.165156494140625,0.0223986596170812,-0.1051790149606764,-0.069846274164319,-0.0622659996151924,0.0064335372298955,0.0012963935732841
4.175120605468749,0.0188340990033,-0.0659936903893947,-0.0972147580832242,-0.0602882504463195,0.0024267588742077,-0.0042056562379002
4.185085449218754,0.0044907720806077,-0.0541750961713492,-0.1031535004824399,-0.0503607839345932,-0.0137799084186553,-0.0042069880291819
4.195050292968752,0.0022953078629449,-0.0272618086740374,-0.0666822571754455,-0.045989952981472,-0.0246874131262302,-0.0100525598973035
4.205014404296875,-0.0027331878235563,-0.0123814887978136,-0.0054939212411642,-0.0427536778151989,-0.0221736542880535,-0.0109891947358846
4.214979248046873,0.0252482038293033,-0.0143453362166881,0.0366553677022457,-0.0430766195058822,-0.0162745825946331,-0.0136235877871513
4.224943359375004,0.0496517004627734,-0.067798401723802,0.0283189165115356,-0.050313226878643,-0.0133754638954997,-0.0145429112017154
4.234908691406254,0.0461448979182168,-0.1551639659658074,0.0362894569993019,-0.0537401437759399,-0.0091312434524297,-0.0129005629569292
4.244872314453126,0.0398846684796735,-0.2111310601204633,0.0506850620985031,-0.0527752824127674,-0.0028070341795682,-0.0082016829401254
4.254837402343753,0.0247615528235211,-0.241375537867099,0.0418769017428159,-0.0573485679924488,3.65953892469e-05,-0.001792712137103
4.264801513671877,0.0035808176288381,-0.2248182246893644,0.0480740028172731,-0.0567176640033721,0.0030771263409405,0.002754901535809
4.2747661132812595,-0.0102090035969391,-0.1970774003267288,0.0406172570705413,-0.0548619590699672,0.0061652096919715,0.0119727849960327
4.284730224609376,-0.0151729826798662,-0.154429806472361,0.0133101479500532,-0.0505574941635131,0.0073007820174098,0.0193548016250133
4.294695312500004,0.0046188554396852,-0.0986098657034337,-0.0595861614346504,-0.0470560155808925,0.0011966489255428,0.0241064745932817
4.304659423828127,0.047745428450033,-0.0845356015130877,-0.1277256316810846,-0.0416170395910739,-0.012240064330399,0.0297483820468187
4.314624511718755,0.0529733556987717,-0.0899653714768588,-0.1242009646862745,-0.033834271132946,-0.0175136607140302,0.0300095714628696
4.324588378906249,0.0330009368479251,-0.0459086414769291,-0.0855114608079194,-0.0229382142424583,-0.0200101062655448,0.0253812633454799
4.334553222656254,0.0040399595731869,0.0058515025071799,-0.0545446601361036,-0.0277433395385742,-0.0190166868269443,0.0180462095886468
4.344517333984378,-0.028046638908796,0.0108750297576189,0.0069978960633277,-0.0291335098445415,-0.0063946340233087,0.0116679398342967
4.354482421875005,-0.0612330153262242,-0.0049367257498204,0.0670113429993391,-0.0255842767655849,0.0066891522146761,0.0058403857983648
4.364446289062499,-0.0610206146845594,-0.0252757494233548,0.048148821619153,-0.0215149670839309,0.015025645494461,0.0013947710394859
4.374411376953127,-0.04839801060725,-0.0213635444156825,-0.0165355397373437,-0.0074724843725562,0.0126432767137885,-0.0029962542466819
4.384375488281258,-0.019199717445299,-0.0163902860477566,-0.1204974339932203,0.0018826676532626,-8.055940270423889e-08,-0.0085638593882322
4.394340576171878,-0.0009021730041131,0.0107464349418878,-0.1695703847199678,0.0115325963124632,-0.0101477317512035,-0.013041672296822
4.40430419921875,0.0211683141045272,0.0399786669060587,-0.1339870301634073,0.0191186107695102,-0.0091423885896801,-0.0207115784287452
4.4142695312499995,0.0310472089642658,0.0549358514107763,-0.0921089593768119,0.0266196355223655,-0.0062520029023289,-0.0232956167310476
4.42423364257813,0.0710273737076669,0.0338699747674167,-0.0607493599951267,0.0355532094836235,-0.0046727480366826,-0.0274152588099241
4.434198486328128,0.069117083106935,-0.0286906724333763,-0.0408890597492456,0.0393887981772422,-0.0050360616296529,-0.032019019126892
4.44416235351563,0.0741608859604224,-0.076637687870115,-0.0267705180257558,0.0418546162545681,-0.0064017307013273,-0.0346563495695591
4.45412744140625,0.0644227147456258,-0.1119485090956091,0.0021457798570394,0.0402939692139625,-0.0048227235674858,-0.0393033139407634
4.464092285156255,0.0394350615486502,-0.1131314352698624,0.0434644631952047,0.0419989265501499,0.0010684553999453,-0.0383352562785148
4.474056396484379,0.0309569733975455,-0.0964430430583655,0.0729226128697395,0.0396543107926845,0.0090227294713258,-0.0352979451417923
4.4840217285156285,0.0522136233726516,-0.0610381138086318,0.063792380952835,0.0408782996237278,0.0100006414577364,-0.0288810580968856
4.4939853515625,0.0682173212556168,-0.0352791109129786,0.0387035324037075,0.0353540629148483,0.0080426018685102,-0.0276028886437416
4.503950439453128,0.0687293989636003,-0.0266445535585284,0.0552589458853006,0.0234795585274696,0.0089462120085954,-0.0214818753302097
4.513914550781259,0.040860418176651,-0.0215595053791999,0.0826315214574337,0.0168689712882041,0.0131113650277256,-0.0156637709587812
4.523879394531249,0.0278606878826394,-0.0448619089029729,0.104886023363471,0.0108739286661148,0.0164467077702283,-0.0090737789869308
4.533843261718744,0.017440525753051,-0.0563223373331129,0.0907587138116359,0.0012104921042919,0.0187072549015283,-0.0003975797444581
4.543808349609378,0.0229003620615229,-0.0469065664730966,0.0658779550552368,-0.002696631476283,0.0124986274167895,0.0035750577226281
4.553772460937502,0.0128357353713363,-0.0397078871406614,0.0654968467831611,-0.007686338853091,0.0116395689547061,0.0121550410985946
4.563737548828129,0.0062627867218106,-0.0484263233862817,0.0431622653782367,-0.0172505490481853,0.0071441535837948,0.0136365573853254
4.5737014160156235,-0.0157032170990481,-0.0428784800007939,0.0341325712263584,-0.022777572274208,0.0050475797615945,0.0117312986403703
4.583666259765629,-0.0295602218095213,-0.0269252701960504,0.0468845007717609,-0.0332073085010051,0.0027024000883102,0.013902572914958
4.593630371093752,-0.0539303641626611,-0.0011273965947329,0.0861737241089344,-0.0471784882247448,0.0116511732339859,0.0108021758496761
4.60359545898438,-0.0735782272342592,0.0172957104548811,0.0963654477775096,-0.0586279481649398,0.0145473610609769,0.0102165462449193
4.613559570312503,-0.0737580042479559,0.0480427308961749,0.1080038631230592,-0.068224549293518,0.0162950213998556,0.0133496820926666
4.623524414062501,-0.061622124241665,0.065297524818778,0.0903214914381504,-0.0742576718330383,0.0210908409208059,0.0116543136537075
4.633488525390625,-0.0518695226427167,0.0615840572535991,0.0323334128499031,-0.0769568607211113,0.0210033375769853,0.0092841479927301
4.64345361328126,-0.032345505146496,0.0151093063265085,-0.0252466694593429,-0.0723650380969047,0.0141030894592404,0.0095989340916275
4.653417480468754,-0.0118646253168582,-0.0063172203227877,-0.0643242958724498,-0.0697590336203575,-0.0016940790228545,0.0059211137704551
4.663382324218752,-0.0152986548861488,-0.0465752886921167,-0.0793453393936157,-0.0617535710334777,-0.0107251238077878,-0.000337048433721
4.6733464355468755,-0.0316621990574523,-0.0360036257952451,-0.0436374816745519,-0.0556957423686981,-0.0115634500980377,-0.0072674215771257
4.683311279296873,-0.0543001838557422,0.0148936177492141,-0.0080266545891761,-0.0533380433917045,-0.0094433072954416,-0.012078421190381
4.69327661132813,-0.0637111689427867,0.0702573391832411,-0.0010416180074214,-0.0498829595744609,-0.0051629794761538,-0.0213054809719324
4.703240722656254,-0.0404542119959369,0.1206996785670518,-0.0148263977319002,-0.0443076342344284,-0.00148994801566,-0.0263393875211477
4.71320532226563,0.0006625555619597,0.1020937622964382,-0.0470586882948875,-0.0328944288194179,-0.0083891786634922,-0.0394465029239654
4.723169433593753,0.0135068760985508,0.0295833834894001,-0.0894207432061433,-0.0175397079437971,-0.0109511390328407,-0.04815024882555
4.733134521484374,0.0246295970069244,-0.0267985750764608,-0.1155249062776565,0.0015938589349389,-0.018358776345849,-0.0606137998402118
4.743098388671875,0.0106406730124726,-0.022945114518702,-0.109552261608839,0.0191315729171037,-0.0241910982877016,-0.0687233954668045
4.753063476562502,-0.0032888489449396,-0.0089184888623654,-0.0465489852070808,0.0407009497284889,-0.0237222872674465,-0.0752883553504943
4.763027587890626,-0.0131480527235195,0.0048170448929071,0.0154062434464693,0.0389355421066284,-0.0181264542043209,-0.0877804458141326
4.772992431640624,0.0069889090392738,0.0184872583270072,0.0249286895513534,0.0408445447683334,-0.0120094344019889,-0.0941900759935379
4.782956542968755,0.0192857152283191,0.036804859175533,0.0211287127465009,0.0535454265773296,-0.0104381693527102,-0.0954667925834655
4.792921386718753,0.0565275775816291,0.0017703706733882,-0.0903881269335746,0.0528623908758163,-0.0261780228465795,-0.0934502184391021
4.8028854980468765,0.0451171257730573,-0.0079290394335985,-0.1426584123969078,0.0454430878162384,-0.0375427938997745,-0.0965160503983497
4.812850341796874,0.0020092574631795,-0.0070696461252868,-0.0079658643126487,0.0319523103535175,-0.0227170791476964,-0.0948524996638298
4.822814453125005,-0.033531134734489,-0.0069248308271169,0.1483656841278076,0.0194855201989412,-0.0068795271217823,-0.0865269228816032
4.832779541015626,-0.0279238162467256,-0.0080387834183871,0.1778238338023424,0.0112464167177677,0.0050608739256858,-0.0798013284802436
4.842743408203127,0.0044486865045502,-0.0501774048373103,0.0639180531591177,0.00329315289855,0.0029220890719443,-0.0703529715538024
4.852708496093754,0.0608891703246161,-0.0908063523456454,-0.0140127432614564,0.0051504410803318,-0.0083188479766249,-0.0582116171717643
4.862672607421878,0.1025523197188973,-0.1177604102447628,-0.0256686942636966,0.0107036344707012,-0.0161738228052854,-0.0504993833601474
4.872637451171876,0.1182864434128627,-0.1248157355837523,0.0052753100544214,0.0099547961726784,-0.0159778743982315,-0.0441935732960701
4.882601318359377,0.1249363662887364,-0.1076535883806645,0.0331809695899486,0.0152547536417841,-0.0210306905210018,-0.039088562130928
4.892566650390627,0.095187928430736,-0.0740444565065205,0.0284726457685232,0.0101295560598373,-0.015250333584845,-0.0341283977031707
4.902530517578128,0.0529982344117015,-0.0256439982138574,0.0771247407346963,0.0055694254115223,-0.0100459838286042,-0.0327944196760654
4.912495605468749,0.0346340910077095,0.0010047931283712,0.1207633914530277,0.0026159714907407,0.003089565783739,-0.029097381979227
4.92245947265625,0.0303381108468398,-0.018875673122704,0.0668196198195219,0.0033211763948202,0.0043487083166837,-0.0252152904868125
4.932424316406255,0.0283798529185354,-0.0516062685966491,-0.0118722241014242,0.0092163775116205,-0.0024391359183937,-0.0218870863318443
4.942388427734379,0.0261660858592018,-0.0607749328278005,-0.0750853438615798,0.0188309215009212,-0.0140776829794049,-0.0225089341402053
4.952353515624999,0.0167129786634817,-0.0534890136033296,-0.075411507076025,0.017356364056468,-0.0151256946846842,-0.023613104596734
4.962317382812508,0.0112977486817166,-0.0333691856384277,-0.0128881231456995,0.0163062792271375,-0.0130023555830121,-0.0260475017130374
4.972282470703128,0.018406776969321,0.005565963564068,0.0334714769691228,0.0161793828010559,-0.0102991331368684,-0.0317602679133415
4.982247558593755,0.0280014115275815,0.039436376722902,0.0398497798293829,0.0201999582350254,-0.0039682672359049,-0.0381284207105636
4.9922114257812495,0.0164065795954316,0.010932605163753,0.0175537768691778,0.0219773836433887,-0.0011720724869519,-0.0400244332849979
