time,ax,ay,az,gx,gy,gz
0.0,0.0237963975857943,0.0523212849982082,0.0380132120519876,-0.0104693481698632,-0.0120781743898987,-0.0950861200690269
0.009965087890620339,0.0478231698613613,0.0471875753715634,-0.0179535898417234,-0.010661095380783,-0.015157320536673,-0.0969889461994171
0.019929199218736926,0.0527261029394343,0.0306939750798046,-0.0355535439401865,0.0007223160937428,-0.0153562380000948,-0.093777447938919
0.029894287109371476,0.0691343630352988,0.0253683961428701,-0.0531903229176998,0.008151470683515,-0.0162276253104209,-0.0942384451627731
0.03985815429685147,0.0569523057997226,0.0342037367664277,-0.0742296038150787,0.0109046483412384,-0.0195488631725311,-0.0975149199366569
0.049822265624996476,0.0625480434475466,0.0454229037865996,-0.0326502237141132,0.016958013176918,-0.0153578463941812,-0.0915704816579818
0.05978710937499443,0.0783431400811299,0.0203058520562946,-0.0161082542359828,0.0235876068472862,-0.0130363190546631,-0.0936346724629402
0.06975122070313944,0.0943416868649423,-0.0298988791793584,-0.0487777671724557,0.0326663218438625,-0.0206300541758537,-0.084755964577198
0.07971606445313739,0.0883877468965947,-0.0639582390390336,-0.0629845717012882,0.0391047671437263,-0.0320802666246891,-0.0779484286904335
0.08968017578123977,0.1097669638054445,-0.086742317777127,-0.0569084666579961,0.0417359694838523,-0.0349719263613224,-0.0739385038614273
0.09964428710937057,0.0998045553807169,-0.079721479229629,0.0140659347534179,0.0441901683807373,-0.0289503633975982,-0.0681322664022445
0.1096093749999909,0.0962342956785112,-0.0903027867376804,0.0622691169083118,0.0425717644393444,-0.0254586935043334,-0.062499675899744
0.11957299804687693,0.0950763943476602,-0.0685328534781932,0.0646171413391828,0.033367708325386,-0.0274111591279506,-0.0664304941892623
0.12953808593749727,0.0763113785251975,-0.0470304851137101,0.0909329013347625,0.0222745761275291,-0.0213316958397626,-0.0658536478877067
0.13950219726561386,0.058768488376215,-0.0366727572284638,0.1259808338403701,0.012835444882512,-0.0121785858646035,-0.063532181084156
0.14946630859373045,0.0421608332507312,0.0084992405369877,0.1168926874995231,0.0029428666457533,0.0004485263489186,-0.0645814687013626
0.1594311523437426,0.0357072366645559,0.0351595761865377,0.0702969405412674,0.0008567124605178,-0.0021886490285396,-0.0604789033532142
0.1693952636718734,0.0536118727980181,0.0371875748828053,-0.0030517887860536,0.004368090070784,-0.0089570730924606,-0.058508962392807
0.17936035156249375,0.0512873023079708,0.0085116616271436,-0.0445423215597867,0.0084868455305695,-0.0203246735036373,-0.0560799017548561
0.18932421875000216,0.0471941512428224,-0.0225789115548133,-0.0532657262414693,0.0086943050846457,-0.0250933319330215,-0.0506332069635391
0.19928808593749636,0.0317094357326626,-0.0577533930495381,-0.0068950202107429,0.0065051075071096,-0.0258632283657789,-0.047947634011507
0.2092531738281167,0.0215894255934283,-0.0738292063206434,0.064682023268938,-0.0008641253225505,-0.0195715092122554,-0.0496656373143196
0.2192172851562617,0.0031952889099717,-0.0577075080811977,0.0778904644101858,-0.0062757637351751,-0.0184749644249677,-0.0515189543366432
0.22918212890625966,-0.0073585460692644,-0.0265937001541256,0.0867640912175178,-0.0137664368376135,-0.0192944202572107,-0.0518521144986152
0.23914624023437625,-0.0084836045764386,-0.0172632694900035,0.0803173992961645,-0.0288593731820583,-0.0174682699143886,-0.0604474768042564
0.24911035156249284,-1.27864163368e-05,-0.0391195658586919,0.0668237114727497,-0.0473659448325634,-0.0122511368244886,-0.0620208755135536
0.2590751953124908,0.0069918681813403,-0.008854922106862,0.0446960508167743,-0.0596312209963798,-0.0123402513563632,-0.0655069574713707
0.2690393066406216,0.0086398545840755,0.0484283692128956,0.0288584302157163,-0.060173176229,-0.020257830619812,-0.0681938230991363
0.27900415039061954,0.0038070276001468,0.0567301874816417,0.0242190799772739,-0.0566312372684478,-0.0208155158907175,-0.0673399493098259
0.28896826171873613,0.0174842187643051,0.0177962073229253,0.0386643694370985,-0.0561337620019912,-0.0150420470163226,-0.0681756436824798
0.29893212890625875,0.022023579226993,-0.0084536478295922,0.0082680621296167,-0.0504439286887645,-0.012794298119843,-0.0657772347331047
0.30889721679685067,0.0437350237648934,-0.0321080796614289,-0.0560515575677156,-0.0449133440852165,-0.0169949010014534,-0.0686505213379859
0.3188610839843733,0.0310465513771399,-0.0309724997602403,-0.0808282714277505,-0.0372494831681251,-0.0135139357298612,-0.0662539601325988
0.32882617187499363,0.0395768446395173,-0.0576068241856992,-0.052738487496972,-0.021841762587428,-0.0111338682472705,-0.0602922029793262
0.33879028320313864,0.0322934826983138,-0.0782366474993526,-0.0365209276676177,-0.0059423381462693,-0.0142074953764677,-0.0511067062616348
0.34875415039061863,0.0208316294960677,-0.0791625301726162,-0.0460685082137584,0.0128326816484332,-0.010683867149055,-0.0429326668381691
0.3587192382812532,0.0479825982067734,-0.0387511709377169,-0.0431780474692583,0.033850260078907,-0.010696024633944,-0.0336201265454292
0.3686831054687332,0.0963150692971423,-0.0041629648983478,-0.0623456892758607,0.0485130921006202,-0.0216107256710529,-0.0307843927294015
0.37864819335938193,0.1387383163437247,-0.0220903973855078,-0.0945534299194812,0.054731048643589,-0.0305510163307189,-0.0321417674422264
0.3886123046874985,0.1390086577177047,-0.0792291656680405,-0.0849222627431154,0.0587923675775527,-0.0371495299041271,-0.035754881799221
0.3985761718749927,0.1001171284612268,-0.104824356304109,-0.0283411283433437,0.0571295693516731,-0.0287840627133846,-0.0383672006428241
0.40854125976561306,0.0447049282429739,-0.0924009280607104,0.0446592259377241,0.0456713214516639,-0.0238665342330932,-0.0427286587655544
0.41850537109374386,0.0006647109864279,-0.0670452452689409,0.1058656820505857,0.0381405279040336,-0.0198835935443639,-0.0547429807484149
0.4284702148437418,-0.0267344237990677,-0.0368849386744201,0.1328618255257606,0.02253626473248,-0.0123505741357803,-0.0604131147265434
0.4384340820312502,-0.0223715889470651,-0.0145114865638315,0.1181470714747905,0.0138579094782471,-0.0051044430583715,-0.0654052272439003
0.448398193359381,-0.0283949774224311,0.031729309476912,0.0895902545541524,0.0132432514801621,0.0004029744304716,-0.0728503614664077
0.45836767578126114,-0.0229557455105707,0.0724219698712229,0.0386433266490697,0.0077392123639583,-0.0046434067189693,-0.0780373662710189
0.46833154296874113,0.0088707772631198,0.0932144364006817,-0.0277355636656284,0.0045921551063656,-0.013972726650536,-0.0835168212652206
0.4782966308593757,0.0163841485679149,0.1090202005587518,-0.0280061973005533,0.0002922108396887,-0.0150826908648014,-0.0957887023687362
0.48826074218749227,0.0001170139757916,0.1057686514168977,0.0473977109909057,-0.0059968442656099,-0.0076410216279327,-0.1011850535869598
0.4982243652343783,-0.0105292485272511,0.062305941787362,0.1153308450102806,-0.0080231511965394,0.0064046345651149,-0.1047315746545791
0.5081894531249986,-0.0003275514539331,-0.0138997844062745,0.1059644662499427,-0.0153995752334594,0.0124460160732269,-0.104155533015728
0.5181535644531152,0.0241043310238048,-0.0680976769313216,0.0309884279817342,-0.0170077700167894,0.0006838163826614,-0.1013038158416748
0.5281184082031416,0.053075683562085,-0.0827909498028457,-0.0230582195043563,-0.0228134617209434,-0.0133925871923565,-0.0967884287238121
0.5380827636718521,0.0662003919426351,-0.0662989569462835,0.0058194999337196,-0.0258089862763881,-0.0173768922686576,-0.0919439047574997
0.5480466308593748,0.0793107064716517,-0.0493809937626123,0.0698982966125011,-0.0293014571070671,-0.0117528308182954,-0.0848135501146316
0.5580117187499951,0.1041566131103783,-0.0111022626422345,0.0952086789578199,-0.0408451929688453,-0.0064105587080121,-0.0777942463755607
0.5679755859375035,0.1287745927447453,-0.0116768476597964,0.0930325039625167,-0.0503643974661827,-0.0117315538227558,-0.0763566717505455
0.5779406738281381,0.1375781499905511,-0.1051325454704463,0.0979267057448625,-0.055770605802536,-0.008647664450109,-0.0705394968390464
0.5879045410156181,0.1425687613520771,-0.1981789318278431,0.1404734695732593,-0.0486304052174091,0.0077566094696521,-0.0629771873354911
0.5978686523437347,0.1136119122631847,-0.1786876110248267,0.0985503906011581,-0.0433087944984436,0.0113222543150186,-0.0582085475325584
0.6078334960937326,0.0830075151629746,-0.1273741878949105,-0.015858078867197,-0.038090594112873,0.0085333911702036,-0.0507682040333747
0.617797363281241,0.0912863909475505,-0.0639595542132854,-0.053577860930562,-0.0248728841543197,0.0132688991725444,-0.0400466173887252
0.6277624511718756,0.1267110478110611,0.0181290925391018,-0.1157692364275455,-0.0152913648635149,0.0049126991070806,-0.0293449703603982
0.6377265624999922,0.1625648898720741,0.0298835354797542,-0.1946592332690954,-0.0072585539892315,-0.0129088955000042,-0.0226023346185684
0.6476906738281372,0.1658539945453405,-0.0062320262573659,-0.1695072563558816,0.0045331241562962,-0.0238337144255638,-0.019244085997343
0.6576555175781209,0.1386122057460248,-0.0596907908529043,-0.0524742836028337,0.0070662321522831,-0.0172976814210414,-0.0110072046518325
0.6676196289062517,0.1037362322738394,-0.0926541721694171,0.0501993244081735,0.0118932118639349,-0.0066184075549244,-0.0093685612082481
0.6775844726562639,0.0680960329635068,-0.1085933534488081,0.0601508095800876,0.0145751917734742,-0.008343243971467,-0.0094548501074314
0.6875485839843805,0.0226236640119925,-0.0538353428229689,0.0189426008790731,0.0097114602103829,-0.0119904438033699,-0.0070319068618118
0.6975124511718747,0.013325345519185,0.0007103402264416,0.015593290451169,0.0011242786422371,-0.0074920263141393,-0.0103390095755457
0.707477539062495,0.012901822877489,0.0315188815966248,0.0544382771521806,-0.0087019875645637,-0.0037638668436557,-0.0154661266133189
0.7174416503906116,0.0027319822471588,0.0479271416924893,0.0741740742355585,-0.0182546637952327,0.0019240604015067,-0.0181487500667572
0.7274067382812603,0.0147907418966293,0.0179812085010111,0.0770136815756559,-0.0290204919874668,0.0036753551103174,-0.021945621818304
0.737370361328118,0.022518851930648,-0.0122923492096364,0.0484662170052528,-0.0339646525681018,-0.0047087888233363,-0.0220271255820989
0.747334472656263,0.0266167157035321,-0.0507761013828217,0.0258382056117057,-0.0514584258198738,-0.0118918661028146,-0.0268889907747507
0.7572995605468549,-0.0060538932114839,-0.0300163680791854,0.1283370415776968,-0.052896000444889,0.0091268457472324,-0.0213759690523147
0.7672636718749999,0.0176828831415623,-0.0197355048224329,0.1990606830984354,-0.0532800257205963,0.0237143114209175,-0.0201266817748546
0.7772285156249978,0.0431551049850881,-0.0354686421357095,0.0528507156997919,-0.0432115010917186,0.0160287953913211,-0.0123095139861106
0.7871926269531428,0.057736368849501,-0.0284672389410436,-0.0887245776355266,-0.0179876387119293,0.00302245025523,-0.0076351324096322
0.7971567382812594,0.0367642349041998,0.0116055359892547,-0.1973497875273227,0.005489726550877,-0.0136580038815736,-0.0011276928707957
0.8071215820312574,0.0284518952414393,0.0650137394413351,-0.2070242093235254,0.0269556045532226,-0.0160026494413614,0.0051270071417093
0.8170854492187374,0.0090653134545311,0.0703127226322889,-0.1732148787021636,0.0464656613767147,-0.0222233012318611,0.0120973233133554
0.8270505371093719,0.0075468717155978,0.0331464827984571,-0.1366144560575485,0.0591984987258911,-0.0315952338278293,0.0125063844025135
0.8370146484375027,-0.0092472824253141,-0.0011830723047256,-0.0886836611032485,0.0565587729215621,-0.0350996851921081,0.0123354103416204
0.8469782714843745,-0.0169639577498659,0.0108750297576189,0.0015559972703456,0.051624733954668,-0.0344959497451782,0.0054125227034091
0.8569436035156173,-0.0403692371262237,0.0312730901420116,0.1188140109509229,0.0448768138885498,-0.0327597819268703,-0.00368273537606
0.8669077148437339,-0.0620713293138891,0.0423705304786562,0.2244260105013847,0.0302022621035575,-0.0190050862729549,-0.0129755698144435
0.8768725585937318,-0.0602253726536408,0.0138142980799078,0.2849871544480323,0.0225183367729187,0.0004473074804991,-0.0178565848618745
0.8868366699218768,-0.0228656195417046,0.0166296477615833,0.2150999637514352,0.0183379724621772,0.0007727455813437,-0.025676691904664
0.896800537109371,0.0178746428539976,0.0093602412804961,0.0707616354435682,0.0088428230956196,-0.0123194064944982,-0.0341516882181167
0.9067656249999914,0.0157827486086636,-0.0035571079596877,-0.0005102876096963,0.0078981993719935,-0.0278392434120178,-0.0379317849874496
0.9167294921874998,-0.0042946649866178,0.0038838556960225,0.0016062661528587,0.0066022183746099,-0.0237797163426876,-0.0438386648893356
0.9266945800781201,-0.0425762821838259,0.0164385091036558,0.0668020841628313,0.0044314749538898,-0.0111917508766055,-0.0469151474535465
0.9366584472656143,-0.0772839498843997,0.0200067229792475,0.0894166515529155,-0.0008865850977599,-0.0033218746539205,-0.0482102259993553
0.9466225585937309,-0.0577812309045344,0.0202037068560719,0.0490489853292703,-0.0014237449504435,0.0003889740910381,-0.0512531511485576
0.9565876464843797,-0.0232414671167731,0.0337318814709782,-0.0130243167459964,0.001167413778603,-0.0051638316363096,-0.0543389953672885
0.9665517578124962,0.0105185079375281,0.0058915422566235,-0.0886485897898674,0.0095435874536633,-0.0218823589384555,-0.0525967553257942
0.9765166015624942,0.0372244362944737,-0.049715340283513,-0.1092167460441589,0.0106883933767676,-0.0374236926436424,-0.0584700852632522
0.9864804687500026,0.0011679843334481,-0.0639648149102926,-0.0428688353896141,0.0045719109475612,-0.0366945192217826,-0.0600847601890563
0.9964445800781192,-0.0602034896153956,-0.0492341326378285,0.0931757118254899,-0.0050547900609672,-0.0245623458176851,-0.0683168321847915
1.0064096679687538,-0.1136510752297937,0.0041276013240218,0.1402116037666797,-0.0173407513648271,-0.0190064590424299,-0.0736487433314323
1.0163735351562622,-0.1340577207794412,0.0401167602024972,0.117623924383521,-0.0187731813639402,-0.011700632981956,-0.0801421031355857
1.026338623046854,-0.1137200488127768,0.0393191800840199,0.061686933106184,-0.021433413028717,-0.0149627393111586,-0.0805471688508987
1.036302734374999,-0.0647310135098174,0.0175590375661849,-0.0066103580504655,-0.0093032456934452,-0.0165241882205009,-0.0857075527310371
1.0462666015624933,-0.0444421856535598,0.0088242347076535,-0.0743576141089201,0.0034724697470664,-0.0265121068805456,-0.086799181997776
1.0562314453124912,-0.0370161638386547,-0.0245972656399011,-0.1160047987490892,0.0177953206002712,-0.0339872315526008,-0.0902894809842109
1.066195556640622,-0.0512399195022881,-0.0234101016819477,-0.1259329030454158,0.0258021168410778,-0.0456023439764976,-0.0940687730908393
1.0761606445312566,-0.071888264853321,0.013425152631849,-0.0725479343384504,0.0324698723852634,-0.0501845777034759,-0.1024188473820686
1.0861245117187366,-0.1268622197847813,0.0566194205835461,-0.0326741891115903,0.0308889187872409,-0.0507453046739101,-0.1100344508886337
1.0960883789062592,-0.171134857557714,0.1003305520161986,-0.0063169280618429,0.0226163379848003,-0.0511673763394355,-0.1319035589694976
1.106053710937502,-0.2035492997545749,0.1588856168374419,0.0037830256700515,0.0134721053764224,-0.0541013851761817,-0.1489200890064239
1.1160178222656185,-0.2157334393493831,0.220234696291387,0.0091430913984775,0.0064427824690938,-0.0565627664327621,-0.1667227894067764
1.1259826660156165,-0.2057018381459638,0.2544619600638747,0.0198731597274541,0.0008717151358723,-0.056647453457117,-0.184475690126419
1.135946533203139,-0.1907842915318906,0.2345024372272193,0.030140286719799,-0.0072655733674764,-0.0571323707699775,-0.2056076377630233
1.1459106445312415,-0.1743761410338804,0.2018845083475113,0.0445773928731679,-0.0120459478348493,-0.0581568889319896,-0.2246447056531906
1.1558754882812536,-0.1808128595504909,0.149273154361546,0.0856073223978281,-0.0205541271716356,-0.04862742125988,-0.2369064092636108
1.1658393554687336,-0.1677501470228657,0.0926755072183907,0.1157616376429796,-0.0207288302481174,-0.0401436537504196,-0.2404976934194564
1.1758044433593824,-0.1318330304672941,0.011387655454874,0.0887245776355266,-0.0161480121314525,-0.04029992967844,-0.245171770453453
1.1857687988281214,-0.0803011788137257,-0.0476313736163079,-0.0077805708736181,-0.0060727414675056,-0.0452326349914073,-0.2473675459623336
1.1957326660156156,-0.0472859211795032,-0.0497096411950886,-0.0909106895029544,0.0129541205242276,-0.0586657635867595,-0.2401866167783737
1.2056975097656135,0.0122129638304933,-0.035188802281022,-0.1661369031399488,0.0338141284883022,-0.0733989030122757,-0.2345457822084427
1.21566162109373,0.0481409671062603,-0.0168710553020238,-0.1920978583484888,0.0477291606366634,-0.0900546759366989,-0.2294367253780365
1.2256257324218751,0.0345297538504004,0.0128533440932631,-0.1495575242608785,0.0551636405289173,-0.0931378155946731,-0.2227559089660644
1.235590576171873,0.0051923079460859,-0.0170838212698698,-0.0425339043468236,0.0605578646063804,-0.0804028064012527,-0.2162945717573166
1.2455544433593815,-0.0171402276322245,-0.0763465959690511,0.0486310521781444,0.0635986626148223,-0.0733667388558387,-0.2094576954841613
1.2555195312500018,-0.0246118056219071,-0.1055130692206323,0.0354436538249254,0.0646449252963066,-0.0751453638076782,-0.2068153321743011
1.265483398437496,-0.0097163247091695,-0.1047789097271859,-0.0027156886994838,0.0657855570316314,-0.0848696306347847,-0.2001473009586334
1.2754477539062634,0.0085630264881998,-0.0920006766967475,-0.0023579613029956,0.0591990239918231,-0.0902030989527702,-0.1994730085134506
1.2854125976562614,-0.0113212026225402,-0.074313921097666,0.051876902231574,0.0519839897751808,-0.0855303183197975,-0.2020251154899597
1.295376708984378,-0.0386570994460955,-0.0386417192138731,0.0953507177770137,0.0419831201434135,-0.0830776989459991,-0.2068475186824798
1.305341552734376,-0.0582005157625302,0.0182692316621541,0.1020277113229036,0.0312047712504863,-0.0770855844020843,-0.2130654752254486
1.3153056640624925,-0.0682466934805735,0.0364155675970017,0.0497165093272924,0.0282617937773466,-0.0808198824524879,-0.2214680761098861
1.325269531250001,-0.0548790066570043,0.0604071224287152,-0.0080067808449268,0.0236651767045259,-0.0902695804834365,-0.22426438331604
1.3352343749999989,-0.0382793521748855,0.0560633941359818,-0.0291045139312744,0.0226680003106594,-0.0970120877027511,-0.2324243038892746
1.3451984863281155,-0.0559729028409346,0.060928662084788,0.0024403788894414,0.0227196663618087,-0.0950227081775665,-0.2394609004259109
1.3551638183593724,-0.0653124666595831,0.0900878288127481,0.0168529351234436,0.0179239362478256,-0.0903965607285499,-0.2453659623861313
1.3651276855468524,-0.0665980860233306,0.1027700541228055,-0.002428103929758,0.0085943518206477,-0.0938693284988403,-0.2526595592498779
1.375091552734375,-0.0686839158540591,0.0854587077073752,0.0055751697838306,0.0003669569268822,-0.0906633883714675,-0.2582106292247772
1.3850566406249953,-0.0585871769925579,0.080028207091242,0.0400280590057373,-0.0049122273921966,-0.0845927149057388,-0.2634655833244324
1.3950207519531403,-0.0372517626928165,0.0402769192002713,0.055056701311469,-0.0024330904707312,-0.0829601883888244,-0.2624165415763855
1.4049853515625017,-0.0143325498003512,-0.0220483118094503,0.009274608823657,6.6552311182e-05,-0.0873836949467659,-0.2615289092063904
1.4149494628906183,0.0195291685953736,-0.0711931587286293,-0.0394043741494417,0.0050746323540806,-0.0890325084328651,-0.2596039474010467
1.4249135742187349,0.0474939379069954,-0.0247790519475936,-0.0731301181405782,0.0031552920117974,-0.1035882830619812,-0.2569125592708587
1.4348786621093836,0.0265617341132834,0.0327631825692951,-0.0344698403567075,0.0114995026960968,-0.1051919758319854,-0.2564577460289001
1.4448425292968778,-0.0104773722095415,0.0456755633734166,0.0454869089335203,0.0160551071166992,-0.0950895473361015,-0.2554332017898559
1.4548068847656168,-0.0187306386288255,-0.0113134211748838,0.0642617520302534,0.0194296017289161,-0.086798645555973,-0.2535604536533355
1.4647709960937334,0.0201871575800701,-0.0454003996938467,-0.0009013327538967,0.026907492429018,-0.0954307541251182,-0.2525729537010193
1.4747348632812418,0.0622588512426242,-0.0439274045318365,-0.0771282478660345,0.040064126253128,-0.1039880812168121,-0.2478716820478439
1.4846997070312398,0.0746490348035469,-0.0059435647048056,-0.1075637181401252,0.0468919351696968,-0.124468594789505,-0.2416907548904419
1.4946638183593706,0.0711514019461348,0.0509931051343679,-0.1095160212516784,0.0406128242611885,-0.1390427947044372,-0.2485891729593277
1.5046291503906133,-0.0068242930620908,0.0728346423253417,0.0350286432832479,0.0363517664372921,-0.1289717853069305,-0.2472980767488479
1.5145927734374993,-0.0422199064942076,0.1488185424618422,0.172110132330656,0.0275380350649356,-0.1095150113105773,-0.253815084695816
1.524556884765616,-0.0484490466747432,0.2008512197770178,0.1673041933536529,0.0199970286339521,-0.1015606820583343,-0.2655217945575714
1.5345219726562505,-0.0385953958541154,0.1462764567635953,0.1252022506833076,0.0128199001774191,-0.0970022603869438,-0.275230348110199
1.5444860839843813,-0.0014911153405904,0.0941170843288302,0.103780107948184,0.0021856315433979,-0.0959463194012641,-0.281729519367218
1.5544506835937426,0.0161766798296943,0.0691603377267718,0.0591857639402151,-0.0039984034374356,-0.1000237166881561,-0.2872233390808105
1.5644147949218734,0.0222929342202842,0.0052310325212776,-0.0024269348859786,-0.0144702196121215,-0.1049199402332305,-0.2929874956607818
1.57437890624999,-0.0008671747559681,-0.0191579971954226,0.0002285480588674,-0.0232187062501907,-0.100690022110939,-0.2986627221107483
1.5843439941406103,-0.01441182558164,0.0003469137415289,0.0254044903695583,-0.039328433573246,-0.0973946303129196,-0.2990539371967315
1.5943078613281187,-0.0241334109878167,0.0311919877298176,0.0436339745432138,-0.0476292371749877,-0.0876543074846267,-0.2960419356822967
1.6042729492187533,0.0119035325551405,0.0356603653155267,-0.0005763385832309,-0.056331917643547,-0.0850787609815597,-0.2914383709430694
1.6142370605468557,0.035649040203914,0.0234349438622593,-0.0747410604685545,-0.0578397884964942,-0.1020237877964973,-0.2828277945518493
1.6242006835937417,0.0665338616807013,-0.0246560100898146,-0.0589917026728391,-0.0643530860543251,-0.1032879874110221,-0.2783350348472595
1.6341657714843763,0.0649689139189198,-0.0717072457306087,0.012014262920618,-0.0658552944660186,-0.0928292199969291,-0.2727821171283722
1.6441298828124928,0.0677060837978497,-0.1185039220884442,0.0821563051611185,-0.0691301822662353,-0.080823428928852,-0.2626945972442627
1.6540949707031416,0.0928383330972865,-0.1421241593897342,0.1123942070364952,-0.06161829829216,-0.073734275996685,-0.2540901899337768
1.6640590820312582,0.1032893287565559,-0.1445380886636674,0.0928928032308816,-0.0515060052275657,-0.0694612339138984,-0.2447683364152908
1.6740229492187524,0.0905233341531828,-0.1301974286220967,0.0268342309117317,-0.0462247803807258,-0.065446451306343,-0.2343111485242843
1.6839880371093727,0.0952764834970235,-0.0955836497500538,-0.0517173277556896,-0.0311134718358516,-0.0725879818201065,-0.2229836583137512
1.6939519042968527,0.1253780091090127,-0.039964199989289,-0.0916939488351345,-0.0122374249622225,-0.0776094868779182,-0.2115059494972229
1.7039169921875015,0.154872691401653,-0.0120052028313279,-0.1070598602712154,-0.003076150547713,-0.0843217223882675,-0.2055649757385254
1.7138808593749957,0.1463772502569481,-0.0083062021829187,-0.0702279669582843,0.0050576711073517,-0.0789806842803955,-0.2044222354888916
1.7238449707031407,0.1102030171351507,-0.026791706944257,0.0161140994548797,0.0096891745924949,-0.0718556642532348,-0.2000272274017334
1.7338098144531386,0.0909197495922446,-0.0233142400920391,0.0521703322201967,0.0133880600333213,-0.0631176978349685,-0.1950494349002838
1.743773925781241,0.0885602539192885,-0.0271250305518507,0.0477601145625114,0.0146794263273477,-0.056902676820755,-0.1923178285360336
1.7537380371093718,0.0936355113569647,-0.03825593476668,0.0245960965961217,0.0185370855033397,-0.0558623969554901,-0.1866842657327652
1.7637028808593698,0.1025304366806521,-0.0398201153434813,-0.0046118777096271,0.019861739128828,-0.0573282018303871,-0.1863180845975875
1.7736669921875006,0.1195144143052399,-0.0273246447771787,-0.0002677110254764,0.0177945047616958,-0.0551004149019718,-0.1814290285110473
1.783632080078121,0.1428332209745421,-7.306523621082305e-07,0.0381751246154308,0.0138098839670419,-0.047350350767374,-0.1836956441402435
1.793595947265615,0.146203902984038,0.0367857160836458,0.0482546200811862,0.0120492670685052,-0.0440336391329765,-0.182721734046936
1.8035598144531377,0.1487340790487825,0.0363064081341028,0.0295475815236568,0.006443846039474,-0.0437116622924804,-0.1796617656946182
1.8135249023437439,0.160712795731984,0.0553396099060773,0.0529483308553695,0.0042267693206667,-0.0333685278892517,-0.1781471967697143
1.8234887695312523,0.1856479515567421,0.0427399483129382,0.0606307020515203,0.0059152133762836,-0.0271425917744636,-0.1666130423545837
1.8334538574218726,0.2208833329258486,-0.0210832661695778,0.0245317991882562,0.0101467100903391,-0.0285580605268478,-0.1527867168188095
1.8434179687500034,0.2539729344379157,-0.0683857000924646,-0.0122837275117635,0.0148136345669627,-0.0348601676523685,-0.1413798630237579
1.85338208007812,0.2505647699622437,-0.0591428015813231,-0.0289122062295675,0.0262437388300895,-0.0354258306324481,-0.1268947124481201
1.8633466796874956,0.2542217580998316,-0.0606369856618344,-0.0109849198728799,0.0335794165730476,-0.0327112711966037,-0.1154929101467132
1.8733107910156122,0.2582939029095694,-0.0566995000824332,-0.0133487263947725,0.0339503958821296,-0.0383821874856948,-0.1059169992804527
1.883275878906261,0.234510985859856,-0.0466109445273876,-0.0006903203517198,0.0264538656920194,-0.031858243048191,-0.1005009263753891
1.8932399902343775,0.195004283847101,0.0141737790420651,0.0959223801851272,0.0157196354120969,-0.0087648555636405,-0.0885598212480545
1.9032038574218575,0.2164020593259483,0.0545678948812186,0.1757569644004106,0.0040738992393016,0.0042705191299319,-0.0783423408865928
1.913168945312492,0.2665671892035752,0.0020016952112317,0.1253746846407651,-0.0097140837460756,0.009054641239345,-0.0699712410569191
1.9231330566406228,0.30178602129668,-0.0720785632610321,0.0811900904774665,-0.004098542034626,0.0096887396648526,-0.0582125820219516
1.9330979003906208,0.2944083321355283,-0.0987467899560928,0.0751379508316516,-0.0071691651828587,0.0122605636715888,-0.0455109067261219
1.943061767578115,0.286005245449394,-0.0958041606329381,0.0932826793313026,-0.0167152658104896,0.0107859708368778,-0.0334188230335712
1.95302587890626,0.2901548028768971,-0.1030778048977255,0.1198310790389776,-0.0252530071884393,0.0186853278428316,-0.0170997586101293
1.962990966796852,0.2806851829377934,-0.1026950891904532,0.1282838500857353,-0.035169817507267,0.0274101104587316,-0.0107332039624452
1.9729545898437522,0.2699395151808857,-0.0546045736297965,0.1295844112902879,-0.0457978770136833,0.0292811170220375,0.0027703784871846
1.9829199218749949,0.2686839256292209,-0.0271120249398052,0.1215133330374956,-0.0549234598875045,0.0335445702075958,0.0140368808060884
1.99288403320314,0.2746982174826786,-0.0145559102274477,0.0872083278536796,-0.0594737380743026,0.0438084416091442,0.027600597590208
2.0028481445312565,0.2999121902488172,-0.0321541107602417,0.0326110607475042,-0.0659055411815643,0.0478007867932319,0.0459069013595581
2.0128129882812402,0.3265500948708504,-0.0292982829377055,-0.046955227920413,-0.0637882351875305,0.0433161295950412,0.0650478824973106
2.0227768554687344,0.3219029266521334,-0.01872457421422,-0.0722141723394393,-0.0479594692587852,0.0324525609612464,0.0825320705771446
2.032741943359383,0.2845575673917308,-0.0406578813418746,-0.028633389288187,-0.0418618135154247,0.0317414551973342,0.0953620821237564
2.0427058105468774,0.2478045114686712,-0.0756634360104799,0.0645113428771495,-0.0393472574651241,0.0514765456318855,0.1092605888843536
2.0526696777343716,0.2605877860004082,-0.1199342471525072,0.1042681837260723,-0.038542091846466,0.0603091046214103,0.1207673028111457
2.062634765624992,0.253918646967411,-0.1107837030999362,0.0610983195632696,-0.0383141264319419,0.0538581274449825,0.1294572055339813
2.072599121093731,0.2403462678845971,-0.076297349999845,0.0031897359520196,-0.0414758287370204,0.0496809184551239,0.1417509019374847
2.082563964843743,0.2289595988104119,-0.0651541708253324,0.0209013337314128,-0.0457659177482128,0.0503520369529724,0.153269350528717
2.092528076171874,0.1975684717793017,-0.0937463513202965,0.0704582685828209,-0.0445303916931152,0.0583023205399513,0.1680983304977417
2.1024919433593823,0.1775944454932585,-0.0926874899171292,0.0691278967618942,-0.0418262109160423,0.0601755864918231,0.1813803166151046
2.1124567871093802,0.2075724908560514,-0.0349466640882194,0.045604982355237,-0.040681853890419,0.0571379736065864,0.1974250823259353
2.122420898437497,0.2521216074828058,-0.0216505446635186,-0.0087695819109678,-0.0384581163525581,0.0467324741184711,0.2010429799556732
2.132384765624991,0.24565394583866,-0.0499551403887569,-0.00113747959733,-0.0426152162253856,0.0459243468940258,0.2052963227033615
2.1423498535156114,0.1917152522390708,-0.0493536673642694,0.0580348403394222,-0.0462192744016647,0.0558803081512451,0.2100546061992645
2.1523137207031198,0.1475899505149573,-0.0545455369189381,0.0668617053955793,-0.0582532957196235,0.0613424442708492,0.2086303532123565
2.1622790527343767,0.1121395746883004,-0.046363984028995,0.0509065958946943,-0.067141592502594,0.0565386340022087,0.2139484286308288
2.1722429199218567,0.0874566400589421,-0.0652867111638188,0.0472317067742347,-0.0763205289840698,0.0598034635186195,0.2162009328603744
2.1822070312500017,0.0881964621081948,-0.0933607130035757,0.0703548082083463,-0.0833054706454277,0.0664017051458358,0.2195834219455719
2.1921718749999997,0.0954576487502083,-0.1280114628851413,0.0898281549632549,-0.0897575691342353,0.0728359222412109,0.2270954400300979
2.2021359863281162,0.0954585620656609,-0.142908733896166,0.0828290898561477,-0.0853585600852966,0.0739568471908569,0.2350359261035919
2.2121008300781426,0.0994008699506521,-0.1469077404044568,0.0375970324665307,-0.0818831473588943,0.0670550316572189,0.2465711086988449
2.2220646972656226,0.1141901140099391,-0.1043656527511775,-0.0243038356512784,-0.0782623142004013,0.0624022260308265,0.2544034719467163
2.232030029296851,0.1151058406153693,-0.0541207356356084,-0.0385468805372715,-0.07547178119421,0.0660429894924163,0.257538765668869
2.241994140624996,0.1183137332785874,0.0035194062978029,-0.0121393506050109,-0.0731503069400787,0.070929892361164,0.260971337556839
2.2519580078124903,0.1093332120306789,-0.0033843817412853,-0.0048497781187295,-0.0686460062861442,0.077053464949131,0.2654089629650116
2.2619228515625025,0.1035683283610269,-0.0211031399138271,-0.0183639242082834,-0.0566431432962417,0.0769112482666969,0.2694758772850036
2.271886962890619,0.1049430142477154,-0.015100830759108,-0.0772743783384561,-0.0464484617114067,0.0705746635794639,0.2725060284137726
2.281851806640617,0.1094005051132291,0.0130753162808716,-0.0916542013466358,-0.0312383510172367,0.0648853555321693,0.2765649557113647
2.2918156738281397,0.1056105747783556,0.0353036608323454,-0.0434504346698522,-0.0202541556209325,0.0753891766071319,0.2779990434646606
2.3017797851562563,0.0862600506855174,0.0299450564086437,-0.0179904147207736,-0.0078182592988014,0.0844204872846603,0.2816832661628723
2.311745117187499,0.101820936704427,0.0504226117700338,-0.0595505055993795,0.0097547098994255,0.0804216265678405,0.2866609990596771
2.321708984374993,0.1097902716157957,0.0644680882573127,-0.0893833338052034,0.0204771272838115,0.0766702964901924,0.2890131175518036
2.331673828124991,0.1338984750971198,0.0658748863153159,-0.0548667316973209,0.0266496315598487,0.0717055276036262,0.2910251319408417
2.341637939453136,0.1342518551120534,0.0573510958589613,-0.0251794494420289,0.0261063463985919,0.0713779553771019,0.2909556329250335
2.3516020507812527,0.1209615809062495,0.0409366982832551,0.0252887550354003,0.0277324263006448,0.0762057453393936,0.2833462357521057
2.3615668945312507,0.1146034075185656,0.0568437308587133,0.0681195965021848,0.0238529983907938,0.0853276029229164,0.2862559854984283
2.3715307617187307,0.1234537995807826,0.0913524419210851,0.0737000269830226,0.0232704356312751,0.0930911526083946,0.2859408855438232
2.3814958496093794,0.1389883455820381,0.0846415461055934,0.0335223303735256,0.018062625080347,0.0899102762341499,0.2945679426193237
2.391459960937496,0.1742018804455176,0.0415890247121453,-0.0155313311308622,0.0126822451129555,0.0893800258636474,0.306229680776596
2.4014250488281164,0.1999451743153855,0.0143180098183453,-0.0198842656433582,0.0091844489797949,0.0845330730080604,0.3207241892814636
2.4113889160156106,0.1909398108871653,-0.0167189334802329,0.0082961191803216,0.006117989309132,0.0813293904066085,0.3309214115142822
2.4213530273437414,0.2039654062747955,-0.0599910889737308,0.0277168589651584,0.0048764236271381,0.0848077461123466,0.3469102382659912
2.4313178710937535,0.2055989988259971,-0.0650453036233782,0.0389162983715534,0.0006935922428965,0.0896361097693443,0.3642996251583099
2.441281982421856,0.2070538007441908,-0.0583648029461503,0.0203828628152608,-0.0027232430875301,0.0899650081992149,0.3820943534374237
2.451246826171854,0.2309053625833243,-0.0443438763782382,0.0078390230625867,-0.0118196792900562,0.0845993906259536,0.3955723643302917
2.461210937499999,0.2334439776828512,-0.0524311751134693,0.013825111734867,-0.0149291865527629,0.0796922445297241,0.4092905819416046
2.471176025390619,0.1969537739470601,-0.0442398314818739,0.0887871214777231,-0.0248223096132278,0.0936152786016464,0.4257569015026092
2.481140136718736,0.1839317587560042,-0.074955433871597,0.1520095935881137,-0.0323385521769523,0.1029496565461158,0.4381459355354309
2.4911040039062584,0.1616056894510984,-0.0850740923039615,0.1397492469519376,-0.032911542803049,0.1027726829051971,0.4507280588150024
2.5010688476562564,0.160729418073222,-0.0988248236283659,0.0932101986169815,-0.0318033993244171,0.0946556329727172,0.4649080634117126
2.5110332031249953,0.1611139604113995,-0.1090738304421305,0.1063303769528865,-0.0282529816031456,0.0943649336695671,0.4721017777919769
2.5209980468749933,0.1394906690809875,-0.0716471861064434,0.1317921504676342,-0.0234326608479022,0.0959151610732078,0.4744282960891723
2.5309619140625017,0.0981948551617562,-0.0234540869541466,0.1539133813828229,-0.0231069400906562,0.1048633605241775,0.4744813144207001
2.5409270019531363,0.0684772508334368,0.0434817065909504,0.1255348436385393,-0.0235149357467889,0.1077592819929122,0.4698655307292938
2.550891113281253,0.0472409495266154,0.1254144321292638,0.0693137747228145,-0.0189850181341171,0.1077045574784278,0.4639247953891754
2.560854980468733,0.0373598627097904,0.1580219857454299,0.0209521871358156,-0.014090396463871,0.1032658666372299,0.4634984135627746
2.570819824218731,0.0507594790415838,0.1518019421868026,-0.0484983657091856,-0.0043404689058661,0.0940019339323043,0.4602489173412323
2.580783935546876,0.0749747596265748,0.1383472711995244,-0.1324503221154213,-0.0078814076259732,0.08078333735466,0.4574717879295349
2.590749023437496,0.0763808270322159,0.1430392284080386,-0.0963818143904209,-0.0044742720201611,0.0827360823750495,0.446042001247406
2.6007131347656127,0.0192823907600715,0.1286709497071802,0.0122936643838882,0.0038715424016118,0.0926994979381561,0.4393172562122345
2.6106782226562615,-0.0119817854231223,0.12269874342978,0.0765408033668994,0.0047457562759518,0.0971204489469528,0.4344564378261566
2.6206420898437415,0.0064477878998965,0.0835972977496683,0.0267073896616697,0.0082685854285955,0.1007870882749557,0.4292073547840118
2.6306069335937536,0.0171165544956922,0.0505683038510382,-0.0075298109829425,0.0118240611627697,0.1019025221467018,0.4285216629505157
2.640571044921856,0.0154424107383936,0.0102303021132946,-0.0339350028276443,0.0060972003266215,0.0879062786698341,0.4241412878036499
2.6505349121093786,-0.0212692902609705,0.050599429641664,0.0148538702607154,-0.0162330698221921,0.1019762232899665,0.4121013581752777
2.660499999999999,-0.1005686350883916,0.1135259875454008,0.2012824508011341,-0.0324509218335151,0.1214929297566413,0.4214977920055389
2.6704641113281156,-0.0589531607607379,0.0933497532181441,0.2296159803599119,-0.0506806597113609,0.1478620916604995,0.410120278596878
2.680429199218736,-0.1078381876999512,0.1399300103463232,0.2711199571371078,-0.0362721607089042,0.1724364012479782,0.4286065995693207
2.6903930664062585,0.0450138845942914,-0.0050268882513046,0.0630026918798685,-0.009573521092534,0.1568937450647354,0.4483579397201538
2.7003579101562565,0.1909906277589499,-0.0771663879193365,-0.25334230838418,0.0065572457388043,0.0854845494031906,0.449574202299118
2.710322021484373,0.172348909522593,-0.015558657529205,-0.3275128754884004,0.0144121209159493,0.047387346625328,0.4502964615821838
2.720286865234371,0.117981907508336,0.0467049064211547,-0.0594423690497875,0.0084525002166628,0.0757936909794807,0.455889880657196
2.730250732421851,0.0705733097972348,0.0243067582607269,0.1850461862713098,0.007064058445394,0.1084971725940704,0.4625062644481659
2.7402150878906184,0.0632235680889338,-0.0281501358158886,0.102205990499258,0.0067428806796669,0.1032038778066635,0.4656762480735779
2.750180175781253,0.013745397562161,0.026718933968991,-0.0598439355880022,0.0063795456662774,0.0828856378793716,0.4657438695430755
2.760144042968733,-0.0239568488445132,0.083461688671261,-0.0854588538378477,0.0040109297260642,0.0698955357074737,0.4703490138053894
2.7701091308593817,-0.0323130641816183,0.1241974575549364,-0.0008265139520168,-0.0032686726190149,0.0853526443243026,0.4743538498878479
2.780072998046876,-0.0243770104853436,0.1100879759207367,0.0524473955959081,-0.0131412772461771,0.0946899503469467,0.4735927283763885
2.790037841796874,-0.0198359329896047,0.0414696361161768,0.0371697469651699,-0.0176241509616374,0.0968763828277587,0.4724451899528503
2.8000019531249905,-0.0230025803269818,-0.0195975576564669,0.0308984116107225,-0.0180278867483139,0.0919740349054336,0.4696829617023468
2.8099672851562616,-0.0445219363588839,-0.0392995986007154,0.0379652812570333,-0.0188199002295732,0.0906776040792465,0.4616546630859375
2.8199311523437416,-0.0724808239189907,-0.0318885916918516,0.040080665975809,-0.0142720211297273,0.0833909288048744,0.459484189748764
2.8298959960937538,-0.0754623970130458,-0.0279001065775752,0.0160135616898536,-0.0167268756777048,0.0728495568037033,0.4562944769859314
2.839860107421856,-0.0734682275211438,-0.0163283267274498,-0.0072644380450248,-0.0239789299666881,0.0605271086096763,0.4470285475254059
2.8498239746093788,-0.0810325983608141,0.0187241358228027,0.018196750947833,-0.0372219197452068,0.0529609583318233,0.43860524892807
2.8597888183593767,-0.0867507202792912,0.1148499296255409,0.0531482373416423,-0.0453091412782669,0.0568339936435222,0.4302943050861358
2.8697529296874933,-0.0821499484855681,0.2267288806162774,0.0837228238254785,-0.0518700443208217,0.0591647252440452,0.4203876256942749
2.879718261718736,-0.0726094552673399,0.24872180897668,0.0562654925793409,-0.0466276109218597,0.0741215720772743,0.4115525782108307
2.8896823730468526,-0.0868825664980336,0.189476131542772,-0.0048036008894443,-0.0357267931103706,0.0632292851805687,0.4155020713806152
2.8996469726562566,-0.0595730827573686,0.1558731371484696,-0.1705669945418834,-0.0238432344049215,0.0360069796442985,0.3995808959007263
2.909611083984373,-0.1514980638694018,0.1204053717955946,-0.155657010179758,-0.0008147037588059,0.0245797056704759,0.4050898551940918
2.919575927734371,-0.1123553728634491,0.0600800824314355,-0.1227250469148159,0.0146308317780494,0.0283542033284902,0.3908528685569763
2.929540039062502,-0.185467005499266,0.0550330281749367,-0.1197568447589874,0.0218064039945602,0.0267278756946325,0.3749248385429382
2.9395048828125,-0.1634334894001483,-0.0149760353356599,-0.0157633863210678,0.0233062971383333,0.0428256206214427,0.3611403405666351
2.9494689941406165,-0.1900102749520912,0.0199075003884732,0.0868266350597143,0.0203743278980255,0.0658133178949356,0.3594534695148468
2.959434082031251,-0.1151494240287691,0.0329211496099829,0.100993692100048,0.0119954915717244,0.0659717768430709,0.3480940461158752
2.969398193359382,-0.1065569157177582,0.0818219586402177,0.0396206472486257,0.0082328412681818,0.0651743039488792,0.3335766494274139
2.979363281250002,-0.126386638162285,0.0528302574336528,0.0466606288880109,-0.0081264246255159,0.0588327832520008,0.3198757469654083
2.989326904296874,-0.1258544309817254,0.0237337806783616,0.0722498281747102,-0.0222314000129699,0.0635445266962051,0.3047734797000885
2.9992910156249906,-0.1865574676170945,0.0201209970086812,0.1597743823707103,-0.0304387304931879,0.0935327857732772,0.2946513593196869
3.009256103515611,-0.1894024817846715,0.0314054843500256,0.1618289768129587,-0.0381220988929271,0.0948578417301178,0.2868852615356445
3.0192199707031193,-0.1033567679695785,0.025422756678611,0.0265185890913009,-0.0319717936217784,0.0783379971981048,0.2779724597930908
3.029185058593754,-0.0908674348831176,0.0232810684747993,-0.1044511390775442,-0.0265682637691497,0.0602082945406436,0.2745023965835571
3.0391491699218562,-0.0904521686131134,0.0253299638286232,-0.0903179843068122,-0.0237676836550235,0.0553022176027298,0.2669347524642944
3.049114257812491,-0.1084174488926306,0.091207188231498,-0.0297334594845771,-0.018688540905714,0.0596954189240932,0.2565838992595672
3.059077880859377,-0.1142281079327687,0.0941775823444128,-0.0238595990151166,-0.0116005381569266,0.0567046888172626,0.2452947497367859
3.069042968749997,-0.1142176230713725,0.0716939478576183,-0.0386146850764751,-0.0053294007666409,0.0564501695334911,0.2347206771373748
3.079007080078142,-0.1406061925748363,0.0792806035943329,-0.0280950446277856,6.21685758233e-05,0.0597540847957134,0.2248749732971191
3.08897192382814,-0.1609652361230924,0.0985604736037552,-0.0143844991832971,0.0067040929570794,0.0684932544827461,0.2153078317642212
3.09893579101562,-0.1520243162332102,0.1118926872551441,-0.0072562547385692,0.011792060919106,0.0732387378811836,0.2074581682682037
3.108901123046877,-0.1302166447792202,0.0795225956566631,-0.0456675261974334,0.008570852689445,0.0619656853377819,0.1940113008022308
3.1188649902343712,-0.1086463988102972,0.0613164923585951,-0.0824129102706909,0.0136042265221476,0.0568417608737945,0.1851666867733001
3.1288300781249916,-0.0990327672906219,0.0706155049711465,0.006204699859023,0.0121804866939783,0.060146514326334,0.1777791231870651
3.1387941894531366,-0.0714901323812082,0.0537776212863624,0.0504921698749065,0.0024290569126605,0.0646421909332275,0.1730887591838836
3.148758789062498,-0.0410895507574081,-0.0316838628999888,0.0636480040460825,-0.0043988926336169,0.0693939328193664,0.1646379977464676
3.1587229003906145,-0.0469242847928777,-0.053703679267317,0.0610959814757108,-0.0138893332332372,0.0617938004434108,0.1591617465019226
3.1686882324218573,-0.0611087678920477,0.0294761237226426,0.0652986938625574,-0.0147383287549018,0.0585268884897232,0.1531813442707061
3.1786523437500023,-0.0697946170423179,0.0977574866577982,0.0890413884997367,-0.0087574012577533,0.0551784969866275,0.1555571556091308
3.188616943359378,-0.0017206863127648,0.0989493267908692,0.0470972667396068,0.0034021688625216,0.0491737872362136,0.1538261622190475
3.1985810546874944,0.0561104116154834,0.1408216984890401,-0.0825461812615394,0.0080123674124479,0.0345820635557174,0.1528314650058746
3.2085461425781148,0.0977294661397114,0.1550575829818844,-0.0744084675133228,0.0112982494756579,0.0410739704966545,0.1505629867315292
3.218510009765623,0.0583283433932811,0.1017937564365565,0.1015033951878547,0.0176512189209461,0.0617379695177078,0.1508743166923523
3.228474853515621,0.037894809836708,0.0334409357003867,0.0684510204136371,0.0231373105198144,0.0625640973448753,0.145539715886116
3.238438964843752,-0.0274327447941526,-0.0375713135033845,-0.0211801506727933,0.0230741929262876,0.0491545498371124,0.1400783807039261
3.2484040527343723,-0.0822764244094491,-0.1189566342920064,0.0500274749726057,0.0285515617579221,0.055196963250637,0.1390480101108551
3.258368164062503,-0.1207322291297838,-0.0400263054400682,0.1178857901901006,0.0188893470913171,0.0623233169317245,0.1392445564270019
3.2683332519531376,-0.0920559870805591,0.0618375936232507,0.1100596266090869,0.0149405552074313,0.0666489675641059,0.1477406024932861
3.2782968749999952,0.0176202662341296,0.1860255526974797,0.0163689509987831,0.0262944102287292,0.055947583168745,0.1518109738826751
3.2882619628906156,0.1054059555843472,0.2691509951516985,-0.2419721885859966,0.0200576484203338,0.0301403943449258,0.1477571278810501
3.298226074218732,0.1028671212891116,0.2432226270385086,-0.2018131966769695,0.030132919549942,0.0356438159942626,0.1346285343170166
3.308191162109381,0.0322051833603531,0.1828998218923807,-0.0951467196375131,0.0407857373356819,0.0493354573845863,0.128038227558136
3.318155029296875,-0.0248134291412308,0.1020313645847141,-0.0400146150022745,0.0554075576364994,0.0597201883792877,0.1197360903024673
3.3281201171874955,-0.0639375250445678,0.105064156409353,-0.0602320581227541,0.0794734805822372,0.0639586672186851,0.1233468949794769
3.338084228515612,0.0010592997945845,0.0667766574606299,-0.1557318289816379,0.1029372662305831,0.0437673777341842,0.1251991242170334
3.34804907226561,0.0404927904406562,0.0615716361634433,-0.2230272496193647,0.1281583160161972,0.0305966045707464,0.1204299479722976
3.3580129394531184,0.0181852066405117,0.0429978685967624,-0.2045639566898345,0.1427625566720962,0.0102639021351933,0.1277009099721908
3.367978027343753,0.0668446811955422,-0.0027872926309704,-0.1408744515895843,0.1342886835336685,0.0024876776151359,0.1158247888088226
3.3779418945312614,-0.0052763695003464,0.0331127266593277,0.1082493623167276,0.1043699458241462,0.0201971661299467,0.105596125125885
3.38790722656249,-0.0597614814689382,0.0345021351911127,0.3514332647800445,0.0749772638082504,0.0555223040282726,0.0960324481129646
3.3978710937499983,-0.0745887194510549,0.0232917359992861,0.4277385058254003,0.0481432527303695,0.070676751434803,0.0945927426218986
3.4078359374999962,-0.0255482462218031,-0.0318389073312282,0.3099439010500908,0.0160414092242717,0.0642832070589065,0.0886028483510017
3.4178000488281413,-0.0239954272892326,-0.0345073958881199,0.2024883194595575,-0.0139849334955215,0.0530947297811508,0.0768905282020568
3.427765136718733,-0.0255415972853079,-0.0515659365862607,0.2099158391118049,-0.0389854945242404,0.0609490759670734,0.0776231810450553
3.437728759765619,-0.0095241266053169,-0.0414056309692561,0.2177577847838401,-0.0571631640195846,0.0688248425722122,0.0807886123657226
3.447694091796876,0.0363030836658552,-0.0194242469161748,0.1291694007486105,-0.0723801255226135,0.0523149892687797,0.0748209580779075
3.4576545410156143,0.0026403949735686,0.0162066000439226,0.071782210662961,-0.0861968696117401,0.0440908819437027,0.0645416900515556
3.467619628906263,-0.0674237597251311,0.0436387968488037,0.0998351697146892,-0.0908790379762649,0.0499725528061389,0.0645946934819221
3.4775837402343797,-0.0866338159013539,0.0795639505803585,0.0934323169350624,-0.0995625406503677,0.0534969791769981,0.0581365302205085
3.487548828125,-0.1103974802613258,0.0909890154361724,0.0298638078659772,-0.1080974340438842,0.0549044199287891,0.04804577678442
3.497512695312494,-0.1480569835048168,0.0851288912311196,0.0261205296844244,-0.096740111708641,0.0604555122554302,0.0427319705486297
3.507477539062492,-0.1341239909486845,0.0619967297077178,0.0054068274796009,-0.0914072468876838,0.0565762221813201,0.0442036651074886
3.517441650390623,-0.0867885680716484,0.0719458767920732,-0.0952788215845823,-0.0848452150821685,0.0405115000903606,0.0423418506979942
3.5274067382812575,-0.0441703464422374,0.075114862217009,-0.1441103647708892,-0.0758341997861862,0.0231426656246185,0.0351512879133224
3.5373706054687375,-0.0493759522613137,0.0239098678976297,-0.0975263082504272,-0.0729747638106346,0.0131118698045611,0.0306007415056228
3.547335693359372,-0.0552391452062875,-0.0138620827443897,-0.0292868847608566,-0.0820372998714447,0.0096834581345319,0.0126191768795251
3.557299804687503,-0.1351226831298321,-0.0224698982223868,0.0980067852437496,-0.0889266282320022,0.0312926135957241,0.0001143040135502
3.567264648437501,-0.1771741377219557,-0.0485357751101255,0.1628612424701452,-0.1041887253522872,0.0470718368887901,-0.023926381021738
3.577228515624995,-0.2069367867683991,-0.0359279302105307,0.1732248155742883,-0.1180241107940673,0.0733987838029861,-0.051252543926239
3.5871936035156153,-0.2576570297781378,-0.0775736535459756,0.1910579939067363,-0.1214130893349647,0.1064599305391311,-0.0790212899446487
3.597157470703138,-0.2722688349112868,-0.091454294860363,0.1664092903405427,-0.1117234453558921,0.1373675167560577,-0.0824338644742965
3.6071228027343807,-0.2006211373481899,0.0396114410288631,0.0033902269601821,-0.0883481130003929,0.116205520927906,-0.0642705932259559
3.6170869140624973,-0.0057123132321983,0.1664724187046289,-0.332674203774333,-0.0498358756303787,0.0411643013358116,-0.0462748110294342
3.627051513671873,0.1167246374562382,0.2480066464446484,-0.6310609380215406,-0.0364822521805763,-0.0589868016541004,-0.060176782310009
3.6370156250000036,0.0398377971306443,0.1624197823129594,-0.4315694622904062,-0.0289437510073184,-0.0675497949123382,-0.0764284208416938
3.6469807128906098,-0.0882358442705124,-0.0056169630989432,0.1088590186476707,-0.0179614350199699,-0.0064717740751802,-0.081582985818386
3.656944580078118,-0.1636622566547244,-0.0899260623797774,0.271839503583312,-0.007675508968532,0.0288888812065124,-0.08018109947443
3.666909423828116,-0.1600982805628329,-0.0064646659694612,0.0135088853925466,0.0028061168268322,0.0114974696189165,-0.0810883715748786
3.676873779296855,-0.0899547770176082,0.0680012308195233,-0.1991501149475574,0.0170529633760452,-0.0140672791749238,-0.0847677960991859
3.686838623046853,-0.0167526896193623,0.0368799702383577,-0.2057172183781862,0.0382638126611709,-0.0211511552333831,-0.0865646675229072
3.696802734374998,-0.0065190995704382,-0.0663049482956528,-0.1512275032997131,0.0511311441659927,-0.0201540663838386,-0.0909160077571868
3.7067678222656184,-0.0319754662577062,-0.1282720135174691,-0.0987456209123134,0.0604454763233661,-0.0177522748708724,-0.0928403139114379
3.716731689453141,-0.0508206711769104,-0.1230420039094984,-0.0762479579001665,0.0721857547760009,-0.0227795224636793,-0.0928224697709083
3.726696533203139,-0.0655710810631513,-0.0899102802887558,-0.0595727174311876,0.0788669437170028,-0.031429149210453,-0.0908073708415031
3.7366618652343817,-0.056809317132458,-0.0310899886600673,0.0198334122389554,0.0821466147899627,-0.028086083009839,-0.0928137972950935
3.746625732421876,-0.0394806542560458,-0.0061839493319392,0.0650777445882558,0.0814292877912521,-0.025738276541233,-0.0999144837260246
3.756590576171874,-0.0035169220797717,0.0204119427792727,0.0659948594331741,0.0712869018316268,-0.0209057051688432,-0.1108105406165123
3.7665546874999905,-0.0213690243083983,0.0678666446544229,0.0873234786659479,0.0633859038352966,-0.0157472379505634,-0.1164953336119651
3.7765195312500026,0.0096782211884856,0.0730427321180701,0.0605173048049211,0.0532432571053504,-0.0185044091194868,-0.1201449260115623
3.786483642578119,0.0373049176521599,0.1080884726665914,0.0034130233138799,0.0445814281702041,-0.022540220990777,-0.1302337497472763
3.796448486328117,0.0091487174216657,0.0676696607775986,0.0349637613534927,0.0342832505702972,-0.0241088215261697,-0.1343462020158767
3.806412597656262,-0.0201450354713946,-0.0022298048786818,0.090126261126995,0.0300934296101331,-0.01411257032305,-0.1415330618619918
3.816377685546854,-0.0358767114799469,-0.0377099913217127,0.1353688399106264,0.0299325753003358,-0.0032018653582781,-0.137892261147499
3.826341796874999,-0.0048536505762487,-0.0158902275711298,0.0832166278690099,0.0421032980084419,-0.0108461696654558,-0.129993736743927
3.8363068847656194,0.0648841947775334,0.0177931385830044,-0.0455412694692611,0.0509034469723701,-0.0309253372251987,-0.1261526644229889
3.8462705078124912,0.0919352102451026,0.0342370545141398,-0.0946919616073369,0.0532619059085845,-0.0406266786158084,-0.1257238984107971
3.85623559570314,0.0696435911990702,0.0253933844536542,-0.0571609801143407,0.0518432408571243,-0.0413910076022148,-0.1244738101959228
3.8661997070312566,0.044922260788083,-0.0119726157359778,0.01471475405097,0.0460772588849067,-0.0402570888400077,-0.1250879764556884
3.876164794921877,0.0190782099574804,0.0132122405335307,0.0545166030853986,0.038309883326292,-0.0460617169737815,-0.1195233017206192
3.886128662109371,0.0195694275405257,0.026413959673047,0.0826315214574337,0.023167785257101,-0.0470796711742877,-0.1226141527295112
3.8960937499999915,0.0112567956168204,-0.019267302788794,0.1161409923493862,0.0146304881200194,-0.0321590453386306,-0.1221821829676628
3.9060585937500036,0.0140714877113699,-0.0600442804656922,0.133823364034295,0.0157067067921161,-0.0225731618702411,-0.1182727962732315
3.9160227050781202,0.0396127562031149,-0.0803267516463994,0.0794020380169153,0.0116339344531297,-0.0293293371796607,-0.115689530968666
3.9259877929687406,0.0441205890163779,-0.1055262209631502,0.0153156425535678,0.0133535768836736,-0.0419765599071979,-0.1152582019567489
3.9359514160156124,0.0387318817153573,-0.104068131109327,0.0175619601756334,0.0142569206655025,-0.0429858975112438,-0.1139894723892211
3.945916748046855,0.0394118998687714,-0.038833004002273,0.0580494533866643,0.0058256913907825,-0.0431353412568569,-0.1225698739290237
3.955880859375,0.0094314068205654,0.0260087398730218,0.1116536178022623,0.0006311959587037,-0.029533514752984,-0.1216170042753219
3.965845703124998,-0.0058483607020229,0.078236062977463,0.1130289978086948,-0.0028026704676449,-0.0246132928878068,-0.1306269615888595
3.9758095703124923,0.0253026374302804,0.0948565045192837,0.0081190090477466,-0.008054956793785,-0.0317494980990886,-0.1362108141183853
3.985774658203141,0.0404860319063067,0.0657616351991891,-0.0247568401157856,-0.0040477216243743,-0.037994559854269,-0.1423821300268173
3.9957387695312576,0.0275548002712428,0.0272540637589991,0.0228945533752441,0.0044642738066613,-0.0284702945500612,-0.1476607769727707
4.005703857421878,0.0165198307115584,-0.0272311212748289,0.0606874006748199,0.0181623250246047,-0.0241480264812707,-0.1563778072595596
4.015668945312498,0.027188889568299,-0.0340044148020446,0.0461164390087127,0.0327979922294616,-0.0272205155342817,-0.1640644818544387
4.02563256835937,0.0261234522938728,-0.0142024206146597,0.0340554143369197,0.0384017564356327,-0.0369359217584133,-0.1825313568115234
4.0355976562499905,0.0075596215993165,0.0303597746893763,0.0953349356859922,0.0315686166286468,-0.0250006988644599,-0.197244256734848
4.045561767578121,-0.0115671036750078,0.057776920055598,0.1804033289015293,0.0264699757099151,0.0023139822296798,-0.2108352184295654
4.055526367187497,-0.0210210145883262,0.1351753631651401,0.1792611731290817,0.0219311490654945,0.0195321179926395,-0.2279846370220184
4.065490478515613,-0.0282827492196112,0.2421618659391999,0.0506961680144071,0.0114851035177707,0.0211729668080806,-0.2510894238948822
4.075455810546856,-0.0433986314173787,0.2233522437900304,-0.0646159722954034,1.00755132734e-05,0.02451709844172,-0.2671402990818023
4.085419921875001,-0.0710614951729774,0.1823788667581975,-0.066354924917221,-0.0068952911533415,0.0341994427144527,-0.2777054905891418
4.095384765624999,-0.0617738076720386,0.1219036475293338,-0.0309708923250436,-0.0032507553696632,0.0535172149538993,-0.2687591314315796
4.105348632812493,-0.0096975834760814,-0.0117034434057772,-0.1190565875351429,0.0092403423041105,0.0505816154181957,-0.2548696100711822
4.115313476562491,0.0478787725061178,-0.1773795971661806,-0.2120569427937269,0.0273303966969251,0.0398032702505588,-0.2321717590093612
4.12527856445314,0.0594548632051795,-0.3205268159933388,-0.2759177128076553,0.0657069832086563,0.0247473213821649,-0.2008579075336456
4.135242675781257,0.0748839760705828,-0.4045864705577492,-0.3074158438771963,0.1090371459722518,-0.0021261044312268,-0.1725327968597412
4.14520751953124,0.0420064464066177,-0.3602347031340003,-0.3038292175620794,0.1378779709339141,-0.032397337257862,-0.1402747333049774
4.155171630859371,0.0217060742430388,-0.2489940500468015,-0.2452794134378433,0.1599443852901458,-0.05123121291399,-0.1141238287091255
4.1651367187499915,-0.0022954174607992,-0.115174339274317,-0.1728676726996898,0.1686397641897201,-0.0616492703557014,-0.0981452912092208
4.1751008300781365,-0.0446649250261485,-0.0044520109727978,-0.0736596949726343,0.16354301571846,-0.0619648545980453,-0.0862859711050987
4.18506567382812,-0.0689036595519632,0.0953382966868579,0.0327343948662281,0.1483947485685348,-0.0608027800917625,-0.080908291041851
4.195029541015614,-0.069519453362748,0.1202678630210459,0.1141167930454015,0.1215562149882316,-0.058283694088459,-0.0855062380433082
4.204994628906263,-0.0913091142360121,0.08766454718858,0.2309744092315435,0.0995490327477455,-0.0520351380109787,-0.0865144282579422
4.214959716796855,-0.1065815021697431,0.0732100515089929,0.2863818236768246,0.0700862184166908,-0.0450882837176322,-0.092206135392189
4.224923828125,-0.1321899906788021,0.0797946905963122,0.2962298484742641,0.0306482668966054,-0.0412874184548854,-0.0948578417301178
4.234888427734376,-0.1314197369586676,0.0696405224591493,0.3426227663367986,-0.004816249012947,-0.0223739128559827,-0.1048273891210556
4.244852539062492,-0.1356394735455512,0.1016957028895616,0.3684294077664613,-0.0332921855151653,-0.003704136935994,-0.108468621969223
4.254817626953141,-0.0798255241259932,0.1250436991207301,0.2829348980933427,-0.0563999004662036,0.0036123653408139,-0.1147438287734985
4.264781738281258,-0.0393615579210221,0.0941423649005591,0.1358206753313541,-0.0682843923568725,-0.0047933468595147,-0.1200428083539009
4.274746826171878,0.012766323396936,0.0672561115406453,-0.0120668698906898,-0.0697962641716003,-0.0258392430841922,-0.1100034937262535
4.284711669921876,0.080508537954092,0.164079386088252,-0.092502342608571,-0.0650123879313469,-0.0602305270731449,-0.1082207486033439
4.2946757812499925,0.040239363668859,0.2375968961112201,-0.0853770207732915,-0.06779645383358,-0.0828711315989494,-0.1195021718740463
4.3046406249999905,-0.0257923937086015,0.2315118771091103,-0.0091483520954847,-0.0745339468121528,-0.0675407871603965,-0.1212018951773643
4.314604736328121,-0.0242734405130147,0.2480510701082646,0.0518406618744134,-0.0787457376718521,-0.0601007156074047,-0.1217217370867729
4.324569335937497,0.039813101080805,0.1443677005328238,0.0335720147341489,-0.0776763632893562,-0.0703767612576484,-0.1246260628104209
4.33453369140625,0.0773005356930196,0.0052753100544214,-0.0271931273519992,-0.0708911642432212,-0.0875914394855499,-0.1281049400568008
4.344498779296856,0.0955350613679736,-0.0802675688050687,-0.0614554624378681,-0.0570958964526653,-0.1003884598612785,-0.132551297545433
4.354462890625001,0.0741688135385513,-0.086480305840075,-0.0450689757823944,-0.0422572940587997,-0.1087893992662429,-0.1343193650245666
4.364427490234377,0.0515886598747223,-0.0394135803692042,0.0030599720925092,-0.033305387943983,-0.099075011909008,-0.1417176723480224
4.374392578124997,0.0676926032617688,0.0488945254199206,-0.0113666126668453,-0.0326158963143825,-0.0945375189185142,-0.154931753873825
4.384356689453142,0.1071523608602583,0.1316340372964739,-0.0448684847742319,-0.0392439290881156,-0.0948749184608459,-0.1612455248832702
4.394321777343734,0.217258676155284,0.2209703170895576,-0.0565928248375654,-0.0484848320484161,-0.0886708199977874,-0.1766822785139084
4.404285888671851,0.314493088787049,0.1879728873729705,-0.0527110149681568,-0.0584156587719917,-0.0886381119489669,-0.1985459774732589
4.41425048828124,0.4055668598972261,0.0638255525700747,0.0002291325807571,-0.0636255964636802,-0.0749012604355812,-0.2138069570064544
4.424215576171875,0.4398991914793849,-0.0687688541911542,0.0700835900515318,-0.0697670057415962,-0.055312380194664,-0.2154181003570556
4.4341796874999915,0.4198295593317598,-0.1975194450058043,0.0865782132565975,-0.0700772702693939,-0.033910684287548,-0.2069785445928573
4.444144531250004,0.3579294218663126,-0.291610371980071,0.0937841991126537,-0.0656064972281456,-0.0194708257913589,-0.1881706565618515
4.454108398437498,0.2767085709244012,-0.3464468546696007,0.0507394226342439,-0.064283438026905,-0.019623689353466,-0.1611789911985397
4.464078613281259,0.2259871223382651,-0.3494111113026737,0.0011573533415794,-0.0532141849398613,-0.0216158665716648,-0.1279460191726684
4.474042724609376,0.1956871880773454,-0.3048477469548583,-0.0257335761934518,-0.0498034730553627,-0.0313475914299488,-0.098931148648262
4.484007812499996,0.1809680501122027,-0.2591553785771131,-0.0335667540371418,-0.0439300872385501,-0.0358119644224643,-0.0731150433421135
4.493972656249994,0.1597265246409922,-0.2265362806536257,0.010449497821927,-0.0291037373244762,-0.0255329590290784,-0.04443946108222
4.503936523437503,0.1507941533837467,-0.1767984362773597,0.0090536595493555,-0.0096712885424494,-0.0264566224068403,-0.0209947898983955
4.513901855468731,0.1210084522552788,-0.1633316364608704,-0.030375264519453,0.0074432496912777,-0.0442478694021701,-0.0043380497954785
4.523865722656254,0.0743636054582893,-0.1959998342230915,-0.0581827243775129,0.0198078788816928,-0.047741062939167,0.0102775814011693
4.533830810546874,0.0065196840923279,-0.1604131186656653,-0.0310661693930625,0.0362755358219146,-0.046702429652214,0.0216428861021995
4.5437946777343825,-0.0746546973593533,-0.0582495060034096,-0.0048468555092811,0.0476194843649864,-0.0420825257897377,0.0311996918171644
4.5537595214843805,-0.1477637727119028,0.0439805960237979,-0.0300303966045379,0.0576761178672313,-0.0427302047610282,0.043026253581047
4.563724609375001,-0.1604316772356629,0.1446804197438061,-0.0947229412674903,0.0502849891781806,-0.0574285238981246,0.0393174476921558
4.573688720703117,-0.1503808598751202,0.2334178568609058,-0.1005067853659391,0.0423194728791713,-0.0642672553658485,0.0348276235163211
4.583653808593752,-0.1115572447557002,0.2241420789934694,0.00458791231215,0.0338635146617889,-0.0554352439939975,0.0190270952880382
4.59361767578126,-0.0724395785931497,0.1744353604078292,0.1194078851908445,0.012123329564929,-0.0276001505553722,-0.0053642634302377
4.603582763671852,-0.0989898414643481,0.1349982530325651,0.2647714648932218,0.00417390326038,0.0089864777401089,-0.0186500027775764
4.613546630859375,-0.03201280259341,0.0128438456125557,0.1657055259853601,0.0065326658077538,0.0117774698883295,-0.0319796577095985
4.623511718749995,0.0313940861731767,-0.0329933380633592,-0.0137350953638553,0.0218193121254444,-0.0022065269295126,-0.0496552474796772
4.633476806640616,0.0888800969908013,0.0072391574732959,-0.1485556537419557,0.0336256362497806,-0.0299990102648735,-0.0732151642441749
4.643440673828138,0.1505623173892498,0.0873293238848447,-0.1434329039007425,0.043555237352848,-0.0359064787626266,-0.0965543463826179
4.65340576171873,0.192483314002119,0.1545443727627396,-0.0032318215280771,0.0575072728097438,-0.0335149578750133,-0.119185097515583
4.663369873046875,0.4189573796071112,0.2151145767986774,-0.1017126540243625,0.150233045220375,-0.1357303261756897,0.0995438322424888
4.673334716796873,1.8893875134348868,0.1834527796000242,-0.8740402578234672,0.2933065593242645,-0.3580776453018188,-0.1727622598409652
4.683299560546857,-0.2050099834242835,0.0838473269879818,-1.604777960127592,0.260973185300827,-0.5504836440086365,-0.0201602112501859
4.693263671875002,0.7483990312010049,-0.2223313763096928,-0.1938619454115629,0.2933758795261383,-0.2728288769721985,-0.0590839087963104
4.703228759765622,0.0034100276391953,0.3494182716958224,1.2190882054805754,0.2610681354999542,-0.1207618936896324,-0.0622626133263111
4.713192871093753,-0.1287203052742406,0.1213048048533499,0.6531821689367294,0.2713710963726043,-0.1329439878463745,-0.059005569666624
4.723157958984373,-0.1564906114596873,0.156363989405334,0.0707826782315969,0.242558941245079,-0.0937356725335121,-0.0696174800395965
4.733121582031259,-0.1882853508556261,0.3128910604178905,0.4037503119945526,0.1976178139448166,0.0456267520785331,-0.0900830775499343
4.743086669921851,-0.2214701929030939,0.3907935075268149,0.7515010888695717,0.1611176580190658,0.1398075520992279,-0.1031948551535606
4.753051513671878,-0.2591163617409766,0.3276154590800404,0.461301752731204,0.1305248588323593,0.1104805544018745,-0.1179362535476684
4.763015624999994,-0.2413233327558264,0.2292201129101216,-0.0046317514538764,0.0970484539866447,0.0277113914489746,-0.138794332742691
4.7729807128906145,-0.2173399977631867,0.1586238971613347,-0.0441495228499174,0.0634212493896484,-0.0257893856614828,-0.141164556145668
4.782944824218731,-0.1265611544789746,-0.0252944541238248,0.1146013616919517,0.0275668427348136,-0.0786009356379509,-0.1452602297067642
4.792909667968743,-0.0509084955908358,-0.1875648910939693,0.1388081667095422,0.0155362803488969,-0.1567460596561432,-0.1448610126972198
4.802874755859378,0.0349751960629597,-0.2747965998232364,-0.0465051460653543,0.0240597631782293,-0.2659578919410705,-0.1384463757276535
4.812838623046872,0.1424294990118592,-0.3752421565212309,-0.2838064202308654,0.0504961609840393,-0.4014025330543518,-0.1373696625232696
4.822803466796856,0.2257643464330583,-0.5529027625858783,-0.4893231476008892,0.0675956979393959,-0.5455309152603149,-0.1506274342536926
4.832767822265623,0.2031636614378541,-0.5680854264095425,-0.4946270992279052,0.075189970433712,-0.5948257446289062,-0.1314177811145782
4.842732666015621,0.247328601052612,-0.4311505062259733,-0.0722656102657318,0.0892486944794654,-0.4923930764198303,-0.1131853461265564
4.8526977539062415,0.1806680442523211,-0.0823728705212473,0.358196767565608,0.0987274199724197,-0.3563859760761261,-0.0965384542942047
4.862661621093736,0.1051367284552194,0.1293007720433175,0.4110860617101192,0.1019898504018783,-0.2648033797740936,-0.0624294616281986
4.872626464843734,0.1560935201671905,0.1733024108551442,0.1753349395960569,0.0831823423504829,-0.3016996085643768,-0.0811765193939209
4.882590576171879,0.0782784590807743,0.064075874069333,0.0133516490042209,0.0432628504931926,-0.2464849799871444,-0.081608161330223
4.892555908203121,0.1345632591487839,-0.0703948479577899,0.5551204386353492,0.0303984489291906,-0.1388653218746185,-0.0696186125278472
4.902520751953119,0.1117006992138456,-0.0705576373040676,0.5968301671177149,0.0162912253290414,-0.0940677374601364,-0.0692632868885994
4.9124846191406135,0.0664056321911513,-0.1497942556262016,0.324801862964034,0.0203280448913574,-0.0897624641656875,-0.055736556649208
4.922449707031262,0.1207058251800481,-0.1910970107428729,0.1113607723355293,0.0059334286488592,-0.1393961757421493,-0.0395658984780311
4.932413818359379,0.1867890296169556,-0.1324663964673876,-0.0309895970255136,-0.0024954760447144,-0.2072327435016632,-0.0305995680391788
4.942378662109377,0.2136432621371,-0.0131137485951185,-0.1228746845185756,-0.0184408258646726,-0.304179310798645,-0.0344416834414005
4.9523439941406195,0.2356721751263365,0.0391717344373464,-0.234755681335926,-0.0466993637382984,-0.4282884895801544,-0.0470517538487911
4.962307617187491,0.2276484066139906,0.1752906620629131,-0.2794949867725372,-0.0923053249716758,-0.5348641872406006,-0.0530483052134513
4.97227270507814,0.229184201346524,0.3120306441962718,-0.135358318516612,-0.1316106468439102,-0.5778745412826538,-0.0667880848050117
4.982236816406257,0.1822979104764759,0.3650597852028906,0.1136672957122325,-0.1756657063961029,-0.4769459068775177,-0.0487146414816379
4.9922016601562405,0.1423595025155693,0.3008256518319249,0.702706370562315,-0.1907810121774673,-0.1791491061449051,-0.023519804701209
