time,ax,ay,az,gx,gy,gz
0.0,-0.0143959704253822,-0.095806206459552,0.0075374097675085,0.0161819793283939,-0.0080408994108438,-0.0711987912654876
0.009965087890623892,-0.0209123665820807,-0.0155197868235409,0.0138315414756536,0.0170421786606311,-0.0088787302374839,-0.0685742422938346
0.0199289550781252,0.0301787920992821,0.0128067284725606,0.0252262111932039,0.0156623944640159,-0.0043625412508845,-0.0644596591591835
0.02989306640624889,0.0743747479068115,-0.037688948533684,0.0517506455034017,0.0154629247263073,-0.0042482921853661,-0.0657198652625083
0.03985839843749872,0.0715021150799468,-0.0935880920186638,0.0423889429181814,0.0249487310647964,-0.0085215391591191,-0.0691140070557594
0.04982226562500003,0.0371484484488144,-0.0765353965394198,-0.0261719676107168,0.0269847176969051,-0.0133538441732525,-0.0699419826269149
0.05978613281249778,0.0194538748694583,-0.0305956292718648,-0.0552455018818378,0.0291875936090946,-0.0131769282743334,-0.0672630965709686
0.06975122070312523,0.0222581917004659,-0.0267974060326814,-0.0385667542815208,0.0285242013633251,-0.0166108086705207,-0.0648135170340538
0.07971508789062298,0.0051984454259276,-0.0577126226477324,-0.0165256028652191,0.0330964475870132,-0.0164505057036876,-0.0688893720507621
0.08967993164062804,-0.0488667971627786,-0.0435746455714106,-0.0017272621840238,0.0373234152793884,-0.0183626562356948,-0.067592941224575
0.09964404296874818,-0.0688624872913584,-0.0085395725473761,-0.0116541974365711,0.035658273845911,-0.0215027704834938,-0.0583694651722908
0.10960815429687187,-0.0253086653122678,0.0411013873256742,-0.0031669395983219,0.0234964191913604,-0.0269113816320896,-0.0576621294021606
0.11957299804686983,0.0146791347483173,0.0408095647722482,0.0646288317769765,0.0146659081801772,-0.0214963778853416,-0.0627780631184578
0.12953710937499707,-0.0258718521529808,-0.0127190501891076,0.1205611468791961,0.0095853945240378,-0.0115966089069843,-0.0691464841365814
0.13950122070312432,-0.0585091067876666,-0.0404044911026954,0.0989069489538669,0.0043405657634139,-0.0104320086538791,-0.0717931315302848
0.1494663085937482,-0.0498402087721973,-0.019534867683798,0.0618313100129365,-0.0002573817037045,-0.0127952974289655,-0.0740717351436615
0.15943017578124952,-0.0122956371452659,-0.0013316869951784,0.0623585487574338,-0.0014516483061015,-0.0068593169562518,-0.0708441883325576
0.16939404296874727,0.0248916820092126,0.0005935819789767,0.0253781868845224,-0.0102632492780685,-0.0079584028571844,-0.0721525996923446
0.17935913085937827,0.0279728795528411,-0.0260667536705732,-0.0222743756502866,-0.0093711456283926,-0.011860323138535,-0.0745583549141883
0.1893232421874984,0.03578351677116,-0.0245281459264457,-0.0028752631753683,-0.0117634627968072,-0.0080205779522657,-0.0793927907943725
0.19928784179687042,0.0246582020469009,0.0299586465425789,0.015339607951045,-0.0113366581499576,-0.0025038195308297,-0.0812481790781021
0.20925195312499767,0.024401414274238,0.0585932048745453,0.0288046542018651,-0.0163663048297166,0.0014709483366459,-0.0762020200490951
0.2192163085937473,0.0327136078065261,0.0216530288815498,0.0325321502923965,-0.0136308148503303,0.0072604557499289,-0.0767079591751098
0.2291811523437488,0.0480685594571754,-0.0351304962225258,0.0178179807633161,-0.0145498719066381,0.0002462221309542,-0.0684154108166694
0.2391450195312501,0.0624200331537053,-0.0822606423184275,-0.0105085345327854,-0.0115285171195864,-0.0053122867830097,-0.0675421357154846
0.2491091308593738,0.0588054959183558,-0.1062454751484096,0.0091419223546981,-0.0048160199075937,-0.0091227367520332,-0.0643447414040565
0.2590742187499977,0.0631864144163206,-0.1202811608940362,0.0150526077032089,0.0022008400410413,-0.0115026012063026,-0.0602891445159912
0.269038085937499,0.0683747768396511,-0.1684085013337433,0.0229699566990137,0.00555429328233,-0.0119952857494354,-0.0581506267189979
0.27900292968749696,0.0656892640827223,-0.190470111016184,0.0148170453816652,0.008019988425076,-0.0134357875213027,-0.0554093644022941
0.28896704101562776,0.0610554302696138,-0.1777655277438461,0.033857261416316,0.0066404715180397,-0.0125228567048907,-0.0538343712687492
0.2989311523437479,0.0533233016476035,-0.1457807822011411,0.0407832612872123,0.0102002313360571,-0.0099296970292925,-0.0510662905871868
0.3088962402343789,0.0637337461007759,-0.1351809161230921,0.0213286192327737,0.0109440525993704,-0.0086353998631238,-0.0532141290605068
0.31886010742186954,0.029079087229073,-0.0755523768514394,0.0060620765179395,0.0214579813182353,-0.0066837323829531,-0.0559407845139503
0.32882421875000034,0.0261111408015713,0.0031232465870678,-0.0435819520950317,0.0231285821646451,-0.007996404543519,-0.0537849515676498
0.3387890624999983,0.0586290068402886,0.0171731069885194,-0.0494154805541038,0.0255410596728324,-0.0040260609239339,-0.0505092926323413
0.3487529296874996,0.0811058827927336,-0.0374061860695481,-0.0287257437467575,0.0340746268630027,-0.0047877253964543,-0.0521681755781173
0.35871850585937537,0.084227960336022,-0.0975774539157748,-0.0084884268820285,0.0401058755815029,-0.0012958089355379,-0.052048560231924
0.36868261718749906,0.0489244821667671,-0.0940076326049864,-0.0137006085723638,0.0477193184196949,-0.003081991104409,-0.0538999885320663
0.3786464843749968,0.0288849894290789,-0.0177579211391508,-0.021678747844696,0.0484408363699913,-0.004017949104309,-0.0497986450791358
0.3886113281249983,0.0200465435329824,-0.0140875620633363,0.0097638536453247,0.0421254150569438,-0.0032853134907782,-0.0445500873029232
0.398575439453122,0.0192582426995038,-0.0494866460941731,0.0451467171937227,0.0396398454904556,0.0012840357376262,-0.0418253019452095
0.40853955078124926,0.0223617616727948,-0.0974435984030365,0.0580418546020984,0.0445845425128936,0.0004600537940859,-0.040908109396696
0.4185046386718696,0.0141788570759817,-0.1243375966779887,0.0502156910210847,0.0505226999521255,-0.0067529128864407,-0.0370660275220871
0.428468505859378,-0.0003386939024552,-0.0660372372701764,0.0279863235563039,0.0521541498601436,-0.0145873995497822,-0.0337256230413913
0.43843334960937597,0.0081208356786519,0.0335316827237606,0.011807342171669,0.0448232516646385,-0.0181392394006252,-0.0328752025961875
0.44839746093749966,-0.0085035879185423,0.0826440886780619,0.0355044441014528,0.0308621637523174,-0.0130872223526239,-0.0359921678900718
0.45836157226562335,-0.0292715410612523,0.0945325332619249,0.1087748474955558,0.0237250886857509,0.0004545431584119,-0.0392636694014072
0.46832641601562486,-0.0424488198792561,0.0932239348813891,0.1122562598705291,0.0139542175456881,0.0094056939706206,-0.0393494218587875
0.47829052734374855,-0.0196625491840764,0.0611094254791736,0.0604272884339094,0.0034023886546492,0.0073728393763303,-0.0394265577197074
0.48825439453124986,0.0034386326791718,-0.0250672212392091,0.0720703799545764,-0.0026192846707999,0.0039943531155586,-0.0411791838705539
0.4982197265624997,8.37692933157e-05,-0.0766590229190886,0.1009054292947053,-0.0009385771118104,0.0106589570641517,-0.0475688874721527
0.5081835937499974,-0.0179002887519076,-0.0855320652045309,0.0978583166837692,0.0011900877580046,0.0167424157261848,-0.0446197018027305
0.518148437499999,-0.0163491503197699,-0.1064940430819988,0.0494862077027559,-0.0088062705472111,0.0157476626336574,-0.0444920733571052
0.5281125488281226,0.0211070489039644,-0.0769756876528263,0.0355588046371936,-0.01092747785151,0.0158326178789138,-0.0393977127969265
0.538076416015624,0.0373432038359343,-0.0414502007633447,0.0333130715370178,-0.0063856486231088,0.0082563143223524,-0.0420763231813907
0.5480412597656219,0.0229624675123021,-0.0481644575797021,0.0494230793386697,-0.002859357278794,0.002290034899488,-0.0361920706927776
0.5580053710937491,0.0401057638844475,-0.0720503600798547,0.0343166956216096,-0.0016552070155739,0.0018389153992757,-0.0316408425569534
0.5679694824218693,0.0562938053583726,-0.0529762417756021,-0.015859832432866,0.0029185060411691,-7.74953514337e-05,-0.0303713157773017
0.5779348144531227,0.0594630830442532,-0.0128808166220784,-0.0466869323730468,0.0097372019663453,-0.0034276701044291,-0.0344737470149993
0.587898437499998,0.0309181392244994,-0.0117870300360023,-0.0622971739590167,0.0116613348945975,-0.0102229919284582,-0.0311221592128276
0.5978635253906219,0.0338715091373771,0.0014908230796456,-0.0593564443320035,0.0114504480734467,-0.0075317649170756,-0.032575286924839
0.6078276367187492,0.0149953610906377,-0.0135094699144363,-0.0146978029161691,0.0144355846568942,-0.0112271672114729,-0.0287232901901006
0.6177915039062469,-0.0092655852669849,-0.081059595965594,0.0217968212664127,0.0189587119966745,-0.010622875764966,-0.0290301293134689
0.6277563476562484,-0.0155445924712344,-0.1039503499485552,0.0575420883864164,0.015763983130455,-0.0038826807867735,-0.0303590483963489
0.6377204589843757,-0.0065627560490742,-0.1313194183893501,0.0534668017715215,0.0184795763343572,-0.0032699911389499,-0.0345539525151252
0.6476845703124994,0.0174437040908262,-0.1494089095704257,0.0312099617779254,0.0211645755916833,-0.0046300673857331,-0.0435671545565128
0.6576494140624973,0.0160360292499884,-0.0887812762588262,-0.0168348149448633,0.0221576206386089,-0.0115735214203596,-0.0498875044286251
0.6676135253906281,-0.0091267978508025,0.0015118658676743,-0.0171288294553756,0.0115656973794102,-0.0138108422979712,-0.0519325472414493
0.6775786132812485,-0.0186660489600151,0.0362612538181245,0.0406909068286418,0.0003576418384909,-0.003501255530864,-0.057254709303379
0.6875427246093757,-0.0420061176130548,0.0600135930664837,0.1191571253001689,-0.0081098787486553,0.0015422388678416,-0.0549947507679462
0.6975063476562475,-0.0478876864649355,0.024186200620979,0.1296639062672853,-0.0225695427507162,0.0039771264418959,-0.0741462484002113
0.707471435546875,-0.1246221127077937,0.0863685160286724,0.1506938348144292,-0.0329324342310428,0.0067609287798404,-0.0696258023381233
0.7174355468749987,-0.0547060977755114,0.0262482477173209,0.1431786368787288,-0.0386608950793743,0.0091247502714395,-0.0678537338972091
0.7273996582031224,-0.0261918413549661,-0.0060004094585776,0.0830535462617874,-0.0403235033154487,0.0011685569770634,-0.0731441006064415
0.7373645019531239,-0.0359574485659599,-0.0440673975244164,0.0458639255523681,-0.0428273305296897,0.0008310321718454,-0.0766133815050125
0.7473286132812476,-0.0346030017497017,-0.0824848064631223,0.0370920055538415,-0.0373113900423049,0.0005676455330103,-0.0765220373868942
0.757293701171875,-0.0333275749864056,-0.0597037964649498,0.0245183551847934,-0.0388499125838279,-0.0030923571903258,-0.0775563642382621
0.7672575683593763,-0.0340507381618022,-0.0487692916050553,0.0203320094108581,-0.0354722253978252,-0.0010904588270932,-0.0790296196937561
0.7772214355468705,-0.0175408077897503,-0.0706112671874463,0.0417512295365333,-0.0412673912942409,0.0006339168176054,-0.0761687308549881
0.787186523437498,-0.0040555590011179,-0.0647553807660937,0.0472083258986473,-0.0404303595423698,0.0023468621075153,-0.0790406838059425
0.7971506347656252,-0.0048266529714688,-0.0459708930581808,0.0355757557719945,-0.0381100885570049,0.0072976993396878,-0.0806690603494644
0.807114257812497,0.005297375755757,-0.0069262921318411,-0.0004465747237205,-0.02969316765666,0.0070002246648073,-0.082478679716587
0.8170793457031209,0.0131351201767101,0.0345085649318993,-0.0385650007158517,-0.0230007078498601,0.0053190933540463,-0.0811745971441268
0.8270434570312482,0.0111176428744569,0.0326956702910363,-0.0691997929543256,-0.0133155900985002,0.001952058984898,-0.0842912942171096
0.837008544921872,0.0135069126311689,-0.0164162972718477,-0.0600385813772678,-0.0075114811770617,0.0041678287088871,-0.0842420756816864
0.8469726562499993,-0.0011507409377023,-0.0713854664303362,-0.0465939933925867,0.0079939756542444,0.0001168947201222,-0.0844021290540695
0.856936523437497,0.0008676496800035,-0.0497736463420093,-0.0544639961153268,0.0131832882761955,-0.0052136471495032,-0.0827101245522499
0.8669016113281209,0.0197505927937105,0.0068069035358726,-0.0154261171907186,0.0170427411794662,-0.0025012176483869,-0.0842827185988426
0.8768654785156222,0.0336803704794496,0.0288841491788625,0.019330723413825,0.023091435432434,0.0009744325652718,-0.0835046395659446
0.8868293457031236,0.0518208246627822,-0.0033943186134099,0.0141050977200269,0.0350357145071029,-0.0018679592758417,-0.084150992333889
0.8967944335937474,0.0547703586507588,-0.0561718229465186,0.0043009120643138,0.0492702238261699,-0.0060332650318741,-0.0845203772187233
0.9067585449218747,0.0359405704963952,-0.1003482338033616,-0.006926584392786,0.0601662844419479,-0.0180896632373332,-0.082865759730339
0.9167236328124986,0.0297825958559289,-0.0948794470034539,0.0126245037734508,0.0582343973219394,-0.0241204723715782,-0.0856731981039047
0.9266874999999999,0.0059284402009099,-0.0352644978657364,0.0971019453585147,0.0479141175746917,-0.0189414229243993,-0.0902604907751083
0.9366516113281236,-0.0124971510667353,0.0086195059157907,0.1834118630677461,0.0359305515885353,-0.0102270692586898,-0.0886360630393028
0.9466164550781251,0.0039008798960596,0.0281225171566009,0.2187713457405567,0.0213955491781234,-0.000665787840262,-0.0962260738015174
0.9565805664062488,-0.0228909366460517,0.083966277192533,0.1599929935574531,0.0173215083777904,-0.0018155972938984,-0.0998076871037483
0.9665454101562503,-0.0492656237546354,0.0864627701833844,0.0393488445699214,0.0071245310828089,-0.0056260479614138,-0.0957130789756774
0.976509521484374,0.0069328680031001,0.074033204460144,0.0224403798669576,0.0115603869780898,-0.0125237172469496,-0.1030738055706024
0.9864733886718753,-0.0389481182819232,0.074449091784656,0.0109375735998153,0.0084410263225436,-0.0106395306065678,-0.1009504646062851
0.9964387207031251,-0.0383099299762398,0.0395562037102878,-0.0076239190071821,0.0140140540897846,-0.0157553423196077,-0.0946206599473953
1.0064025878906229,-0.0111047468602657,0.0119670627780258,-0.0154740479856729,0.0153118129819631,-0.0196930933743715,-0.0903300419449806
1.0163666992187501,0.0101331253491342,-0.063677668531984,0.0370323843210935,0.0133746201172471,-0.0226147416979074,-0.0892517194151878
1.026331542968748,0.0051574558284133,-0.1010286172829568,0.0896896232753992,0.014462255872786,-0.0170442089438438,-0.0889790132641792
1.0362956542968753,-0.016047646622546,-0.0984847780190408,0.0974567501455545,0.0100258877500891,-0.0141745908185839,-0.0884975641965866
1.0462604980468697,-0.0199876164199784,-0.0740045628875493,0.0944277577131986,0.0020153662189841,-0.0150385191664099,-0.0827632471919059
1.0562243652343781,0.0040850042913109,-0.0435232076451182,0.0617132365912199,-0.0062476540915668,-0.0157027542591094,-0.0802347511053085
1.0661884765624983,0.0235081186963245,-0.0210071321934461,0.0417968222439289,-0.0155612602829933,-0.0125264003872871,-0.0763550624251365
1.076153808593748,0.0340622094038873,-0.0150916245393455,0.0305634805679321,-0.0219143740832805,-0.0116603821516036,-0.0764571651816368
1.0861174316406235,0.0226885459417477,-0.002920563621819,0.0265215117007493,-0.0310021452605724,-0.0100209396332502,-0.0758981704711914
1.0960825195312474,0.0142174720533192,-0.035503128927201,0.0400076007395982,-0.0414353236556053,-0.0134070673957467,-0.0718885734677314
1.1060466308593782,0.0148413761053234,-0.0267589737184345,0.0533890603601932,-0.0494972467422485,-0.0137841710820794,-0.0682533606886863
1.1160104980468688,0.020600231892988,-0.0076627897128462,0.040979660642147,-0.0478891357779502,-0.0203279051929712,-0.064440794289112
1.1259753417968703,0.0315406185043975,-0.0471441746212542,0.0356499900519847,-0.050044696778059,-0.025487245991826,-0.0654211044311523
1.1359394531249976,0.0121743123205378,-0.1243978024326264,0.0430921227514743,-0.0502668395638465,-0.0275395829230546,-0.0660987719893455
1.1459035644531212,0.012000051732175,-0.1458852654889225,0.0341600437551736,-0.0598355755209922,-0.0303795766085386,-0.0642345547676086
1.1558686523437487,0.0070850628901273,-0.1377225634299218,0.0565583380460739,-0.0565275996923446,-0.027770334854722,-0.0660006925463676
1.16583251953125,-0.0088948522584512,-0.1053346439138054,0.1315209323108196,-0.0494933947920799,-0.0230003483593463,-0.0609175227582454
1.1757976074218703,-0.0069278995670378,-0.081969696547836,0.1318003337740898,-0.044155515730381,-0.0210528392344713,-0.0627450346946716
1.1857617187499976,-0.0077213514996692,-0.0273186534278094,0.0666343263804912,-0.0426995605230331,-0.0163057539612054,-0.0701654031872749
1.1957253417968694,0.0282369007838889,-0.0323294673271477,0.0048047699332237,-0.0385762378573417,-0.0097145549952983,-0.0722619593143463
1.2056904296874968,0.049378107685782,-0.0628257278777658,-0.1124707794040441,-0.0180065128952264,-0.0199719853699207,-0.068946324288845
1.2156545410156276,0.0429455904202535,-0.0731062988735735,-0.2394061374902725,0.0058162622153759,-0.0430144555866718,-0.0721136257052421
1.2256186523437478,-0.0076212155934423,-0.0630224194936454,-0.2642693605899811,0.0217579435557127,-0.0568312034010887,-0.0717346593737602
1.2355832519531234,-0.0726036465810611,-0.0123030167341232,-0.1549058995515108,0.0367635563015937,-0.0522643066942691,-0.0710921362042427
1.245547363281247,-0.1054440591050311,0.0513689527094364,-0.0451315196245908,0.0381252318620681,-0.0417320355772972,-0.0734967067837715
1.2555126953124969,-0.0974290218884125,0.1250064358502626,0.0116465986520051,0.0314501672983169,-0.0276187025010585,-0.0781224742531776
1.2654765624999982,-0.0598441913163289,0.1399957690589129,0.0137619833707809,0.0252969320863485,-0.0239493995904922,-0.0856746658682823
1.2754404296874995,-0.0391163509882986,0.0906285115607082,0.0028057050704956,0.0222645867615938,-0.0289943069219589,-0.0946368277072906
1.2854055175781234,-0.0404759854363277,0.0131461895599961,-0.001909633013606,0.0171201582998037,-0.0328140780329704,-0.0984744429588317
1.295369628906247,-0.0524266450688242,-0.0483859913758933,0.0430354241281747,0.0091740861535072,-0.0328252613544464,-0.0992219895124435
1.3053344726562486,-0.0594150791840627,-0.0645106122247874,0.0885322699338197,0.0027121910825371,-0.0260714851319789,-0.1010987237095832
1.3152983398437499,-0.0609788213694468,-0.0521544039987027,0.1211515139877796,-0.0074876216240227,-0.0188930183649063,-0.1018100678920745
1.32526245117187,-0.0621341288844123,-0.0684875530317425,0.1249170040011405,-0.0157641936093568,-0.012548035942018,-0.1023174002766609
1.3352275390624975,-0.0331663200100883,-0.0967351578727364,0.1181120001614093,-0.0179280415177345,-0.0088462186977267,-0.0991809293627739
1.3451916503906283,-0.009850253287144,-0.114500970057398,0.0437818585813045,-0.0138896238058805,-0.0093977600336074,-0.0954104289412498
1.3551550292968741,0.039165706555359,-0.1187372924529016,-0.0215741184264421,-0.0060856882482767,-0.0128946546465158,-0.0910822078585624
1.365120117187498,0.0761868388300761,-0.1223405776418745,-0.0451794504195451,0.0077387811616063,-0.0127250123769044,-0.0853585451841354
1.3750842285156253,0.0979987480677664,-0.0990637469507753,-0.0339630598783493,0.013161826878786,-0.0113994963467121,-0.0831658244132995
1.3850493164062492,0.0824386292338371,-0.0809197491034865,-0.0148234751224517,0.02289754524827,-0.010326774790883,-0.0782442986965179
1.395013183593747,0.0715576811920851,-0.083056176610291,-0.0236830734044313,0.0287396889179945,-0.0076013361103832,-0.0725288093090057
1.4049772949218742,0.0703920349461957,-0.0787906281203031,-0.0354179348617792,0.0271055717021226,-0.0076165166683495,-0.0713527575135231
1.4149421386718721,0.0500530843378975,-0.0740193220652639,-0.0072135846406221,0.0254007428884506,-0.0083856796845793,-0.0739611536264419
1.4249060058593734,0.0524521448362618,-0.0743310183629393,0.0217687642157077,0.0254912935197353,-0.007648516446352,-0.0790933296084404
1.4348710937499973,0.0368577949391678,-0.0484723544850945,0.0345405675053596,0.0206475164741277,-0.0094520291313529,-0.0839887112379074
1.444835205078121,0.0076525240471586,-0.00501212907359,0.0610270078927278,0.0116124749183654,-0.009824339300394,-0.0885586962103843
1.4547990722656223,-0.0125700701724737,0.0059261751785874,0.0959480991482734,-0.0012150327675044,-0.0014100393746048,-0.0891152024269104
1.4647639160156238,-0.0213937203582376,0.0040980829685926,0.0996054526120424,-0.0029977527447044,0.0004368629306554,-0.0945626944303512
1.4747282714843735,-0.0078247753415256,0.0244905903950333,0.0247065712332725,-0.005440997891128,-0.0073690065182745,-0.0932492911815643
1.4846921386718748,0.0052105377225205,0.0252411165013909,-0.0652121846228837,-0.004509690683335,-0.0225879065692424,-0.0958171114325523
1.4946572265624987,0.0276000276524573,0.0053784781679511,-0.0936193639397621,-0.0008635409176349,-0.0248001758009195,-0.0894575268030166
1.50462109375,0.0772360190894454,-0.0001353168174624,-0.0606494067519903,-0.0063693602569401,-0.0348056703805923,-0.1010971367359161
1.514585937499998,-0.0109955508647486,0.0278486686512827,-0.0132288994073867,-0.0083670290187001,-0.0356193035840988,-0.1005417853593826
1.5245500488281252,-0.0578059269543737,-0.051987815260142,0.0525029251754283,-0.0136550012975931,-0.0254891738295555,-0.0963257402181625
1.5345141601562489,-0.0698893461210653,-0.022904928638786,0.0744476304799318,-0.0098396893590688,-0.0304481647908687,-0.0999797582626342
1.5444790039062468,-0.1042206913225352,-0.0552528084054589,0.0153518829107284,-0.0198142938315868,-0.0425383858382701,-0.093923732638359
1.5544428710937481,-0.0796672648243606,-0.0806539377741515,0.0568932690888643,-0.0141648091375827,-0.0445301420986652,-0.1018552854657173
1.564408203124998,-0.1397357298832386,0.0055788230456411,0.0580769259154796,-0.0097498204559087,-0.0422731153666973,-0.1118059232831001
1.5743723144531252,-0.1897771237833425,0.0898608881890773,0.0126402858644723,-0.0096537433564662,-0.0408345535397529,-0.123188629746437
1.584336181640623,-0.1994494997529312,0.116924543942511,-0.0005599719703197,-0.0151803363114595,-0.0432977080345153,-0.1292691528797149
1.594301025390628,-0.1795355696236714,0.1094555232360959,0.0177314715236425,-0.013120207004249,-0.0367436520755291,-0.1390123069286346
1.6042651367187482,-0.1417869633246213,0.062776920299977,0.0167956519782543,-0.010624292306602,-0.040584996342659,-0.1489946246147155
1.6142290039062495,-0.122038525955379,0.0114884854808449,-0.0145791449725627,-0.0070953695103526,-0.043797343969345,-0.1525924652814865
1.6241938476562474,-0.1087616592204198,-0.0105523736745119,-0.0053361003309488,-0.0114754708483815,-0.0482693240046501,-0.1554092913866043
1.6341579589843782,-0.1005142014874145,-0.018899930781126,0.0569809473723173,-0.0186756551265716,-0.0425553880631923,-0.1615926921367645
1.644123291015628,-0.1200360270265489,-0.0138980308406054,0.1180792669355869,-0.0290478691458702,-0.033769354224205,-0.1665578931570053
1.6540874023437482,-0.1274747621925547,-0.0236326583914458,0.1374690270602703,-0.0410743579268455,-0.0258039385080337,-0.1781359612941742
1.6640510253906236,-0.1216405396137386,-0.0410990492381155,0.1161164424300193,-0.0335690379142761,-0.0126298144459724,-0.1788827031850814
1.6740161132812474,-0.0705338180370628,-0.0740983786508441,0.0034276363611221,-0.0227277912199497,-0.0176591351628303,-0.1818639785051345
1.6839802246093782,-0.0552660697458311,-0.069454644498229,-0.0846253256231546,-0.0205394718796014,-0.0232973136007785,-0.1837966293096542
1.6939450683593762,-0.0340142420763149,-0.0753366882741451,-0.0759013364195823,-0.0062657175585627,-0.0292187687009573,-0.1775353401899337
1.7039089355468704,0.019598617102392,-0.1037396298073232,-0.0782809250324964,0.0046865325421094,-0.027901567518711,-0.1721786558628082
1.7138730468749976,0.0313797653868794,-0.0877910961776971,-0.084980714932084,0.0090859187766909,-0.0372005924582481,-0.1703906804323196
1.7238383789062475,0.0224527278918772,-0.0793193281695246,-0.0596861146777868,0.0095248082652688,-0.0414315536618232,-0.1790288984775543
1.7338020019531228,0.0023138664329424,-0.0827308901786804,0.0125397480994462,0.0129396589472889,-0.0367081947624683,-0.183587834239006
1.74376611328125,-0.0215059850936755,-0.0534060114949941,0.0469330160886049,0.0208569690585136,-0.0291373580694198,-0.1918130069971084
1.7537312011718704,-0.0096607951296493,-0.0331345000997185,0.0157493577957153,0.0288908183574676,-0.0296315811574459,-0.1912446320056915
1.7636953124999977,0.0045839667893946,-0.0356016208656132,-0.0779185214608907,0.0315611697733402,-0.0368828363716602,-0.2000373303890228
1.7736599121093732,0.0058736047411337,-0.0043899055220186,-0.1069581534624099,0.0337761379778385,-0.0379190519452095,-0.2045378386974334
1.783624023437497,0.0069658204246312,0.044961423754692,-0.0650432577967643,0.0431786924600601,-0.0421915613114833,-0.2057831436395645
1.7935881347656277,0.0043464682390913,0.051421851940453,-0.0045791444838047,0.0535743422806263,-0.0415388196706771,-0.2095352709293365
1.803553222656248,0.0045635085232555,-0.0048540159024298,0.0022065701335668,0.0545925609767437,-0.0425477921962738,-0.2120313942432403
1.8135170898437494,0.0267879440845921,-0.0663007105119526,0.0160907185792922,0.0602487847208976,-0.0423118323087692,-0.2170082181692123
1.8234821777343733,0.0323217589447274,-0.0606859393700957,0.0333522345036268,0.0601164251565933,-0.0467499867081642,-0.2168561518192291
1.833446289062497,0.0411956414803862,-0.0091281860902905,0.0038140053302049,0.0613273605704307,-0.0470232293009758,-0.2198854982852935
1.8434101562499983,0.0170635456668213,-0.0017488894939422,-0.0226052150398492,0.0635383203625679,-0.0486562773585319,-0.2175123542547226
1.8533749999999998,-0.0285760330777615,-0.0021558628596365,-0.0192927294909954,0.06766377389431,-0.0502961128950119,-0.2124172896146774
1.8633391113281235,-0.0215532217688858,-0.0125011696547269,0.0138636901795864,0.0681708380579948,-0.0500590912997722,-0.2111014276742935
1.8733039550781214,0.0072311933625489,0.007662351321429,0.0322971724927425,0.0726051330566406,-0.0509022884070873,-0.2053552269935608
1.8832680664062487,0.0468090243827551,0.0263368027836084,0.0279091666668653,0.0763788372278213,-0.0538197830319404,-0.2025027126073837
1.893232177734376,0.0812204856157302,0.0338961321219801,0.0094780224412679,0.0704442113637924,-0.0581546500325202,-0.1988005638122558
1.9031970214843739,0.0891452872656285,-0.0085755206435918,0.0247352128058671,0.062582291662693,-0.0569274649024009,-0.1999270766973495
1.9131611328124976,0.0769055450260639,-0.0873724323742091,0.0993687212467193,0.0532977953553199,-0.0501458272337913,-0.1986774951219558
1.9231262207031214,0.0468569917103275,-0.1038904364548623,0.1399801330983638,0.0525672882795333,-0.045214720070362,-0.19718798995018
1.9330900878906228,0.0085188585529103,-0.0989323756560683,0.1016495256602764,0.0440865904092788,-0.047669842839241,-0.1980236023664474
1.94305419921875,-0.0154630516676232,-0.1023259636171162,0.0659399143755435,0.0333876088261604,-0.0496371239423751,-0.1903137564659118
1.953019042968748,0.0040931510651484,-0.1149577739141881,0.1120744735628366,0.0259131882339715,-0.0429955273866653,-0.1906380951404571
1.9629831542968752,-0.0035940424365922,-0.0355522287659347,0.1033867247164249,0.0209762211889028,-0.0358417481184005,-0.184449702501297
1.972947021484373,0.0115516869101673,0.0167120653480291,0.0649245998531579,0.0087374569848179,-0.0338511541485786,-0.1818269491195678
1.9829121093749968,0.0346801951717585,0.0026167583696544,0.0517629204630851,0.0063382145017385,-0.032953668385744,-0.1842530965805053
1.992876220703124,0.0671007748484611,-0.0368222487017512,0.0160801971852779,0.0143520468845963,-0.0353922098875045,-0.1813022941350937
2.002841308593748,0.0557817641830071,-0.0261862883970141,-0.0339390944808721,0.0196775682270526,-0.0415153503417968,-0.1773485690355301
2.0128049316406234,0.0613108298027887,-0.0225977623857557,-0.0766711517482996,0.0239695757627487,-0.0526733137667179,-0.172851487994194
2.022769042968747,0.0601788666307926,-0.0700169545561075,-0.0598585486352443,0.0258076898753643,-0.0561396852135658,-0.1696604788303375
2.032734130859378,0.0540387199079617,-0.1337504449285566,-0.0158574943453073,0.0274289660155773,-0.0594202242791652,-0.1668278276920318
2.0426979980468722,0.0260663152791559,-0.1239772389329969,-0.0012888707667589,0.024707481265068,-0.0630314722657203,-0.1689562201499939
2.0526630859374997,0.0018876769101247,-0.0392854239448905,0.0341933615028858,0.0155191570520401,-0.0631572306156158,-0.1685355007648468
2.0626271972656234,0.0040316301362589,0.0222958568297326,0.0824345375806093,0.0046979337930679,-0.0559283532202243,-0.1734242737293243
2.072591308593747,-0.000596468055807,0.0336062092646956,0.1239694940179586,-0.0049602100625634,-0.0485096871852874,-0.1785894334316253
2.0825559082031226,-0.0046435880221426,0.0369790466986596,0.1063408983469009,-0.0069184321910142,-0.0415053069591522,-0.1813026666641235
2.09252001953125,0.0198158765822649,0.0122419341966509,0.0486573556631803,-0.0104687679558992,-0.0429374538362026,-0.1788003891706466
2.1024851074218702,0.0559246067197993,-0.0332401524312794,0.0174924020707607,-0.0104890083894133,-0.0482504591345787,-0.1812238693237304
2.1124492187499975,0.0828376750214025,-0.0636374826520681,0.0143944360554218,-0.0056766001507639,-0.0493573732674121,-0.1797404587268829
2.1224128417968693,0.0860534952627494,-0.0520445138834416,0.0182891054064035,0.0003461390733718,-0.0547151193022728,-0.1792075634002685
2.1323781738281227,0.102004988034442,-0.0250087690502405,0.0255400994479656,-0.0111459316685795,-0.0526035837829113,-0.1768343448638916
2.14234228515625,0.087958086775057,-0.0158019647657871,0.0824982504665851,-0.0225160308182239,-0.0463864356279373,-0.1783126592636108
2.152307128906248,0.0737315180998295,0.0052681496612727,0.1348293262064457,-0.029001735150814,-0.031651996076107,-0.1776544153690338
2.162270996093749,0.070644073478505,-0.0117829383827745,0.1024029743760824,-0.0387917794287204,-0.0276529919356107,-0.173132374882698
2.1722351074218693,0.0895596767527982,-0.058952831967175,0.0755938779056072,-0.0387995913624763,-0.0254974141716957,-0.1693852543830871
2.1822001953125003,0.0988001641111448,-0.0935676337525248,0.0411246220707893,-0.0332940369844436,-0.0259437598288059,-0.164442166686058
2.192164062499998,0.1003788116047158,-0.1086059206694364,0.0047018940806388,-0.0238416381180286,-0.0318691693246364,-0.1567154228687286
2.2021289062499996,0.1118299972824752,-0.0845376473397016,-0.029884850654006,-0.0194013491272926,-0.0350433886051178,-0.1481831818819046
2.2120930175781233,0.1386695984890684,-0.0725564099058508,-0.0372813906461,-0.0170604307204484,-0.0381598211824893,-0.1350151747465133
2.2220573730468693,0.164832469477877,-0.0836238934956491,-0.0164420162349939,-0.0153775792568922,-0.0403073951601982,-0.1231705173850059
2.2320222167968744,0.1411880841160193,-0.0901334215201437,0.005294599276781,-0.0164328794926404,-0.0421405956149101,-0.1186332702636718
2.2419860839843757,0.1150925062097609,-0.1279414663888514,0.0436743065536022,-0.0179098695516586,-0.0370592847466468,-0.1136691346764564
2.2519501953124994,0.0940925344094634,-0.1048506597891449,0.0896224032580852,-0.0270648058503866,-0.0347613878548145,-0.1074254289269447
2.2619150390624974,0.0686477485621347,-0.0675545099653303,0.0880932939946651,-0.0337096601724624,-0.0275785773992538,-0.099393330514431
2.271879150390628,0.0913385229935869,-0.0478496925421059,0.0689998864680528,-0.0380685105919837,-0.0238409768790006,-0.0931363031268119
2.2818439941406226,0.1159771070245653,-0.0546720859080553,0.0525432571858167,-0.0420105196535587,-0.0226012747734785,-0.088892824947834
2.29180810546875,0.1380823001204058,-0.0494049591600894,0.0336906726777553,-0.0446757413446903,-0.019714955240488,-0.0859402194619178
2.3017719726562476,0.1283582304961979,-0.0626516864851117,0.005969722059369,-0.037195187062025,-0.0207152366638183,-0.0796863138675689
2.3117373046874974,0.1588113825574517,-0.1221212358027696,-0.0007084405303001,-0.0350111275911331,-0.023815955966711,-0.0770149007439613
2.3217011718749987,0.116058099838905,-0.0878378579288721,0.030806057152152,-0.0428919568657875,-0.0214707776904106,-0.0805193558335304
2.331666015625,0.074373871123977,-0.07440890590474,0.1122048219442367,-0.0561459362506866,-0.005733233410865,-0.0740208625793457
2.341630126953124,0.0963859060436487,-0.0756852094508707,0.2342085688471794,-0.0787899941205978,0.0089849922806024,-0.0916605740785598
2.351593994140625,-0.0477802075024694,0.0312454714827239,0.3093371673285961,-0.135572150349617,0.0337515883147716,-0.1263923645019531
2.361558837890623,-0.1475268221508711,-0.0189386553563177,0.5493424397557973,-0.1947989910840988,0.0902417600154876,-0.1316776722669601
2.371522949218747,-0.0841132844477891,-0.1336013918466866,0.768572635179758,-0.2230533808469772,0.1596140563488006,-0.1488212645053863
2.381488037109378,-0.1072115802342072,-0.0815903418414294,0.5739566565304994,-0.2151943892240524,0.1981457322835922,-0.1628366708755493
2.391451904296872,-0.06727298961021,-0.0773633717961609,0.161927176490426,-0.1869986802339553,0.1928358525037765,-0.1629900485277176
2.4014160156249993,0.0560272633766755,-0.0899510506905615,-0.3057365124881267,-0.1772459149360656,0.1388690322637558,-0.1433939784765243
2.4113808593749972,0.24798154853601,-0.08924977055341,-0.520963317489624,-0.1541704535484314,0.0714747980237007,-0.1240330263972282
2.421344970703121,0.3264033798765391,-0.0238056768707931,-0.4756657936483621,-0.119838036596775,0.0372105650603771,-0.101920798420906
2.4313100585937484,0.334991029349342,-0.0306152107551693,-0.2931698763817548,-0.0720826387405395,0.0223157275468111,-0.0856409892439842
2.4412739257812497,0.2645271712759509,-0.0331822847642004,-0.275556478279829,-0.0339062213897705,0.0155667439103126,-0.0787838846445083
2.4512380371093734,0.190373043849878,0.0262632991559803,-0.3286801657021045,0.0092939445748925,0.0021950593218207,-0.0671101734042167
2.4612031249999973,0.1473284500345587,0.0557949524581432,-0.3924479967355728,0.0481792949140071,-0.0229102931916713,-0.061203546822071
2.471166748046869,0.1042598542891442,0.0872987826161086,-0.4164215775191783,0.0755925774574279,-0.0467259250581264,-0.0592871457338333
2.4811318359375,0.0597568418264389,0.0753261668801307,-0.3351706967651844,0.0881626978516578,-0.0581594109535217,-0.0519232414662838
2.4910959472656238,0.0875666397720575,0.001349222651869,-0.0795820707589387,0.091820627450943,-0.0518432892858982,-0.0369756892323493
2.5010600585937475,0.1224595643790438,-0.1106988012954592,0.1390209326773882,0.0849922820925712,-0.0358861610293388,-0.0230108723044395
2.511024902343749,0.1327525929976254,-0.2223667398840189,0.2460270169347524,0.078260950744152,-0.0163586344569921,-0.024574652314186
2.520989013671869,0.0862238103283569,-0.2436312078393995,0.2799222722738981,0.0789493769407272,0.0042542312294244,-0.0245437603443861
2.5309541015625,0.0614567410795018,-0.2100287979669868,0.1904173579156398,0.0972452610731124,0.0164399314671754,-0.0049613798037171
2.540917968749998,0.1354510748339817,-0.1960303754918277,-0.0093593644976615,0.1044685542583465,0.0033148082438856,0.0129070999100804
2.550881835937499,0.187351978995651,-0.145553403186053,-0.1706640251755714,0.109678566455841,-0.0240292120724916,0.0202555134892463
2.560846923828123,0.1608858142113313,-0.0615228285856544,-0.1435427940160036,0.1092841476202011,-0.0323137715458869,0.0219034776091575
2.5708110351562503,0.1167250758476555,-0.0263004162959754,-0.0445674560010433,0.1102436855435371,-0.0282503236085176,0.029719054698944
2.580774658203122,0.0903114449681714,0.0055852527864277,0.044551089388132,0.0958240032196044,-0.0180709231644868,0.0380646027624607
2.5907399902343755,0.0810601804874837,0.0129974287390708,0.096668814638257,0.0799037292599678,-0.0069370414130389,0.0464537441730499
2.600704101562499,0.0972893942220136,-0.0305671338297426,0.1429892517864704,0.0674150958657264,0.0068610622547566,0.0501946844160556
2.610668945312497,0.0805299095356836,-0.0438501015119254,0.1354991882920265,0.0525647550821304,0.0106324395164847,0.0394277125597
2.620633056640628,0.006872881444171,-0.0264478619426488,0.1215606793105602,0.0364965721964836,0.0115206036716699,0.0409222766757011
2.630596923828122,0.0242670107722282,-0.0893739814549684,0.1585848803251981,0.028288310393691,0.020113069564104,0.048900406807661
2.6405620117187496,0.0957690162543207,-0.164847740112245,0.1475754105329513,0.0412515103816986,0.0339838787913322,0.0759285613894462
2.6505258789062474,0.205333150964044,-0.2205233039744198,0.0170417356938123,0.0534157678484916,0.022684883326292,0.0945800095796585
2.660490966796875,0.2061530890448018,-0.1836658378288149,-0.0978302596330642,0.0556067526340484,0.0003518818411976,0.1041631251573562
2.6704550781249985,0.2060160917269065,-0.1125266012445092,-0.0684656334608793,0.0501717329025268,-0.0120002515614032,0.1213971301913261
2.680419189453122,0.2398771890681237,-0.0554600214153528,0.0661737231314182,0.0412669219076633,-0.0122180981561541,0.1369404047727584
2.6903840332031237,0.2572344569845124,-0.054158729558438,0.1686550234407186,0.0448996424674987,0.0018884822493419,0.1332261115312576
2.7003481445312474,0.1275626596717163,-0.0669005761012434,0.1111392385393381,0.0500089228153228,0.0019622519612312,0.1141645312309265
2.710312988281249,-0.0568882275875657,-0.022116116348654,0.0346066184788942,0.0305708870291709,0.00137096690014,0.1039688363671302
2.72027685546875,-0.142790879670158,0.0772274704568088,0.1297439857661724,0.009422194212675,0.0275849942117929,0.1040101125836372
2.7302409667968703,-0.0850268556287512,0.156751819679141,0.2227045935362577,-0.0037406296469271,0.0499195307493209,0.1172779202461242
2.740206054687498,0.0727201125675812,0.1512716347023844,0.0734948597997427,-0.0325815975666046,-0.034751147031784,0.1072359383106231
2.750169921874999,0.1232661680541932,0.0536759144775569,-0.1884007573962211,-0.0874044895172119,-0.256366491317749,0.0745006129145622
2.760135009765623,0.0462337817780673,-0.0732733260035514,0.1990840639740228,-0.052589513361454,-0.1476791501045227,0.0769818797707557
2.7700991210937502,0.0807162258880212,-0.1482932034134864,0.6792185274690389,-0.0631381422281265,-0.0170316789299249,0.0982635989785194
2.780062988281248,0.0899055310484021,-0.26511048758924,0.2623164729565382,-0.0857031047344207,0.0587046258151531,0.1112355887889862
2.7900278320312495,0.118744745106995,-0.2845687829054892,0.0931874022632837,-0.0917264893651008,0.0776970162987709,0.1187414973974227
2.799991943359373,0.1718659483112394,-0.2409915069855749,0.1185410392284393,-0.0605952069163322,0.1018476262688636,0.1299099922180175
2.809957031249997,0.0914715382561087,-0.1295396953657269,0.0291050984531641,-0.0314922556281089,0.1100896820425987,0.1618023961782455
2.8199208984374984,0.0614813275314867,-0.0651012715943157,-0.270694425201416,-0.0072060916572809,0.058146595954895,0.2015189081430435
2.8298847656249997,0.1523854776958003,0.0037936931945383,-0.4511649741202592,-0.0085483593866229,-0.0136680686846375,0.2290891855955124
2.8398500976562495,0.2322784410348161,0.0394388609409332,-0.3401706970095634,-0.0174196138978004,-0.1059146374464035,0.2091426402330398
2.849814208984373,0.0942545200381427,-0.103965547517687,-0.1443301450014114,0.0206533316522836,-0.1054367423057556,0.1572048813104629
2.8597790527343783,-0.2856314437009394,-0.0210071321934461,0.0806383018136024,0.0790234357118606,-0.0345870666205883,0.118904635310173
2.869742919921869,-0.5541947751577944,0.2268621516071259,0.0004150105416774,0.0829914808273315,-0.0294218324124813,0.126653641462326
2.8797070312499997,-0.4001001554565504,0.3008661299727856,-0.2653098095536232,0.0737561732530593,-0.0698198527097702,0.1428435295820236
2.8896718749999977,-0.0814404485093429,0.3293067731678485,-0.240242588314414,0.0756188854575157,-0.0967407673597335,0.1392253339290619
2.899635742187499,0.0973450699320063,0.2283833698250353,-0.160272979542613,0.0615723095834255,-0.1431753784418106,0.1102645322680473
2.909601074218749,0.0599148819323629,0.0561991493448615,-0.0251975696206092,0.0395466387271881,-0.1075452119112014,0.0946671962738037
2.919565185546869,-0.0660742813449352,-0.0268818694457411,0.4374561822414398,0.0154623379930853,0.0278930403292179,0.0937904864549636
2.929529052734374,-0.1934169781230389,0.0458487279832363,0.7598603364139794,0.0088073629885911,0.1822957545518875,0.1031876355409622
2.939493896484379,-0.2329495086967944,0.0303708806052803,0.5049433260589837,0.0097447950392961,0.1995857954025268,0.1141121983528137
2.949458007812499,-0.0565113205665722,-0.18126447577551,-0.1087006132155656,0.0385912470519542,0.138419434428215,0.1029786393046379
2.959422851562497,0.034490115959756,-0.2824295789197087,-0.3864338510125875,0.0548543743789196,0.0494434908032417,0.0908426120877265
2.9693869628906278,0.0685521061679348,-0.3957077291838825,-0.3055219929546117,0.0548292770981788,-0.0349181443452835,0.0731197372078895
2.979350830078122,-0.0279644770506769,-0.268869401731342,-0.0049053076982498,0.0516939386725425,-0.0311431102454662,0.0650820508599281
2.989316162109379,-0.0869486540041863,-0.1152227084606885,0.3060264353454113,0.0384924411773681,0.0272661950439214,0.0794408917427063
2.9992800292968695,-0.0325070889163762,-0.0887375832475721,0.2991986351519823,0.0246597155928611,0.0550663992762565,0.0738711580634117
3.009245117187497,-0.0245058610294014,-0.038918928720057,0.075568158942461,0.0224477145820856,0.0353294648230075,0.062247484922409
3.0192089843749983,-0.022861235627532,0.0254354700297117,-0.0572293691754341,0.0331123434007167,0.0181187875568866,0.0500384867191314
3.029173095703122,-0.0057123862974345,0.0582853079691529,-0.107732060444355,0.0462763682007789,2.85741407424e-05,0.0481659062206745
3.0391379394531235,0.0117710287492722,0.0903602160133421,-0.1535755277305841,0.0472662597894668,-0.0118877403438091,0.0384126119315624
3.049102050781247,-0.0009643515201285,0.1134916468843817,-0.1612806952804326,0.038005918264389,-0.0101223308593034,0.0281844735145568
3.0590668945312487,-0.0524302983306348,0.1418089559607207,-0.0417459688395261,0.0291272047907114,-0.0016159275546669,0.0174154490232467
3.06903076171875,-0.089506594858691,0.1470483179189264,0.0857359172135591,0.0312022939324378,0.0081275459378957,0.0055603962391614
3.07899487304687,-0.1077821101311594,0.0871264947891235,0.1163724630177021,0.0286973230540752,0.0134794348850846,-0.0084403734654188
3.0889602050781235,-0.1015337903261184,-0.0147325819686055,0.1160953996419906,0.0198793411254882,0.0198069475591182,-0.0219853296875953
3.098924072265625,-0.07583331268467,-0.080079498887062,0.0895417392373085,0.0182361714541912,0.0276347771286964,-0.0300701558589935
3.108888916015623,-0.0408191728508099,-0.1212976444602012,0.0409948582112789,0.0234970394521951,0.0241169724613428,-0.0312350261956453
3.11885302734375,-0.0243272895921021,-0.1246415480606257,-0.0338730435073375,0.0292476024478673,0.0147972395643591,-0.0274440143257379
3.12881713867187,-0.0007815788317471,-0.1034159508109092,-0.0735293465912342,0.0408939160406589,-0.0038285178598016,-0.0242965780198574
3.1387817382812493,-0.011553659671545,-0.0581822859860956,-0.0636076720356941,0.04505031183362,-0.0133618358522653,-0.0113781169056892
3.148745849609373,0.0294194981645792,-0.0698696550399065,-0.015145546683669,0.0353682339191436,-0.0155136389657855,-0.00408416101709
3.158711181640623,0.0538155786765739,-0.0422783221505582,0.0761550189197063,0.0094080045819282,-0.0015187277458608,-0.0042101279832422
3.168675048828124,0.0186081812929362,-0.0321164090983569,0.1773474484622478,-0.015237858518958,0.0141989011317491,-0.0063012558966875
3.178638916015622,0.004849595455639,-0.05948898467049,0.2267716968446969,-0.0275573749095201,0.0291038136929273,-0.0003384384326636
3.1886040039062493,0.0113486020861193,-0.0976864672482013,0.1030494555860757,-0.0166197754442691,0.0277414284646511,0.0048261540941894
3.198568115234373,-0.0112429862871766,-0.0815158153004944,-0.1058569142222404,-0.0069351913407444,0.0074060629121959,0.0022719162516295
3.2085319824218743,-0.048246546372585,0.0187371414348483,-0.1902075145572423,0.0011499188840389,-0.0095894131809473,0.003385609248653
3.2184968261718723,-0.0728697136387229,0.0720094435475766,-0.1095142676860094,-0.0049234200268983,-0.0039075585082173,0.0036007927265018
3.2284609374999995,-0.0835318678306415,0.0724457891382277,0.0362298357665538,-0.011479664593935,0.0091823330149054,-0.0009860699065029
3.2384260253906234,-0.0987714129406958,0.0324701909720897,0.1157715745151042,-0.0178432874381542,0.0267280377447605,-0.0029980880208313
3.248389892578121,-0.0603991217853501,-0.0629592911295592,0.124459323361516,-0.0118123292922973,0.0363076515495777,-0.0006592157296836
3.2583549804687486,-0.014273549622111,-0.1501959682948887,0.0687584789276123,0.0004552565515041,0.0348346605896949,0.0075443852692842
3.2683190917968723,0.0421797936795279,-0.2039982856310904,-0.0286047477155923,0.0260714367032051,0.0233478657901287,0.0169357452541589
3.2782829589843736,0.1157706611996516,-0.2075032250121235,-0.1502367386966943,0.0535539276897907,-0.0038619164843112,0.0305170677602291
3.2882480468749975,0.1771643469803035,-0.1633412810720503,-0.2539975574225187,0.073873184621334,-0.0353671573102474,0.0430799052119255
3.298211914062499,0.1849850306686014,-0.1254039107352495,-0.2017319481343031,0.086037702858448,-0.0460110120475292,0.0419030524790287
3.3081767578125003,0.1074845884893089,-0.1006638756237924,-0.0638578474044799,0.086385004222393,-0.0382324308156967,0.0456202514469623
3.31814111328125,0.0483565095530822,-0.0820138279505073,0.0578121374994516,0.0693911090493202,-0.0277707371860742,0.0380350351333618
3.3281049804687477,0.0088042513655498,-0.0401062388084828,0.1368938575208187,0.0616088882088661,-0.0157610476016998,0.0298082921653985
3.3380700683593787,-0.0485398667633533,0.0311488792404532,0.1904875005424022,0.0422485098242759,0.001142835477367,0.0224297381937503
3.3480339355468693,-0.0780375447306782,0.0750382898494601,0.2001771199077367,0.0297042392194271,0.0154809551313519,0.0156222432851791
3.3579987792968744,-0.0705260731220245,0.0685994889736175,0.134459323850274,0.0227475296705961,0.0205454882234334,0.0163122676312923
3.3679638671874983,-0.0105191289920359,0.0469382767856121,0.0250327344477176,0.0165650025010108,0.008869657292962,0.0084207896143198
3.3779274902343737,-0.0168386874023824,0.0250960089422762,-0.0255582196265459,0.0118810348212718,0.0001166462898254,-0.0029053683392703
3.3878925781249976,-0.0299669759795069,-0.0222859199576079,0.0259767372995615,0.009614891372621,-0.0004635348450392,-0.0011719865724444
3.3978566894531212,-0.0218821614623069,-0.1044302424199879,0.0937462051898241,0.0058638295158743,-0.0011903115082532,-0.0022961073555052
3.4078205566406226,-0.0240221691656857,-0.1197815408088266,0.0763210231363773,0.0039088390767574,-0.0069573475047945,-0.0025076451711356
3.417785400390624,-0.0261999515961855,-0.0545648261412978,0.0546995584368705,-0.0089473044499754,-0.0096929464489221,-0.0047937021590769
3.4277495117187478,0.002627024035342,-0.0035766894429922,0.0790776283681392,-0.0231938436627388,-0.0060895639471709,-0.0100810322910547
3.4377148437499976,0.0041365518154576,-0.0003523205690085,0.1288683719754219,-0.0290698446333408,0.0043002259917557,-0.0064287721179425
3.4476784667968694,0.026767120492272,0.0146358435958623,0.0916349121242761,-0.0323552712798118,-0.0010549209546297,-0.0099093122407794
3.457643554687497,0.0336194706050679,0.0265573136664927,0.0096697456210851,-0.0394118502736091,-0.00983243342489,-0.0125050963833928
3.4676076660156276,0.0197412039108574,-0.023619214387983,0.0537982256829738,-0.0430478826165199,-0.0035634587984532,-0.0109715331345796
3.477571777343748,0.0042076808229088,-0.0844090525239706,0.1140554182469844,-0.0439914390444755,0.0016629949677735,-0.0115222744643688
3.4875366210937493,0.0024859350642189,-0.1205409808740019,0.1094938094198703,-0.0494173094630241,0.0049492148682475,-0.0116769354790449
3.497500488281247,-0.0124073173588141,-0.1139040270775556,0.1683598398864269,-0.0597748756408691,0.0137275261804461,-0.0160743482410907
3.5074655761718745,-0.0327415917919948,-0.0980145301587879,0.2005857007086277,-0.0690623819828033,0.0264493580907583,-0.0138071216642856
3.517429687499998,-0.0271774913914501,-0.0771745712257921,0.1718459284365177,-0.0726059824228286,0.0300707258284091,-0.0089913289994001
3.5273935546874995,0.0207258675666525,-0.0175585991747677,0.0841775818556547,-0.0704026892781257,0.024516137316823,-0.003494038246572
3.5373586425781234,0.0509135736247524,0.0185449798636138,-0.0232078571081161,-0.070501759648323,0.0056028994731605,0.0044584269635379
3.547322753906247,0.0871456378810107,0.0429283104918897,-0.1111509289771318,-0.0683539062738418,-0.0096599236130714,0.0158010553568601
3.5572875976562486,0.1257509706072509,0.0365812795527279,-0.1391068573951721,-0.0657634437084198,-0.0202380008995533,0.016755798831582
3.56725146484375,0.1188563887879252,0.0070095865011215,-0.0833867237389087,-0.0671334713697433,-0.0213953256607055,0.020643226802349
3.57721557617187,0.1037144588334485,-0.0576303511917591,0.0092617493420839,-0.0602076575160026,-0.0176748894155025,0.0239026714116334
3.587180419921875,0.0910253653911873,-0.112128687968105,0.0493090975701808,-0.0592563189566135,-0.010299121029675,0.0302874017506837
3.5971447753906283,0.101125026862137,-0.1452618728935718,0.0178828626930713,-0.0537371821701526,-0.0131063582375645,0.0358249135315418
3.6071098632812486,0.1185087443940341,-0.1579587112508714,-0.0169739311546087,-0.0551553554832935,-0.0160617940127849,0.0395886488258838
3.617073486328124,0.0992186087189242,-0.1034336325980722,0.0232516962498426,-0.0539332330226898,-0.0159057341516017,0.0427471585571765
3.6270375976562477,0.0917302622575312,-0.0525033635668456,0.0366921925812959,-0.056581437587738,-0.0061633186414837,0.0514135360717773
3.637002685546875,0.1155109142849221,-0.0211474174469709,0.0317716873139143,-0.0500351265072822,0.0023902216926217,0.0604349933564662
3.646966552734373,0.1489870308965444,-0.0280497441813349,-0.0193441674172878,-0.0322941355407238,-0.0063051003962755,0.0699963048100471
3.656931396484378,0.1788653787445276,-0.1095683359608054,-0.1066898579150438,-0.0126405376940965,-0.0201649907976388,0.0776853784918785
3.666895507812498,0.1643812185790389,-0.1397640061296522,-0.1328185709059238,0.003207080066204,-0.0300044491887092,0.0786182135343551
3.6768596191406253,0.1476437265288084,-0.12194807119295,-0.0903577317953109,0.013164373114705,-0.0434251837432384,0.0803450047969818
3.6868244628906233,0.1094973530838265,-0.0636288609541952,-0.0406038130670785,0.0149832526221871,-0.0571216121315956,0.0846770331263542
3.696788574218747,0.1065829634744673,-0.0439630603671073,0.064456397819519,0.0310359895229339,-0.0454748123884201,0.0874696224927902
3.706753662109378,0.0857130477946251,0.0564908257678151,0.0761456665694713,0.0267216470092535,-0.0377695076167583,0.0853694975376129
3.716717773437498,0.0703466249018907,0.1015044181011617,0.0017787001103162,0.0112886298447847,-0.0264641214162111,0.0884518325328826
3.7266813964843735,0.1246137102056294,0.0282373757079243,0.0101630820959806,0.0003780014812946,-0.0196422692388296,0.0939137414097786
3.7366464843749974,0.1733580500325188,-0.0965599474363028,0.12006897944808,-0.0045480476692318,0.0115302968770265,0.0935811102390289
3.746610595703121,0.1405460964180529,-0.1082832645863294,0.1830383535802364,-0.0026398925110697,0.0354332327842712,0.1105302646756172
3.7565756835937485,0.1248119361914694,-0.0767320881552994,0.1198953764468431,0.0041503692045807,0.037443920969963,0.1267382651567459
3.76653955078125,0.1555387540949508,-0.0670284402646124,-0.0003320084333419,0.0213761888444423,0.0299752261489629,0.1333731561899185
3.7765036621093735,0.1528167087199166,-0.0546922519132494,-0.1481418122440576,0.0538827329874038,0.0149890845641493,0.1398611515760421
3.7864687499999974,0.1653974464168772,-0.0187193135172128,-0.279596109059453,0.0833764523267746,-0.004820660687983,0.1518502384424209
3.7964326171874987,0.2093719049608334,0.0081632865808904,-0.3404015831559896,0.1029208600521087,-0.0259744152426719,0.1554247438907623
3.8063974609375,0.1991563620252534,0.0502381951138377,-0.2608148362219333,0.1024477034807205,-0.0377602279186248,0.1542677730321884
3.816361572265624,0.1580141312325373,0.0326611834995448,-0.06363397552073,0.0901937037706375,-0.0248641390353441,0.1538643091917038
3.8263256835937476,0.1127107256397604,-0.0214218504741787,0.1426701028347015,0.0663936510682106,-0.0018393283244222,0.152938038110733
3.8362907714843786,0.0588230315750464,-0.0877722453467547,0.2728144860953092,0.0390264801681041,0.0200385395437479,0.1540608257055282
3.8462546386718692,0.0162867526080459,-0.1713454315684735,0.2991764233201742,0.0221903249621391,0.0284627266228199,0.1536058038473129
3.8562197265625002,0.0149108611449599,-0.2100216375738382,0.2356891627937555,0.0133068189024925,0.0319690443575382,0.1634334027767181
3.866183593749998,0.0208396301394328,-0.1975837424136698,0.1364028591334819,0.0116828931495547,0.030135178938508,0.1599576622247696
3.8761474609374993,0.0121248471556231,-0.1054250986762344,0.0321720848083496,0.0152909429743886,0.0219638030976057,0.1631891429424286
3.886112548828123,0.0493212629320099,0.0268275089100003,-0.0521282466441392,0.011878564953804,0.019562441855669,0.1763531863689422
3.896076660156247,0.112136286752671,0.1287850776061415,-0.0722661947876214,0.0041125211864709,0.0183799993246793,0.1798651069402694
3.9060415039062484,0.1283702497275546,0.1599219741478562,-0.0428811103492975,0.0011592246592044,0.0211425591260194,0.1789309233427047
3.916005859374998,0.1263479135870933,0.1404528651766479,-0.0105354225397109,0.0038359677419066,0.0222451090812683,0.185767263174057
3.9259697265624993,0.1153939368417486,0.0725365361616015,-0.013687164568901,0.0053330408409237,0.017003234475851,0.1894958168268203
3.9359345703124973,0.1208684592626988,-0.0494404688648879,-0.0090606738120317,0.0070875314995646,0.0148306265473365,0.1975020766258239
3.945898681640628,0.1328271560711786,-0.1066616547338664,0.0205699098199605,0.0040325624868273,0.0185062624514102,0.206371322274208
3.9558637695312484,0.1363118198491633,-0.0655247577033937,0.0449053096532821,0.0074206357821822,0.0245447140187025,0.2106475532054901
3.9658276367187497,0.1408756206333637,-0.0464960859760642,0.0101204119980335,0.0063581643626093,0.0239420682191848,0.2117904275655746
3.9757915039062475,0.138126723784022,-0.0609491203509271,0.0200642983853816,0.004619120620191,0.0276561118662357,0.2170451134443283
3.985756591796875,0.1508517287898808,-0.0901028802514076,0.0578986467391252,0.0013071801513433,0.032406996935606,0.218166783452034
3.9957204589843762,0.156621507830359,-0.0960635422214865,0.0979068320006132,-0.0051528494805097,0.039159707725048,0.2253370881080627
4.005685546875,0.1708445693742483,-0.0949476899340748,0.1168435876607894,-0.0151414303109049,0.0403109453618526,0.2306771576404571
4.015649658203124,0.1681949316482991,-0.0750000036656856,0.1415922444701194,-0.018316451460123,0.0457837432622909,0.240679994225502
4.0256137695312475,0.1706228529149666,-0.05713438436836,0.120725397530198,-0.0202017445117235,0.0479776188731193,0.2470194548368454
4.035578369140623,0.1676869090609252,-0.015776976455003,0.0440279422968626,-0.0189346130937337,0.0401220917701721,0.2562033832073211
4.04554248046875,0.2026755125947296,0.0234687000013887,-0.0368792395859956,-0.0277210846543312,0.0350960902869701,0.2605176866054535
4.055507568359378,0.1890584541199728,0.0537407964073121,-0.0071872811555862,-0.0349712744355201,0.0366308726370334,0.2625145018100738
4.065471679687498,0.1724130973326042,0.0305352773867547,0.0209288062602281,-0.034406628459692,0.042719267308712,0.2741347551345825
4.075435546874999,0.1803670885443687,-0.0304231953144073,-0.0015443068325519,-0.0342873185873031,0.034228578209877,0.2789529263973236
4.085400634765623,0.1644484385963529,-0.0616619447953999,-0.0048071080207824,-0.0389494486153125,0.0389035791158676,0.2854107916355133
4.09536474609375,0.1384190212614834,-0.0947498292744159,0.0482283165961503,-0.0396360121667385,0.0415094830095768,0.2889131009578705
4.105329589843748,0.1180825548712164,-0.095028500085324,0.1053431194812059,-0.0437776632606983,0.0485784076154232,0.2959649562835693
4.11529345703125,0.0960642363412305,-0.0273760827034711,0.0925029271304607,-0.0527509190142154,0.0534703657031059,0.2981119751930237
4.125257568359373,0.0800741285922005,0.0189369017906487,0.0823708246946334,-0.0571048855781555,0.0590586028993129,0.2962758541107178
4.135222656249997,0.0664268941748887,0.043701632951945,0.0832072755187749,-0.0579728111624717,0.0629390999674797,0.3008492887020111
4.1451865234374985,0.0720155444948002,0.0685617873117327,0.0281675253421068,-0.0538671649992466,0.0617019981145858,0.3040389120578766
4.155151855468748,0.0855003548920154,0.0787596484601497,-0.0478694201558828,-0.0532407872378826,0.0519636161625385,0.307892233133316
4.16511572265625,0.0838998974254354,0.0504230501614511,-0.0431833081662654,-0.0562118701636791,0.0510588809847831,0.3088156580924988
4.175079833984373,0.073588894758746,0.0264067992798984,0.0081306994855403,-0.0615818686783313,0.0557305999100208,0.3115635216236114
4.185044677734378,0.0578574014132842,-0.0067572191752493,0.0677501786679029,-0.0647927224636077,0.0680979043245315,0.3174592554569244
4.195008544921869,0.0328704423360526,-0.0420528428316116,0.0905704977631568,-0.0662108585238456,0.0725621581077575,0.3220004737377167
4.2049736328125,0.0233997264184057,-0.033372400508821,0.0512906267762184,-0.0704361349344253,0.0696344599127769,0.3198259770870209
4.214937499999998,0.013932882958278,-0.0283462429098784,0.023135376393795,-0.071281149983406,0.0680304393172264,0.3223991096019745
4.2249016113281215,0.0308241042654961,-0.0073990242101252,0.0165180040806531,-0.0690795630216598,0.0658202469348907,0.3268000781536102
4.234866455078123,0.0537292520999908,0.0131838912218809,0.0128524673104286,-0.0672198757529258,0.0601546354591846,0.3267377614974975
4.244830810546869,0.0524633968826383,0.0296704772509634,-0.0183785372555255,-0.063167355954647,0.0527346059679985,0.3318427503108978
4.254795654296874,0.0462294343965128,0.0413068467698991,-0.0184346513569355,-0.0548553690314292,0.0538914799690246,0.3279502689838409
4.264759765624998,0.0044410511873662,0.0486379203103482,0.0067746087014675,-0.058363988995552,0.0576943084597587,0.3188622891902923
4.274723632812499,-0.0175528635537251,0.0303759951718151,0.0363560924947261,-0.0619898810982704,0.0664478465914726,0.3125543296337127
4.284688476562497,-0.017490429309383,0.0452317651286721,0.0188175131946802,-0.0607907176017761,0.0585749521851539,0.313590943813324
4.294652587890628,-0.0236800046645104,0.0556361086346209,0.006495791760087,-0.060868214815855,0.0515902824699878,0.3004605174064636
4.304617675781248,-0.0763812654236331,0.0626681992284953,0.0526081391155719,-0.0700741559267044,0.0564669631421566,0.2893961668014526
4.3145815429687495,-0.0902747662195935,0.0416286260701715,0.0974491513609886,-0.0674482733011245,0.0630425736308097,0.2841111123561859
4.324545410156247,-0.0705406131040304,0.0491572680093348,0.1012970589607954,-0.0714675933122634,0.0665623098611831,0.2754057645797729
4.334510742187497,-0.0509037463504821,0.0292320858336985,0.0335375279426574,-0.075512945652008,0.0639164596796035,0.2713833153247833
4.344474853515628,-0.0415085433544591,0.0370437824979424,-0.0186222828835248,-0.0769545137882232,0.0492344498634338,0.2635634839534759
4.354439453125,-0.054847698203288,0.0422350675307214,0.0339712431848049,-0.0834272652864456,0.044197142124176,0.2526401281356811
4.364403564453124,-0.0719564712513238,0.0280273862190544,0.0902192001074552,-0.0846366584300994,0.0521593131124973,0.24809430539608
4.374367675781247,-0.0796580220719799,-0.0026334172435104,0.1001420437067747,-0.094475969672203,0.0580941662192344,0.2407722175121307
4.384332519531249,-0.0943030718876048,-0.0014637889422476,0.0824158328801393,-0.1082740575075149,0.0577210783958435,0.226971685886383
4.39429638671875,-0.113217615715973,0.0339126448653638,0.0685129797339439,-0.1179820820689201,0.0578646250069141,0.2155536562204361
4.40426171875,-0.0946537119561806,0.040887452314049,0.0513204373925924,-0.1236726939678192,0.0576719380915164,0.2103368937969207
4.414225830078124,-0.0627248613191768,0.0361252063482999,-0.0068318918466567,-0.1241408735513687,0.0496307872235775,0.2064303010702133
4.424189453124999,-0.0765463563248515,0.0877393659904599,-0.0688122549414634,-0.1160302460193634,0.036938302218914,0.2002796232700348
4.434154541015623,-0.1032970371389761,0.1379701084502041,-0.1273994684666395,-0.1109521314501762,0.0198855474591255,0.201252207159996
4.44411865234375,-0.1002338136434555,0.1161626196593046,-0.0942559082776308,-0.1102356761693954,0.0152154145762324,0.1914780884981155
4.454083496093748,-0.138734626549296,0.0935129809558391,-0.0173182145476341,-0.1098228842020034,0.0192964430898427,0.1873600333929062
4.464047363281249,-0.1390290794512257,0.0477127682894468,0.0537082093119621,-0.106131225824356,0.0251593720167875,0.1833525598049163
4.474011474609373,-0.1407767999013885,0.0098909871563315,0.0411707993000745,-0.1019151732325553,0.0284531693905591,0.1774611175060272
4.483976806640623,-0.145712466205284,-0.0212552617356181,0.0141407535552978,-0.0969888567924499,0.0318403579294681,0.1702272444963455
4.493940673828124,-0.1472829669250175,-0.0509725007377564,-0.0212625682592391,-0.0883010923862457,0.0314131863415241,0.1697723716497421
4.503905761718748,-0.1266237348537892,-0.0763037797406315,-0.0800678084492683,-0.074037030339241,0.0293932612985372,0.1627339124679565
4.513869628906249,-0.1033686045378446,-0.0527373184531927,-0.1391062728732824,-0.0585182607173919,0.018964322283864,0.161573052406311
4.523833740234373,-0.1163218653416261,-0.0509232547685503,-0.1578068816900253,-0.0479446724057197,0.0123720597475767,0.1524872481822967
4.533798583984378,-0.1429942567551508,-0.0212494165167212,-0.1340367145240306,-0.0416226014494895,0.0159300435334444,0.151217982172966
4.543762451171869,-0.1551808805679902,0.0150667823590338,-0.1130704988628625,-0.0375369861721992,0.0206828638911247,0.1406325250864029
4.5537275390625,-0.1700416920261457,0.0962923825412988,-0.088197923412919,-0.0239266343414783,0.0242925137281417,0.1304150372743606
4.563691406249998,-0.1758599863834679,0.1740606818765401,-0.0934650501608848,-0.0153794074431061,0.0291177928447723,0.121249534189701
4.573656738281247,-0.1717113057387992,0.1713394402191042,-0.1193178688198327,0.0016999766230583,0.0291156619787216,0.1076112166047096
4.583620849609378,-0.1475093230267986,0.1245154374629259,-0.1181961713135242,0.0145411724224686,0.0285258255898952,0.0996733605861663
4.593584716796869,-0.1547505993919447,0.0824978120751678,-0.0869832869261503,0.0352443195879459,0.027646716684103,0.0890920907258987
4.60354956054687,-0.1618302189219743,0.0450721906527876,-0.0823632259100675,0.0598506554961204,0.0221852511167526,0.0809953510761261
4.613513671874998,-0.1616018169935792,0.0189135209150612,-0.0953314285546541,0.0799335539340972,0.0137603413313627,0.0736090764403343
4.623478759765625,-0.176662352274917,0.0218865453764796,-0.0670914224982261,0.1024278253316879,0.009022194892168,0.0589121356606483
4.633442382812497,-0.1881646105527877,0.0504350328601896,-0.0259387433767318,0.1124218702316284,0.0065822065807878,0.0463473424315452
4.643406494140628,-0.1996111200554296,0.12818638106063,0.0537526329755783,0.1218406781554222,0.0103979837149381,0.0316453613340854
4.65337182617187,-0.2007829768463969,0.1492263926103711,0.0830114606857299,0.1272468864917755,0.0159629248082637,0.0213711522519588
4.663335693359379,-0.1813502178302034,0.125386082817614,0.0673801763117313,0.132603645324707,0.0167704746127128,0.0129868239164352
4.6732995605468695,-0.159484532578662,0.084348554508388,0.0702951869755983,0.1309117376804351,0.0088073555380105,0.0009208400733768
4.683264648437497,-0.1826634558532387,0.0579193972662091,0.110521983423829,0.1246669143438339,0.0098667806014418,-0.017647560685873
4.693228759765628,-0.2511418026652187,0.0638658845804631,0.1745434969574213,0.1263668090105056,0.0192951690405607,-0.0280682407319545
4.703193359375,-0.2547398636898025,0.0658630497470498,0.1173240646541118,0.1129530072212219,0.023544680327177,-0.0366757214069366
4.713157470703123,-0.250140334005095,0.0572599104441702,0.0621019436478614,0.1026532277464866,0.022836547344923,-0.0571266673505306
4.723122802734373,-0.2370818227285519,0.0861218477912247,0.0514396798580884,0.0818958654999733,0.0243112370371818,-0.0739684775471687
4.7330866699218745,-0.2443958355363458,0.1244829964980483,0.0831681125521659,0.064890518784523,0.0282306112349033,-0.0887780487537384
4.743050537109376,-0.2380306113533675,0.126236562167108,0.0813368054717779,0.0398506969213485,0.0293711014091968,-0.1045382246375083
4.753015625,-0.2220769996898248,0.0997929380081593,0.1052010806620121,0.0197704602032899,0.0347815789282321,-0.1164529398083686
4.762979736328123,-0.2271306663502007,0.0613498101063072,0.1274585051774978,0.0021140975877642,0.0388443693518638,-0.1311078071594238
4.772944580078121,-0.2277373635390773,0.0628949937216937,0.1116851819843053,-0.0094299064949154,0.0380392931401729,-0.1386831700801849
4.782908447265623,-0.2096917480323463,0.0328580212458968,0.044334816288948,-0.0177660919725894,0.0254795998334884,-0.1448090523481369
4.79287255859375,-0.1714259494587779,0.0013159049041569,0.0222679459095001,-0.0279851742088794,0.0170182045549154,-0.14771668612957
4.802837646484374,-0.1602706779876724,0.0395851375438272,0.0235655845046043,-0.0375111699104309,0.0176292657852172,-0.1558582186698913
4.8128017578124975,-0.1377658545823767,0.0397616631545126,0.0298129544615745,-0.0444015711545944,0.0141660897061228,-0.1599531024694442
4.822766601562499,-0.1329013538185507,-0.0147287825763225,0.0296598097264766,-0.051299262791872,0.016271473839879,-0.168957844376564
4.832730712890623,-0.1337888772428035,-0.0608710866786539,0.0719002840846776,-0.0532004944980144,0.0201184097677469,-0.1740101128816604
4.842694580078124,-0.1332635016618296,-0.0364423094734549,0.0684609572857618,-0.0495875775814056,0.0256479177623987,-0.1707193106412887
4.852659667968748,-0.0773068558359518,0.027445348547399,-0.0333311917155981,-0.0532363802194595,0.01095712184906,-0.1700639128684997
4.862623535156249,-0.0572867984510958,0.0334210619561374,-0.085370591032505,-0.0480242483317852,0.0007376528810709,-0.1779566407203674
4.872588378906247,-0.0751155928693711,-0.0227313256375491,-0.025015198791027,-0.0344655588269233,0.0043547581881284,-0.1832787096500396
4.882552490234378,-0.0995964290553703,-0.0542769491106271,0.0294511354118585,-0.0138457603752613,0.0020424253307282,-0.1871912628412246
4.892516845703124,-0.09203552881442,-0.0136532622992992,-0.0637169776290655,-0.0089788325130939,-0.0093777421861886,-0.1833595037460327
4.902481689453122,-0.0532349657770246,0.0181841837272048,-0.1182382568895816,-0.0121206687763333,-0.0226333681493997,-0.1910367459058761
4.912445556640623,-0.0379570248853415,0.0237888718664646,-0.0394388609409332,-0.0187269058078527,-0.0214519891887903,-0.2037040740251541
4.922410644531247,-0.0660221127662807,-0.0062948623605072,0.0331394685357809,-0.0183350704610347,-0.0154473716393113,-0.2166812121868133
4.932374755859378,-0.0909391484124585,-0.0390739731512963,0.0383095646500587,-0.0148836150765419,-0.0154468389227986,-0.2140492051839828
4.942338623046872,-0.0754728088092058,-0.0350529009416699,0.0313426482468843,-0.0166740678250789,-0.0238199941813945,-0.2155851274728775
4.95230346679687,-0.0802444071251898,-0.0009046937547624,0.0614087006866931,-0.0202224627137184,-0.0203355140984058,-0.2163545191287994
4.962267578124997,-0.0754451536173,-0.0079316697821021,0.1004512557864189,-0.0200306102633476,-0.01060183160007,-0.2216679900884628
4.972232910156247,-0.0750069813957437,0.029435353320837,0.0625251374959945,-0.0164899379014968,-0.008853998966515,-0.2309073060750961
4.982196533203123,-0.0659852513546124,0.0978191537171602,-0.0093897596359252,-0.019298592582345,-0.0111464373767375,-0.2384692579507827
4.99216064453125,-0.0553939704418182,0.1160603283286094,-0.0547223547905683,-0.0107269426807761,-0.0108739957213401,-0.2471255958080291
