time,ax,ay,az,gx,gy,gz
0.0,0.0599956190183758,-0.0340114290647208,-0.0837228238254785,-0.0130231194198131,-0.0119476104155182,0.0212402138859033
0.009963867187522624,0.0460455657295882,0.0103204646147787,-0.1047545059382915,-0.0124976774677634,-0.0230756290256977,0.0187395047396421
0.01992895507811454,0.0143560037411749,0.0282667479328811,-0.0369417834281921,-0.0182726699858903,-0.0190450120717287,0.0185291059315204
0.02989306640625955,-0.0019182547114789,0.0045794367447495,0.0532025978773832,-0.0243297629058361,-0.0100192921236157,0.0134403379634022
0.03985815429687989,0.0012898936800658,-0.0145884973227977,0.0584387449651956,-0.0258863344788551,-0.0067058489657938,0.0103728882968425
0.0498220214843883,0.0093362758830189,-0.0067697863958776,0.0275835879743099,-0.0223552472889423,-0.0103919301182031,0.0025349387433379
0.05978710937499443,0.0188992001287639,-0.0273928877077996,0.0256833073109388,-0.0201014876365661,-0.0124640585854649,-0.0021096053533256
0.06975097656250284,0.0088834906142205,-0.0042015433430671,0.0340957463473081,-0.0218652989715337,-0.0091084754094481,-0.0063733267597854
0.07971606445313739,0.0092240476801991,0.023795593868196,0.033241759866476,-0.0224853567779064,-0.0100215952843427,-0.0110109467059373
0.0896799316406458,0.0055258507493883,0.0331660642817616,0.0331833076775074,-0.0248089618980884,-0.0068111550062894,-0.0162669606506824
0.09964477539064376,0.0134043290395289,0.0355403921976685,0.050633039650321,-0.0244301669299602,0.0029023648239672,-0.0183551423251628
0.10960888671876035,0.0387718483995646,0.0323677535109221,0.0189507841855287,-0.0256088785827159,-0.0010654788929969,-0.0157737396657466
0.11957421875000307,0.0645787090249359,0.0127824708141386,-0.0251110603809356,-0.0248191095888614,-0.0013862794730812,-0.0156712252646684
0.1295378417968749,0.0808649501763284,-0.0440064611174166,-0.0522960044264793,-0.0217809733003377,-0.0042366608977317,-0.0114373322576284
0.13950292968752365,0.0760899908594787,-0.0728469172850251,-0.05662146641016,-0.0195703990757465,-0.0070432871580123,-0.0059337033890187
0.14946704101562602,0.0649999301116913,-0.0821539670735597,-0.055582771012187,-0.0182968769222497,-0.0113067412748932,0.0047900476492941
0.1594318847656382,0.0489114765547215,-0.0903248524390161,-0.0512076246678829,-0.0191055368632078,-0.0195163264870643,0.0065267230384051
0.16939575195311818,0.0215282334581017,-0.0965437269538641,-0.0038543373405933,-0.0186730399727821,-0.0202984977513551,0.0164722986519336
0.1793610839843751,-0.0015683452952653,-0.0796092510268092,0.0427127680450677,-0.0178395919501781,-0.0144900027662515,0.0178379956632852
0.1893251953125059,-0.0055030543956905,-0.0609554039612412,0.0376204133421182,-0.0158691182732582,-0.0155573990195989,0.0219195559620857
0.19929003906250387,-0.0087750983363017,-0.0660008507825434,-0.0204728791862726,-0.0125588066875934,-0.021343944594264,0.0207202900201082
0.20925390624999807,-0.0071819839259609,-0.040115298897773,-0.0310959800094366,-0.0064881308935582,-0.0202286131680011,0.0210886057466268
0.21921899414064683,-0.0071843950787559,0.0103517365358769,-0.042171500775218,-0.0011515710502862,-0.0165146477520465,0.0198108814656734
0.22918286132812682,0.0049345703253522,0.0206572958424687,-0.0664063628435134,-0.0015084347687661,-0.0211299061775207,0.0129849333316087
0.23914794921876137,-0.0121785866368561,0.0271329215973615,-0.0236620306164026,0.0022909035906195,-0.0170646682381629,0.0089204087853431
0.24911206054687796,-0.0323755714911967,0.0787473735004663,0.0027484219253063,-0.0013762693852186,-0.0153328161686658,0.0005120099522173
0.2590769042968759,-0.0268984917869791,0.1177975273847579,0.0127057523161172,0.0014575039967894,-0.0110612772405147,-0.0059759863652288
0.2690410156250067,-0.0360702247580513,0.1083013847649097,0.0311608619391918,-0.0036493740044534,-0.0088950619101524,-0.0124328210949897
0.27900610351564126,-0.0270042537163943,0.0886215556524693,0.0062280807346105,-0.0114190010353922,-0.0169275775551795,-0.0183242820203304
0.28896997070312125,0.0061308309052139,0.0687849285431206,-0.0007511106282472,-0.012362559325993,-0.0207870304584503,-0.0288221985101699
0.2989348144531192,0.008768266736716,0.0317488909602165,0.0354191039055585,-0.0180035550147295,-0.0181551873683929,-0.0347182527184486
0.3088989257812358,0.0051095615660771,0.0032842823676764,0.077642042607069,-0.0222092196345329,-0.0128680132329463,-0.0399359166622161
0.31886376953126216,-0.0007732859274372,-0.0359296837761998,0.1127723926991224,-0.0271771736443042,-0.0018142024055123,-0.041665643453598
0.32882812500000114,0.0056541167715564,-0.0409115638419985,0.1106686984181404,-0.0316451601684093,0.0056759379804134,-0.0438142828643322
0.3387932128906357,0.0126849652564153,-0.015539222176373,0.0779097536325454,-0.0330586358904838,0.0099208736792206,-0.0370504111051559
0.3487570800781157,0.0432400433221831,0.0166584354646503,0.0261415724724531,-0.0290614962577819,0.0113262245431542,-0.0342466346919536
0.35872192382812784,0.0845827651230618,-0.0039954993769526,-0.0674187547564506,-0.0292370449751615,-0.0016438218299299,-0.0326068550348281
0.36868603515625864,0.1026390846868976,-0.0370063730970025,-0.0801473034262657,-0.0262513756752014,0.0007623443379998,-0.0280424635857343
0.378651123046879,0.0859407921358943,-0.0530650891028344,-0.0178933840870857,-0.019484918564558,0.0124289793893694,-0.0197591930627822
0.388614746093765,0.0878091432910412,-0.0859479525290429,-0.0123848497986793,-0.0161570310592651,0.0111533254384994,-0.0120842298492789
0.39858007812500773,0.0891605213673785,-0.1038042194761335,-0.0629465777784585,-0.0040530553087592,0.003285611514002,-0.0047539267688989
0.4085441894531243,0.0711281306684017,-0.1231705987252295,-0.0681944153040647,0.0013867169618606,0.0028376677073538,0.0069932765327394
0.4185090332031365,0.0767990159116685,-0.1268694532431662,-0.0575567014336586,0.008947885595262,0.0019421554170548,0.0194105841219425
0.4284729003906449,0.0865478546509519,-0.1061008059807121,-0.0493470914930105,0.0216466374695301,-0.0009987733792513,0.0294056944549083
0.4384379882812368,0.0877656694754958,-0.1031025009475648,-0.0503396096616983,0.0336905270814895,-0.0069385040551424,0.0404912307858467
0.448398193359381,0.0931183190824463,-0.0717602910920977,-0.0896533829182386,0.0403771921992301,-0.0173543952405452,0.048062328249216
0.458363037109379,0.0920479499045759,-0.0634488282121717,-0.0523638089656829,0.0439299903810024,-0.0228808224201202,0.0520923025906086
0.468327148437524,0.0632828239955008,-0.0705006464198231,0.0499631775647401,0.0433901660144329,-0.0141134308651089,0.0526888519525527
0.47829199218752194,0.0448977839339524,-0.0354540290884673,0.1093500170350074,0.039216112345457,-0.0124683361500501,0.0532288961112499
0.4882561035156243,0.0343155631104484,-0.0142386609718203,0.0621095424324274,0.0338040366768837,-0.0186756309121847,0.0481393299996852
0.49822119140625887,0.0205097405979409,0.0175629830889403,0.0512193151056766,0.0304991491138935,-0.0144202606752514,0.0417602621018886
0.5081853027343755,0.0182705103037878,0.044059652609378,0.0859247177839279,0.0218739714473485,-0.0098619945347309,0.0383159965276718
0.5181501464843876,0.0032711671577766,0.0777459413729608,0.0779810653030872,0.014630458317697,-0.0114652318879961,0.0318834073841571
0.5281140136718818,0.0015712679047137,0.0683383538194,0.0524520717710256,0.0023508891463279,-0.0116572463884949,0.0270415153354406
0.5380791015625022,-0.008676094941236,0.0587739682689309,0.0598690700292587,-0.0040806448087096,-0.0106244720518589,0.0191036984324455
0.5480429687499964,-0.0253728896548971,0.0615234131075441,0.0687409432709217,-0.0100639685988426,-0.0115270176902413,0.0166168380528688
0.5580083007812391,-0.0463590521255508,0.0649557256437838,0.0517716882914304,-0.0178367551416158,-0.0167759973555803,0.014533762820065
0.5679721679687617,-0.0415655707713216,0.0716558078043162,0.0340577524244785,-0.0240115597844123,-0.0234938208013772,0.0080977017059922
0.5779370117187597,-0.0261898685935884,0.047891339726746,0.0314227277457714,-0.0266540143638849,-0.0271926391869783,0.0063927108421921
0.5879011230468763,-0.0195554355477914,0.0092357381179928,0.0419318468004465,-0.0335079245269298,-0.0255433432757854,0.006110948510468
0.597866210937525,-0.0162520466208457,0.0004361994601786,0.0758504830151796,-0.0348564647138118,-0.0272944327443838,0.0034305239096283
0.607830078125005,-0.0156403079306706,0.0099020930722355,0.0806090757191181,-0.0350103937089443,-0.0215201675891876,0.0015628491528332
0.6177951660156253,-0.0095983608853071,0.0137209207080304,0.1072311251848936,-0.0419590100646019,-0.00645985128358,-0.0005765073001384
0.6277592773437561,-0.0014523542327806,0.0185486331254243,0.0795931766748428,-0.0449007377028465,-0.00699780927971,-0.0047387620434165
0.6377233886718869,0.0151500036630779,0.0724177320875227,-0.0094862057477235,-0.0469375625252723,-0.0135025503113865,-0.0091681536287069
0.6476879882812625,0.0173646840378642,0.0970141209445893,-0.0302735577106475,-0.0367581620812416,-0.0134753854945302,-0.0088776033371686
0.6576520996093791,0.0223840465698391,0.1289222941197454,-0.0092278470724821,-0.028060769662261,-0.0069690472446382,-0.0096722682937979
0.6676171874999994,0.039318522496894,0.0730200818948447,-0.0165302790403366,-0.0172113180160522,-0.0048129521310329,-0.013244898058474
0.677581054687522,0.0607432590479031,0.0138804951839148,-0.0463929178625345,-0.001407113391906,-0.0092701911926269,-0.010647720657289
0.6875458984375058,0.0729915864527225,-0.0261108850732445,-0.0499012182444334,0.0124106975272297,-0.0135158021003007,-0.0114160412922501
0.6975100097656366,0.0847705793127417,-0.0631193039968609,-0.0388198522597551,0.0227342341095209,-0.0199290551245212,-0.0105622960254549
0.7074750976562569,0.0710707379253581,-0.07052519633919,-0.0158013802438974,0.0339168459177017,-0.0254620388150215,-0.0122041339054703
0.7174392089843877,0.0583566196396946,-0.0351657136663794,-0.0024175825357437,0.0346474610269069,-0.026917316019535,-0.0125511828809976
0.7274040527343857,0.0519015982814133,-0.0111485860019922,0.0311889189898967,0.0335632860660553,-0.027644358575344,-0.0158396549522876
0.7373681640625023,0.0339233854550868,-0.0138128367751836,0.087034140330553,0.0216859318315982,-0.0152897676452994,-0.0185326505452394
0.7473330078125002,0.0350579059103503,-0.0449248911365866,0.1109866783261299,0.0147364130243659,-0.0055135693401098,-0.0190961752086877
0.7572971191406452,0.0343364597680047,-0.0469495288319885,0.0516933623582124,0.006883836351335,-0.0130609823390841,-0.0219398867338895
0.7672622070312372,0.0072228273930028,-0.0223404266238212,-0.0048111996740102,-0.0040196776390075,-0.0138825690373778,-0.0225545447319746
0.7772260742187598,0.0087020331000909,0.0398261066928505,0.0017149872243404,-0.0131418192759156,-0.0104084815829992,-0.0246371962130069
0.7871911621093801,0.0021545842180028,0.0665137687407434,0.00675122782588,-0.0211169216781854,-0.0090119205415248,-0.0253232270479202
0.7971552734375251,-6.36398207396e-05,0.0893343800969421,0.0090472298085689,-0.0231695920228958,-0.0058551020920276,-0.0245999097824096
0.8071201171875231,0.0195018421970307,0.0832812175378203,-0.0021639000356197,-0.0039538196288049,-0.0014542283024638,-0.0142239676788449
0.8170839843750031,0.1047631276361644,0.0024824644654989,-0.135445996800065,-0.0030089300125837,-0.0406045578420162,-0.0198863819241523
0.8270490722656376,0.0630019612275064,0.0023557693459093,-0.1525578751206397,-0.0034496835432946,-0.0340071097016334,-0.0221287608146667
0.8370129394531176,-0.0168272526929154,-0.0082122402891516,0.0835527279555797,-0.0162105821073055,0.0041161542758345,-0.016625827178359
0.8469782714843745,-0.037747181526944,-0.0304702493265271,0.216793908187747,-0.017559740692377,0.0315560325980186,-0.0130713060498237
0.856942138671883,-0.0120269397391006,-0.0326155907921493,0.1177291383236646,-0.0109511967748403,0.0264122504740953,-0.009271191433072
0.8669069824218809,0.0402036347683519,-0.0306833075553178,-0.0915957491576671,-0.0006452961824834,0.0100756222382187,-0.0038745612837374
0.8768710937499975,0.0652382323795929,-0.0128467682220041,-0.1452817466378212,0.0100073479115962,-0.0017176538240164,0.0036842883564531
0.8868361816406463,0.0602105769433081,-0.0046862581200897,-0.1115624323874712,0.0193787273019552,-0.0005163282621651,0.0105151832103729
0.8968000488281263,0.0523411587424576,-0.0003442833930253,-0.040293431943655,0.0232128575444221,0.0030230693519115,0.0128077222034335
0.9067651367187608,0.0357398602925241,-0.0203149121455848,0.0020353052198886,0.0217089708894491,0.005603406112641,0.0183992944657802
0.9167292480468774,0.0252081640798598,-0.0522166555799543,0.0074941551476716,0.0130196306854486,0.0018112745601683,0.0158154070377349
0.9266933593750082,0.0287267301274463,-0.0866658915400505,0.0055921209186315,0.0115386471152305,0.0006429457571357,0.0144888861104846
0.9366579589843838,0.0157395305214449,-0.0771447606094181,0.0552361495316028,0.0048779631033539,0.0078730452805757,0.0097030056640505
0.9466220703125003,-0.0044787893818691,-0.027444325634092,0.0943435865610837,0.0005354126915335,0.0159789100289344,0.0049908082000911
0.9565871582031207,-0.0016248247228562,0.0142787007212638,0.0950403366535902,-0.0052194986492395,0.0286633279174566,0.0056019010953605
0.9665512695312373,0.0180384185809642,0.0374684376507997,0.0605985533475875,-0.009342604316771,0.030195977538824,0.0014529624022543
0.9765158691406413,0.0269522312682122,0.0469080277778208,-0.0081821374118328,-0.0108233708888292,0.0200763065367937,-0.0014719110913574
0.9864799804687578,0.0239898012660443,0.0417770946301519,-0.0396504578649997,-0.0084366463124752,0.0132788540795445,-0.0029944400303065
0.9964450683593782,0.012177490658313,0.0442063676036894,-0.0050122752040624,-0.0083465538918972,0.0156676303595304,-0.0021646064706146
1.0064091796875232,0.008149294588156,0.0491249731749296,0.0260468799263238,-0.0078085954301059,0.0099602099508047,-0.000270300079137
1.016374267578115,0.0105425829328596,0.0267113351844251,0.0046375966727733,-0.0109702423214912,0.0057723242789506,0.0034304107539355
1.0263381347656377,0.0078597005244344,-0.0213176594473421,0.0084954411447048,-0.0154275745153427,0.0020012883469462,0.0025702097918838
1.0363029785156357,0.0019066373389214,-0.0299357040584087,0.0285433729171752,-0.0159932188689708,0.002765386365354,0.0027314363978803
1.0462670898437665,0.0050643341848626,-0.0310430807784199,0.0333931510359048,-0.0178803354501724,-0.003098894143477,0.0038646112661808
1.056232421874995,0.0274513033641502,-0.0400780356273055,0.0114876086980104,-0.019342191517353,-0.0068126809783279,0.0044775446876883
1.066196044921881,0.0246184180257841,-0.0541902937404811,0.0222445650339126,-0.0195291452109813,-0.0049753664061427,0.0010657692328095
1.0761611328125014,0.0013605842960998,-0.0561105942785739,0.055683308777213,-0.0190475676208734,0.0060575385577976,-0.0024433834478259
1.0861252441406464,-0.0039288638815283,-0.0142814772002398,0.0332376682132482,-0.0131958033889532,0.0065688653849065,-0.0063169505447149
1.0960900878906443,0.0101425142319872,0.0317499138735234,-0.0233645089745521,-0.0148132033646106,0.0027621882036328,-0.0113285221159458
1.1060539550781243,0.0109142657894641,0.0736963737212121,-0.0635194092303514,-0.0116621516644954,0.0014178246492519,-0.0166188906878232
1.1160190429687589,0.0106516693305224,0.0870791485160589,-0.0442570748776197,-0.015212383121252,0.0081081595271825,-0.0240135118365287
1.1259831542968755,0.0150271810010075,0.0680571987904608,-0.0042231706529855,-0.0149710997939109,0.0139980074018239,-0.0291558112949132
1.1359472656250063,0.0079359075658023,0.0435500956520438,4.6761751174e-06,-0.0123538309708237,0.0157432779669761,-0.0332503654062747
1.1459121093750042,0.0111509240895509,0.0140527830109,-0.0130827689349651,-0.0028431499376893,0.0114771602675318,-0.0332943089306354
1.1558762207031208,0.0205369939310476,-0.0200282041586935,-0.0462123005986213,0.0024533690884709,0.0041528986766934,-0.0323473252356052
1.1658410644531187,0.0370001260193064,-0.0606513064481318,-0.0713788905590772,0.0160037986934185,-0.0039942441508173,-0.0340317748486995
1.1758051757812353,0.0494357561571523,-0.0929300665013492,-0.0462146386861801,0.0326669327914714,-0.0050328765064477,-0.0265826471149921
1.1857700195312617,0.0575326264383271,-0.0910576967582106,-0.0494055436819791,0.0399261750280857,-0.0131698986515402,-0.0221578050404787
1.195733886718756,0.076665087333694,-0.0546441749878227,-0.0998340006709098,0.0447673648595809,-0.0223421864211559,-0.0211703013628721
1.2056992187499986,0.0756234693262726,-0.0045716918297111,-0.0745820705145597,0.0474126823246479,-0.0259632859379053,-0.0188075434416532
1.2156633300781152,0.0761000007968396,0.0139545833334326,-0.0305547127395868,0.0497984886169433,-0.0186447892338037,-0.0175989661365747
1.225627929687505,0.0571557194173336,-0.0347952729187905,0.0058639235973358,0.0448346212506294,-0.016956876963377,-0.0176026951521635
1.2355920410156358,0.0400686832770705,-0.0551961097821593,0.061569444206357,0.0455500073730945,-0.0074238907545804,-0.012501960620284
1.245557128906242,0.020996683864668,-0.0574620088875293,0.0693628745615482,0.0474051646888256,-0.008048933930695,-0.010943479835987
1.255521240234387,0.0048919002274051,-0.0978634312503039,0.0243669640153646,0.0420069582760334,-0.0089181847870349,-0.0102339517325162
1.2654858398437625,-0.0020888255054131,-0.045401568737626,-0.017062778481841,0.0357179008424282,-0.0166916847229003,-0.011307206004858
1.2754501953125015,-0.0148255940143018,0.0170714001797139,-0.013646248036623,0.0365764871239662,-0.0222598295658826,-0.0098190922290086
1.2854150390624994,-0.0314672244746238,0.0365868325106799,0.0402133524447679,0.0319143570959568,-0.0124719124287366,-0.0115426909178495
1.2953791503906444,-0.0227172971121966,0.0203277716271579,0.1169148993313312,0.0196775943040847,0.0014370346907526,-0.0118434019386768
1.3053442382812364,-0.0011075228504836,0.0576266979299485,0.1011795700609684,0.0100140487775206,0.0108379926532506,-0.0164267029613256
1.315308105468759,0.03501549154073,0.0447191394314169,0.0330079511106014,0.0075593357905745,0.0126367714256048,-0.0186421778053045
1.325272949218757,0.0356059317145496,-0.0106738080970942,-0.0054933367192745,0.0039198594167828,0.0047511518932878,-0.0158543810248374
1.3352370605468877,0.0203231685172766,-0.0325930866993963,-0.0141401690334081,0.0026200991123914,-0.0029881158843636,-0.012205027975142
1.345200927734382,-0.0005221241779625,-0.0279812089897692,-0.0064876084536314,-0.000663312152028,-0.0054131899960339,-0.0113869057968258
1.3551660156250023,-0.0232884115310385,-0.020988719753921,0.0380354238837957,-0.0070120990276336,-0.0005688206292688,-0.0065450058318674
1.3651301269531189,-0.038754312742874,-0.0067053428575396,0.0929834041237831,-0.0145206153392791,0.0112460274249315,-0.0022735618986189
1.3750952148437676,-0.0261320374591276,0.009204612327367,0.0987456209123134,-0.0189242307096719,0.0199152491986751,0.0004503773525357
1.3850593261718842,0.0089229458417743,0.0077355626881122,0.0947182650923728,-0.0209418423473835,0.0261145550757646,0.005083744879812
1.3950239257812598,0.0376818612057715,-0.0269030583642423,0.0553559765189886,-0.0194366984069347,0.0259628146886825,0.0053129997104406
1.4049880371093764,0.0433365990318357,-0.0792613143719732,0.0139466922879219,-0.0148235708475112,0.0205544661730527,0.0059652077034115
1.4149531249999967,0.0257101587852463,-0.0838819599099457,-0.014147767817974,-0.0130340382456779,0.0150136006996035,0.0060072713531553
1.4249172363281275,0.0051934404572471,-0.0603670826792717,-0.0135293436586856,-0.0145456492900848,0.0149302445352077,0.0037696836516261
1.4348820800781255,-0.0180360439607873,-0.0371304378680884,0.008834463840723,-0.01618586294353,0.019513240084052,-0.0033814734779298
1.444846191406242,-0.0331861572217196,-0.0075295187219977,0.0300035085976123,-0.0190705992281436,0.0297248642891645,-0.0091418903321027
1.4548146972656468,-0.0357076385233551,0.0321839213766157,0.0420598570942878,-0.0241481810808181,0.0360967442393302,-0.010221803560853
1.4647785644531268,-0.0047045244291424,0.0213878020741045,0.0068336454123258,-0.0222331024706363,0.0351137742400169,-0.0169931575655937
1.4747438964843838,0.0248636614911258,-0.0113444008350372,-0.0462561397403478,-0.0150052495300769,0.0327512547373771,-0.0168756917119026
1.484707763671878,0.0370360375829041,-0.0096625852279365,-0.0627110154569149,-0.006596318911761,0.0330039896070957,-0.015338247641921
1.4946728515625267,0.0579578661130741,-0.0139430390261113,-0.0886041661262512,0.0028848005458712,0.0280955154448747,-0.0190259274095296
1.5046367187500067,0.0643237478831783,-0.0191257023610174,-0.1179360590726137,0.0116561884060502,0.0146486824378371,-0.0228121429681777
1.5146008300781375,0.0443786188980564,-0.0083327979288995,-0.0843739812105894,0.0197106190025806,0.015390932559967,-0.0229924600571393
1.5245656738281212,0.0204730618493631,-0.0158744454801082,-0.032702830684185,0.0271733291447162,0.0154284834861755,-0.0195372737944126
1.5345297851562378,0.0286083644447848,-0.0223674607612192,-0.030091771402955,0.0290000531822443,0.016100600361824,-0.0193175803869962
1.5444946289062358,0.0482027437634766,-0.027341742042452,-0.0421580567717552,0.034046746790409,0.0075398683547973,-0.021944522857666
1.5544584960937584,0.053530733853206,-0.0156686937749385,-0.0199959093242883,0.0344378389418125,0.0053716544061899,-0.020555917173624
1.5644238281250011,0.0540742661453783,0.0079068276017904,0.0544388616740703,0.0269940346479415,0.0132652642205357,-0.021795617416501
1.5743879394531177,0.0440211472298949,0.0387896032519638,0.1130704988628625,0.0202016215771436,0.03180518373847,-0.0255508534610271
1.5843525390625217,0.0442946304090321,0.0647140258423984,0.1089507885843515,0.0137589015066623,0.0344624854624271,-0.021672224625945
1.5943166503906383,0.0755662592463195,0.0291435307674109,0.0466430932313203,0.0135150691494345,0.0327571332454681,-0.0189294721931219
1.6042817382812586,0.0894894975934177,-0.0499310288608074,0.0199906486272811,0.0158759616315364,0.0292532127350568,-0.0157150365412235
1.6142458496093752,0.0846655845683067,-0.1112599423095583,0.0114519528627395,0.0242949835956096,0.0353523939847946,-0.0091139283031225
1.6242109374999956,0.0789537827927619,-0.1340446055695414,0.000637713381648,0.0308213271200656,0.0334932394325733,-0.0049609947018325
1.634174804687504,0.0561249150648713,-0.0872631267808377,-0.0147971716374158,0.0369254797697067,0.0378627628087997,-0.0005755606107413
1.644139648437502,0.0571688711598515,-0.0391667660012841,-0.0293237096399068,0.0444033704698085,0.0400130003690719,0.0026830830611288
1.654103759765647,0.0529318181119859,-0.0039507834523916,-0.0591191284447908,0.0505188032984733,0.0349037013947963,0.0065667247399687
1.664067626953127,0.0489987164467573,0.0298911342643201,-0.1222661972314119,0.0598688945174217,0.0210818964987993,0.0080548990517854
1.6740327148437615,0.0321919585525989,0.0440292574711143,-0.1278986501604318,0.0803514719009399,0.0326779074966907,0.0177800394594669
1.6839965820312415,0.0381195219706743,0.0548426201693713,-0.1141162085235118,0.0968180671334266,0.0263270698487758,0.0271999053657054
1.693961669921876,0.0590061695896089,0.0657990446001291,-0.2425023499399423,0.1098115444183349,-0.0037037308793514,0.02768374979496
1.7039257812500068,0.0648285921327769,0.0285113703437149,-0.2425730770885944,0.1163575947284698,-0.0178102292120456,0.0315794236958026
1.7138906250000048,0.0342853506352752,-0.0221317523092031,-0.0770370624512434,0.1170018389821052,-0.0137020414695143,0.0314841493964195
1.7238547363281214,0.00237542389445,-0.0410831210166215,0.0726315209686756,0.1086520329117775,-0.0112519329413771,0.0312063824385404
1.733819824218756,-0.0155349113274365,-0.0554474541947245,0.11208674852252,0.096431940793991,-0.0070660701021552,0.0287525486201047
1.7437839355468867,-0.0288495893221348,-0.0606241261802613,0.1260708502113819,0.0830895006656646,-0.0088663669303059,0.0223098304122686
1.7537485351562623,-0.0316631854381412,-0.0375841729849576,0.1325958680659532,0.0663510784506797,-0.0100805908441543,0.0165653266012668
1.7637126464843789,-0.0433887676104903,0.0047235213905572,0.1730284162193536,0.056709099560976,-0.0064634857699275,0.0185009110718965
1.7736777343749992,-0.0360072790570557,0.0515245816625654,0.130966221037507,0.0451254658401012,-0.0100825075060129,0.0048441952094435
1.7836418457031158,-0.0265722920399159,0.0814827898137271,0.0649205081999301,0.0374241359531879,-0.0137936230748891,-0.0039903093129396
1.793606689453128,-0.0218324771016836,0.139049281989038,0.0456727868944406,0.0231390334665775,-0.0215941034257411,-0.013507854193449
1.8035708007812588,-0.0142286510344594,0.1428577343612909,0.0627706366896629,0.0124469753354787,-0.0188190899789333,-0.0254936777055263
1.8135346679687672,-0.026901231733337,0.1100584575653076,0.1048807626664638,0.0036440826952457,-0.0082635823637247,-0.0315873064100742
1.8234997558593875,-0.0380817472435534,0.0633763474978506,0.1336246265918016,-0.0146078914403915,-0.0040272916667163,-0.0377493277192115
1.8334636230468817,-0.0479514724161475,0.0493808476321399,0.1279372286051511,-0.0247844122350215,-0.0015491680242121,-0.041002083569765
1.843428710937502,-0.0382640450078994,-0.003573182311654,0.093432901456952,-0.0328034572303295,-0.0020770062692463,-0.0411951653659343
1.853392822265647,-0.003810571264103,-0.0478657668940722,0.0402829105496406,-0.0418534055352211,-0.0102939363569021,-0.0364723689854145
1.863357910156239,0.032311201018095,-0.0842220055192708,0.018441081097722,-0.049174964427948,-0.0160847138613462,-0.032335415482521
1.8733217773437616,0.0533984127104282,-0.0833363087259232,0.0009814122527837,-0.0525731295347213,-0.0214342214167118,-0.0296729803085327
1.8832866210937595,0.0620944909937679,-0.053809039337933,0.0144534727662801,-0.0608441084623336,-0.0245482549071311,-0.0234944447875022
1.8932507324218761,0.0749426474552601,-0.0671738400846719,0.0251882172703742,-0.0636926889419555,-0.0160854719579219,-0.0184464640915393
1.903215820312525,0.1100308389060199,-0.105819358690828,0.018627543580532,-0.0657481178641319,-0.0156676229089498,-0.0121385008096694
1.9131794433593825,0.1328147715136408,-0.0968624375142157,-0.041339726126194,-0.0640235543251037,-0.0260072536766529,-0.0045541496947407
1.9231447753906252,0.1340749276425689,-0.0906511617839336,-0.0607294862508773,-0.0499138608574867,-0.0328925885260105,0.0031746099703013
1.933108886718756,0.1195390372898429,-0.0938242388620972,-0.000744096365571,-0.044111780822277,-0.0251785740256309,0.0124196410179138
1.9430737304687682,0.1200217062402516,-0.1142811898268759,0.0283241772085428,-0.0354767441749572,-0.0163057204335927,0.0175486244261264
1.9530375976562624,0.1170558421719819,-0.089255323511362,-0.0190986682236194,-0.025380564853549,-0.0225059818476438,0.0201280806213617
1.963001708984379,0.1224702684361487,-0.0665301353536546,-0.0399099855840206,-0.0164166316390037,-0.0247984305024147,0.0233403835445642
1.972966552734377,0.1084859840841963,-0.1041299442991614,-0.0294137260109186,-0.0115058217197656,-0.0282945521175861,0.0258161332458257
1.982930664062522,0.0665897565864026,-0.1089998884230852,-0.0048030163675546,-0.0058063911274075,-0.0315737016499042,0.0290867611765861
1.9928959960937647,0.0203489970782771,-0.0464843955382704,0.013196750703454,-0.0067817694507539,-0.032573077827692,0.0280219502747058
2.002859863281259,-0.0374971157560125,0.0540203440010547,0.054584992146492,-0.0152301155030727,-0.0260664410889148,0.0264996867626905
2.012824707031257,-0.0414042792623862,0.1098190958514809,0.0663905807524919,-0.0270638018846511,-0.0127083370462059,0.0228619072586298
2.0227888183593876,-0.0284307063229382,0.111767891831696,0.0869821178823709,-0.0364538393914699,-0.0004804325290024,0.0200168509036302
2.032753906250008,-0.008094203400053,0.0870509453348815,0.0582446836978197,-0.0393454246222972,0.004236745648086,0.0158383455127477
2.0427175292968798,0.004601100587286,0.0599643470972776,-0.0092979896992444,-0.0404317304491996,-0.0053972396999597,0.0119440043345093
2.0526826171875,0.0126896048989146,0.0496451976567506,-0.0718149438887834,-0.0425265282392501,-0.0167823154479265,0.0118757430464029
2.062646728515645,0.0047419338300824,0.0180218327723443,-0.0613800591140985,-0.0457465574145317,-0.0190340187400579,0.0038042338564991
2.072611816406237,-0.0088407839836552,-0.0073119304485619,0.0257820915102958,-0.0514836013317108,-0.0126956272870302,0.0017893030308187
2.0825756835937597,-0.0232058112815022,-0.0510945196822285,0.1053594860941171,-0.0563934072852134,-0.0021660218480974,0.0063212043605744
2.0925397949218763,-0.0289206452643498,-0.0708782475605607,0.1175087735712528,-0.0626117140054702,0.0104159098118543,0.0041467295959591
2.102504882812525,-0.0196250667179003,-0.0742217127695679,0.0920563524067401,-0.0571058988571167,0.0144777633249759,0.0081662386655807
2.1124685058593826,-0.0087811262182891,-0.0624874358341097,0.0216045135647058,-0.054553672671318,0.0143327675759792,0.0087534245103597
2.122433593750003,0.0059510173588991,-0.0552487167522311,-0.0317424612194299,-0.046850748360157,0.0111361742019653,0.0093867238610982
2.1323977050781195,0.0156589395659044,-0.0264567759014666,-0.0675935268014669,-0.0367208383977413,0.0092466222122311,0.0090064527466893
2.1423627929687683,0.0210283941771835,-0.0032632395796477,-0.1007411786437034,-0.0317812040448188,0.011230144649744,0.0071715349331498
2.152326904296885,0.0203453803490847,-0.008141659270972,-0.0983043068856,-0.0230135023593902,0.0073088658973574,0.0048349071294069
2.162291748046883,0.0111345209440216,-0.0210401576802134,-0.0855991390913724,-0.0103347264230251,0.0076060742139816,0.0061736782081425
2.172255615234377,-0.008194010512717,-0.0079996204517781,-0.0826385357201099,-0.0076088360510766,0.0071231080219149,0.0084762815386056
2.1822207031249974,0.0038069180022925,-0.0061496086709201,-0.0924339535474777,-0.0017576050013303,0.0086847860366106,0.0077718752436339
2.192184814453128,0.0140414213666692,-0.0116074356853961,-0.0543266334712505,0.002574766986072,0.0046746395528316,0.0095478426665067
2.2021494140625038,0.0142131612043827,-0.0328840324699878,-0.0136661217808723,0.0100593147799372,0.0083127841353416,0.0082812430337071
2.2121135253906345,0.0071135583322495,-0.0505728338956832,0.0187070385575294,0.0207613464444875,0.0109417494386434,0.0139328148216009
2.2220778808593877,0.0093948376698419,-0.0318852306909859,0.0032429274439811,0.0219453889876604,0.0110834296792745,0.0144912786781787
2.232042968750008,0.024024689916335,-0.0297844590194523,-0.0120206926614046,0.0159920156002044,0.0078195929527282,0.0151631608605384
2.24200659179688,0.0120695367718115,-0.035767917343229,0.0279237797141075,0.0078256987035274,0.0066422102972865,0.0145775321871042
2.2519716796875002,0.0087959584612399,-0.0246386205635964,0.0810720170557498,0.0006862673908472,0.0158322732895612,0.0145897641777992
2.2619357910156452,0.0044128114735707,-0.0536740147814154,0.1298778412789106,-0.0134079810231924,0.0218193251639604,0.0135252978652715
2.271900634765643,-0.0060074602538719,-0.0445144106395542,0.1280436115890741,-0.0239424463361501,0.025031428784132,0.0116652995347976
2.2818645019531374,-0.0132692314177751,-0.0212929633975028,0.117877606883645,-0.0355120152235031,0.0305372476577758,0.0117678316310048
2.29182983398438,-0.006687441874668,-0.0213018773563206,0.097080902570486,-0.0432901754975318,0.0313885286450386,0.0155897662043571
2.301793945312525,0.0010649258177727,0.0056780456364154,0.0616910247594118,-0.0435764715075492,0.0350612923502922,0.0180105790495872
2.311758789062523,0.0168607531037181,0.0450327354252338,0.01176817920506,-0.0424126014113426,0.0274754799902439,0.016356473788619
2.321722656250003,0.0329913653019815,0.0184399120539426,-0.0286877498239278,-0.0375808291137218,0.022677794098854,0.0175855234265327
2.3316867675781197,0.0121305827766656,0.0012853636354207,-0.0055646483898162,-0.0307873003184795,0.02623145096004,0.0174851696938276
2.3416516113281176,0.0026946459114551,0.0240735340267419,-0.0081710314959287,-0.0231112726032733,0.0268426463007926,0.0186694767326116
2.3516157226562626,0.0225501969169825,0.0248278595253825,-0.0387041169255971,-0.0202240217477083,0.0232584439218044,0.0257363989949226
2.3615810546875053,0.0410653661642223,0.0108227150484919,-0.0258317758709192,-0.0133322943001985,0.0253607425838708,0.0274884924292564
2.371544677734377,0.0468749292258173,0.0114424543820321,-0.0003583119183778,-0.0059035113081336,0.0231506917625665,0.0281015411019325
2.3815097656249975,0.0439827879808843,-0.0101182200409471,-0.0076636664956808,-0.0065770247019827,0.0134653076529502,0.0311511270701885
2.3914738769531283,0.0355824777737259,-0.0074497314840555,0.0407090270072221,-0.0045648077502846,0.0189360398799181,0.0278203263878822
2.4014387207031263,0.0271424200780689,-0.001327741472423,0.0980354268163442,-0.007910537533462,0.0179850254207849,0.0279140695929527
2.4114025878906347,0.0292929491754621,-0.0125197282247245,0.1209212123632431,-0.0148042934015393,0.0180887952446937,0.0257796142250299
2.421367675781241,0.0210545515317469,-0.0213590143710374,0.1537713425636291,-0.0191476419568061,0.0247429702430963,0.0249732099473476
2.431331787109386,0.0220491155270487,-0.0149956168189644,0.1638122595846652,-0.0257831029593944,0.0248289089649915,0.0208167415112257
2.4412954101562576,-0.0012254501417279,0.0172442725285887,0.1513543445497751,-0.0289314948022365,0.0313653722405433,0.0211666822433471
2.451257568359381,-0.0159802439421415,0.0633259324848651,0.1132920326590538,-0.0310818590223789,0.0317324884235858,0.0189700759947299
2.461221435546875,-0.012340718396008,0.0681013301931321,0.052824412214756,-0.0326557867228984,0.028073837980628,0.0188025627285242
2.4711862792968873,-0.0073107614047825,0.0608203794047236,-0.0170417356938123,-0.0299027599394321,0.020385704934597,0.0155452713370323
2.481150390625004,-0.0056750499617308,0.0533130725145339,-0.0180576347380876,-0.0288233831524848,0.0155552634969353,0.0135063556954264
2.4911154785156384,-0.0123391840260475,0.0471199169628322,-0.0195855749577283,-0.0244589541107416,0.0108994860202074,0.0137956030666828
2.5010793457031184,-0.0034670185234397,0.0141413380771875,-0.044952071404457,-0.0172319337725639,0.000893191085197,0.0106323007494211
2.5110441894531164,-0.0093877138093113,-0.0227779412582516,-0.0383896441489458,-0.0111026391386985,-0.0006187136750668,0.009118515998125
2.5210083007812614,-0.0189447197709232,-0.0414995928630232,-0.0175678053945302,-0.0071462471969425,0.0012636085739359,0.0110359918326139
2.5309733886718817,-0.0022650223225355,-0.0387609616793692,-0.0282563726693391,-0.0116738369688391,-0.010386973619461,0.0077084093354642
2.540937255859376,0.0087324647709727,-0.0038422085113823,-0.0459866751492023,-0.0138123556971549,-0.016135673969984,0.0019967276602983
2.5509023437499962,-0.0199913792796432,0.0180246092513203,0.0200397484660148,-0.0081981960684061,-0.0176951680332422,-0.0032542641274631
2.560866455078127,-0.0335191155031323,0.0419837231181561,0.0967751976221799,-0.0089377555996179,-0.0105610927566885,-0.0084285195916891
2.5708303222656355,-0.0184686997570097,0.0184973413296043,0.0753816964596509,-0.0128928013145923,-0.0108599103987216,-0.014193657785654
2.5807951660156476,-0.0043367870952934,-0.0056815527677536,0.0195686238229274,-0.0119449831545352,-0.0130447689443826,-0.0167002249509096
2.590759277343764,-0.0006799450881779,-0.0314974004171788,0.0244406137734651,-0.0172105617821216,-0.011215204373002,-0.0244540646672248
2.6007243652343845,-0.0323077669519931,-0.030853549555689,0.0288829801350831,-0.0219914689660072,-0.0018571219407022,-0.024610124528408
2.610688476562501,-0.0397778836369514,0.0054039048701524,0.0095791447281837,-0.0190425887703895,-0.0062385145574808,-0.0283094886690378
2.6206535644531215,-0.0429826710276305,0.0265787948459386,-0.0217494749933481,-0.0156763531267642,-0.0067985774949193,-0.0265555288642644
2.630617431640644,-0.0338543388068676,0.0093090956151485,-0.047505263018608,-0.0096727758646011,-0.0082915602251887,-0.0249212011694908
2.640582275390642,-0.0048042584765702,0.0046259062349796,-0.0599210924774408,-0.0016939453780651,-0.0142852701246738,-0.0202340371906757
2.6505463867187586,0.041707098133862,0.0090140581913292,-0.0871668267995119,0.0039276676252484,-0.0313369035720825,-0.0202507898211479
2.660511474609379,0.0558577885612845,0.0162330496594309,-0.0918412483513355,0.0060230428352952,-0.0349521450698375,-0.022915281355381
2.6704750976562366,0.0478664244811981,-0.000455050291121,-0.0451449636280536,-0.0003621350042521,-0.0320272110402584,-0.0288808159530162
2.680439453125004,0.0322523835029453,-0.0419901528589427,0.0286789819955825,-0.0001679905690252,-0.02444439381361,-0.0295085236430168
2.6904045410156243,0.025548209689185,-0.0897011675827205,0.050263621816039,-0.0026699127629399,-0.0274394992738962,-0.027769660577178
2.7003684082031185,0.0184513102307915,-0.1043757357537746,0.0307581263571977,-0.003956751897931,-0.0290493816137313,-0.0241642724722623
2.7103332519531165,0.018289616863057,-0.0855938783943653,0.0066606269329786,-0.0057734008878469,-0.0305662117898464,-0.0180302876979112
2.7202973632812615,0.0103908995024859,-0.031361937469244,0.0133569097012281,-0.0144795402884483,-0.0348086282610893,-0.0135939940810203
2.7302622070312594,0.036178251709789,-0.0285274446956813,0.0137362644076347,-0.0203768722712993,-0.030957669019699,-0.0107214655727148
2.740226074218768,0.0438933926643803,-0.0586252074480056,0.0477209515959024,-0.0226655937731266,-0.0312612690031528,-0.007183723617345
2.7501914062499964,0.0609406082509085,-0.0744986300148069,0.070364745080471,-0.0256170164793729,-0.0313064381480217,-0.0070050391368567
2.760155517578127,0.0631502105917781,-0.0856497002348303,0.0766015936434268,-0.0269422065466642,-0.0251502748578786,-0.007574422750622
2.7701193847656356,0.0510387709069997,-0.0643731034502387,0.0652823272496461,-0.0260467436164617,-0.0228467471897602,-0.0038361302576959
2.7800844726562417,0.0428498384281992,-0.0272068636164069,0.0398614702671766,-0.0239527001976966,-0.0239450335502624,-0.0021657957695424
2.7900483398437643,0.0331507205821573,-0.0327418475203216,0.0237847802132368,-0.0192473493516445,-0.0208121631294488,0.0007494916208088
2.8000131835937623,0.0241006412293761,-0.0185341662086546,-0.0022533318847417,-0.0202987641096115,-0.018386822193861,0.0054347910918295
2.809977294921879,0.0299007788754999,-0.0051435003682971,-0.0619043752491474,-0.0193739905953407,-0.0213529132306575,0.0062055392190814
2.8199426269531216,0.0308559241758659,0.0035123920351266,-0.1041758292675018,-0.019798232242465,-0.0304816961288452,0.0056409491226077
2.829906494140644,0.0193659408576786,0.0261512170836329,-0.0758370390117168,-0.0167574789375066,-0.0291743092238903,0.0032164398580789
2.839871337890642,0.0210706624163314,0.070593147008866,-0.0302893398016691,-0.0159619934856891,-0.02689890563488,0.0001825666986405
2.8498354492187588,0.0359469637045636,0.0919756883859634,-0.0220884976893663,-0.010889240540564,-0.0238530095666646,-0.0060175652615725
2.859800537109379,0.0348153293261304,0.0663533174820244,-0.0160585698753595,-0.0092553906142711,-0.0182859376072883,-0.0048865214921534
2.8697641601562367,0.0536691194105893,0.0025911855369806,-0.0228659118026494,-0.0057856021448969,-0.0193570125848054,-0.0067475726827979
2.8797282714843817,0.0771993403408676,-0.0399368735909461,-0.0258598329216241,0.0022914987057447,-0.0222651846706867,-0.0052508767694234
2.889693359375002,0.0898991013076156,-0.0468440226309001,-0.0268687177032232,0.0090731466189026,-0.0230922698974609,-0.0078104431740939
2.8996574707031186,0.0967459349950775,-0.0767459705501794,0.0010486322700977,0.0099229617044329,-0.0247514192014932,-0.0114768166095018
2.9096223144531166,0.0987511008050292,-0.0858593974627554,0.0358604179322719,0.0098147317767143,-0.0161064323037862,-0.0113699678331613
2.9195864257812616,0.0787222390592098,-0.0910761091977357,0.0653653293579816,0.0112893246114254,-0.0119138183072209,-0.0145551096647977
2.9295512695312595,0.0440411305719986,-0.0918956088870763,0.0631388854801654,0.0084678651764988,-0.0106729455292224,-0.0158278476446867
2.939515380859376,0.0281499896854162,-0.0786804457440972,0.0300683905273675,0.0126578165218234,-0.0098646758124232,-0.0119404308497905
2.9494802246093883,0.0020990911711007,-0.0338024624891579,-0.0078612348943948,0.0155121516436338,-0.0125475032255053,-0.0123209618031978
2.959444335937505,0.004570961177349,0.0065194648966193,-0.0504448236018419,0.0180884934961795,-0.0227743089199066,-0.0125718303024768
2.9694084472656357,0.0070479457501322,0.0695494831748306,-0.0701794516414403,0.0106600746512413,-0.0258094482123851,-0.0137577820569276
2.979373535156242,0.01136478603594,0.1161928686670959,-0.020270634612441,0.0076554967090487,-0.0198897756636142,-0.0157801881432533
2.9893374023437644,0.0243830748999491,0.0757091748483479,0.0112456166356801,0.0072504896670579,-0.0185390748083591,-0.0158539786934852
2.9993022460937624,0.0257802648793905,-0.0097365272469818,0.0243558580994606,0.0073375748470425,-0.0137637611478567,-0.0177589394152164
3.009266357421879,0.0079048548404127,-0.043185938514769,0.0252706348568201,0.0131823224946856,-0.0136925615370273,-0.0174675919115543
3.0192314453124993,-0.0108128512416034,-0.0551287436343729,-0.0035234979510307,0.0161967538297176,-0.0197997223585844,-0.0194255486130714
3.0291953125000077,-0.0250299945013597,-0.0630965076431632,-0.0034065935730934,0.0151112712919712,-0.0190442092716693,-0.0200644247233867
3.0391601562500057,-0.0446823145523667,-0.0252007844910025,0.0447702850967645,0.0089143607765436,-0.0158502794802188,-0.0214487351477146
3.049124511718759,-0.0476027685763314,0.0362105465441942,0.0451315196245908,0.0058484999462962,-0.0136651191860437,-0.0249351039528846
3.059089355468757,-0.0238939396761357,0.0616901479765772,0.0220206931501626,-0.0051740575581789,-0.0092645119875669,-0.0312795527279377
3.069053222656237,-0.0134034157240763,0.0882066912412643,0.0247527484625577,-0.0087530249729752,-0.0085300570353865,-0.0309437569230794
3.079017333984382,0.0037006811488419,0.1187809854641556,0.0051122284471988,-0.0133128892630338,-0.0089356563985347,-0.0360373221337795
3.088982421875002,0.0138281804747879,0.0634245705537498,-0.0134217916309833,-0.0134424455463886,-0.0106066763401031,-0.0359467305243015
3.0989465332031187,0.0267314646570011,-0.0243846458025276,0.0041296471506357,-0.0163740534335374,-0.0089198304340243,-0.0387960448861122
3.1089111328125227,0.0190788675446063,-0.0726945032022893,0.0370300462335348,-0.0114447763189673,-0.0111398762091994,-0.0381506718695163
3.118875244140625,0.0052140813864767,-0.08319792316854,0.043120764324069,-0.0098910881206393,-0.0062260776758193,-0.0369170941412448
3.1288403320312597,0.0134338839275762,-0.0465983773067593,0.0190226803779602,-0.0020339242182672,-0.0077955122105777,-0.0374000295996665
3.1388044433593763,0.0320827990896999,-0.0291857624739408,-0.0024608371555805,0.002460160292685,-0.0122198220342397,-0.0389776863157749
3.1487695312499966,0.0398247184533625,-0.0387399188913404,-0.0268020822077989,0.0017144940793514,-0.0142385214567184,-0.0392711497843265
3.158733398437505,0.0528305496945977,-0.001215805530548,-0.0153267484694719,-0.0034938496537506,-0.0137873813509941,-0.0418584086000919
3.168697265624999,0.0410683253062888,0.0396416900366544,0.0071247373133897,-0.0050607258453965,-0.0056283855810761,-0.0405899174511432
3.178662353515648,0.0302415916698053,0.058292614492774,0.0523667315751314,0.003577503375709,-0.0026821310166269,-0.0442336536943912
3.188626220703128,0.0375402607779949,0.0448809058643877,0.0551139844566583,0.0051299687474966,0.0033615473657846,-0.0411915816366672
3.1985913085937625,0.079700326843746,-0.0227536835998296,-0.0193844994276762,0.0174561440944671,7.92013015598e-05,-0.0438102670013904
3.208555419921879,0.1054162577826529,-0.0441742188997566,-0.0921118819862604,0.0286678373813629,-0.0104800276458263,-0.0397294610738754
3.2185205078124994,0.1187791953658685,-0.0569271713584661,-0.1557762526452541,0.0332404859364032,-0.0181608498096466,-0.0370018519461154
3.228484375000008,0.1056290602831169,-0.0519040824994444,-0.1298755031913518,0.0394759066402912,-0.0233813393861055,-0.0305306483060121
3.238449218750006,0.078534826728329,-0.0233854056321084,-0.0594604892283678,0.0401214584708213,-0.0211677197366952,-0.0220010764896869
3.2484133300781366,0.0746624788070097,-0.0130542734928429,0.02172726316154,0.0380053333938121,-0.0139814717695117,-0.0173101685941219
3.258377441406239,0.0617089257422834,-0.0245632172398269,0.1096720885962247,0.0311136059463024,-0.0012212011497467,-0.0148435477167367
3.268342041015643,0.0789593357507139,-0.0190258952483534,0.1412801097810268,0.0288728903979063,0.0008272342383861,-0.0075345169752836
3.2783061523437595,0.1120336666284129,0.0114005149364471,0.1336269646793604,0.0207092352211475,0.0037386016920208,-0.0076588857918977
3.2882714843750023,0.1222721520481631,0.0119315530732274,0.1036708023548126,0.0113424155861139,0.0025691639166325,-0.0104075651615858
3.298235595703119,0.1229341230882331,-0.038415363112092,0.0928968948841094,0.0027497261762619,0.006276817061007,-0.0061550303362309
3.308200439453117,0.0991363372629508,-0.0360911579482257,0.1249035599976778,-0.0053988387808203,0.0109401047229766,-0.0078037967905402
3.3181643066406252,0.072833034890145,-0.0361085474744439,0.1315618488430976,-0.0118631292134523,0.0142573378980159,-0.0059872539713978
3.3281291503906374,0.067167264213413,-0.0170633630037307,0.0883744490236043,-0.0181826539337635,0.0179938524961471,-0.0037781079299747
3.338093261718768,0.0623178148882463,-0.0099796883530914,0.0680173051714897,-0.0232224203646183,0.0184266157448291,-0.0007136082276701
3.3480585937499967,0.0683903762675821,-0.0336528248853981,0.0393412457853555,-0.024441996589303,0.02290297485888,0.0034739261027425
3.358022460937505,0.0690107366556301,-0.0398877737522125,0.0061725511550903,-0.020020617172122,0.0164211075752973,0.0105584673583507
3.3679863281249993,0.0868776345945894,-0.0097960023492574,-0.0171995566040277,-0.0165986809879541,0.0103357527405023,0.0125557985156774
3.377951416015648,0.1170906212244182,-0.0039032910488545,-0.045968554970622,-0.0179025642573833,0.0071191871538758,0.0127827003598213
3.387915283203128,0.1226525296678766,-0.0165371471725404,-0.0015326163947582,-0.017749136313796,0.0183670111000537,0.0117755178362131
3.397880126953126,0.1160987971754744,0.0385565251484513,0.0374129080712795,-0.016146445646882,0.0248584654182195,0.0150248408317565
3.407844238281257,0.1256389616001397,0.0564437717556953,-0.0157061031758785,-0.0125284697860479,0.0196023844182491,0.0200360957533121
3.417809326171877,0.1422062847152352,-0.0085633918143808,-0.0966635539412498,-0.0115801189094781,0.0192204862833023,0.0232563894242048
3.4277736816406446,0.1571381521156057,-0.0564496169745922,-0.0992582466095685,-0.0057699000462889,0.0118216918781399,0.035658199340105
3.437737304687502,0.1879144351840019,-0.0498021417841315,-0.0734136112570762,-0.002471774816513,0.0140994191169738,0.0469684302806854
3.4477058105468785,0.2154349313268438,-0.0109418113835155,-0.049978375133872,0.0015762876719236,0.019027542322874,0.0540295094251632
3.457669921874995,0.2110029767613858,-0.0266807939156889,-0.0145639474034309,0.0060653118416666,0.0216393060982227,0.0623361766338348
3.4676347656250073,0.2199768125401809,-0.0722149029918015,0.0228624046713113,0.0096640652045607,0.0233160071074962,0.0718452781438827
3.477598876953138,0.2257304076308384,-0.0957454161830246,0.0450672222167253,0.0153238149359822,0.028411166742444,0.080810010433197
3.4875639648437584,0.2322318619467318,-0.1248299102395772,0.0627940175652504,0.0235794149339199,0.0336085259914398,0.0924775674939155
3.4975278320312384,0.2427120106352493,-0.1411260882630944,0.0798982971012592,0.0276082456111907,0.0321246124804019,0.1048546135425567
3.5074926757812364,0.2429454540649429,-0.1386767954148352,0.0629553456068039,0.0304847173392772,0.0316029116511344,0.112457662820816
3.5174567871093814,0.2351009145770221,-0.1321621528238058,0.0654500850319862,0.0292668528854846,0.0374136641621589,0.1141700744628906
3.5274208984375264,0.2045832459121942,-0.0764797208294272,0.1031505778729915,0.0219251662492752,0.0464576371014118,0.1229915544390678
3.5373859863281183,0.1637040134372189,-0.0149856799468398,0.1268663845032453,0.0171889998018741,0.0576322637498378,0.1305421441793441
3.547349853515641,0.1477796278681606,0.0148692139603197,0.1045107603102922,0.0123278871178627,0.0625266730785369,0.1345722675323486
3.5573149414062613,0.1356833126872778,0.0080970894768834,0.0529161821514368,0.0071235382929444,0.0631375983357429,0.1424719989299774
3.5672788085937555,0.1128905391860753,0.0336425957523286,0.0173965404808521,0.0080202240496873,0.0541353151202201,0.1477836817502975
3.577243896484376,0.0968513681309297,0.0740979402594268,-0.0035503859579563,0.0037770103663206,0.0458741895854473,0.1535899043083191
3.587207763671884,0.1068419066715985,0.0799275231957435,0.0120288759678602,-0.0046906936913728,0.0497817657887935,0.154002159833908
3.5971728515625045,0.0901932619486004,0.0788821057960391,0.0405412692248821,-0.0050688628107309,0.0581986866891384,0.153031438589096
3.6071369628906353,0.0808424460835754,0.089722502631694,0.0576022941410541,-0.0181806031614542,0.0593645423650741,0.1522663533687591
3.6171020507812415,0.1072490992330014,0.0833978296548128,0.0174772045016288,-0.0164000131189823,0.0571671687066555,0.149695336818695
3.627065917968764,0.1107942975591868,0.0742082687661051,0.0141898533940315,-0.0203227438032627,0.0593314208090305,0.1529134511947631
3.6370297851562583,0.1233373335942625,0.071382982212305,0.0055938744843006,-0.0229462236166,0.0573311187326908,0.1546964347362518
3.6469948730468786,0.1504939283281564,0.0420933209724724,0.0149649294197559,-0.0240856260061264,0.0583813115954399,0.1603228896856308
3.656958740234387,0.1453635066371411,-0.0165123049922287,0.0325356574237346,-0.0217436403036117,0.0658562704920768,0.1668511033058166
3.666923583984385,0.1458827812708914,-0.0544219105392694,0.0434779071986675,-0.0216166600584983,0.0645550936460495,0.1777125597000122
3.6768876953125016,0.1458050398595631,-0.0754243665575981,0.0471954664170742,-0.0186666771769523,0.0604085512459278,0.1847691386938095
3.6868530273437585,0.145544050835818,-0.1037161028012633,0.0498836825877428,-0.0188643038272857,0.0692726373672485,0.1934808641672134
3.696817138671875,0.1269304627154022,-0.1111908225961029,0.0473345826268196,-0.0253919772803783,0.0702031478285789,0.2064390033483505
3.706780761718761,0.125624860009551,-0.1074631803750991,0.0565092382073402,-0.0254838373512029,0.0723064914345741,0.2158429026603698
3.7167458496093815,0.1106209868188947,-0.1205640694886445,0.0592681815266609,-0.0267879869788885,0.071673460304737,0.2208922654390335
3.7267099609375265,0.0860094734579324,-0.123637631715089,0.041233343142271,-0.0294419527053833,0.0716006159782409,0.2248963564634323
3.7366748046875244,0.0485435200251638,-0.0912747005097567,0.0525964486777782,-0.0323977954685688,0.0746541917324066,0.2305172234773636
3.7466386718750044,0.0200347069647163,-0.0519530362077057,0.0660568187534809,-0.0330291986465454,0.077212393283844,0.2306434214115142
3.7566040039062614,-0.0056760728750377,-0.0204743404909968,0.0409627095073461,-0.0347011312842369,0.078759953379631,0.2282527089118957
3.7665678710937556,0.0008874503590166,0.0047303895227611,0.0076928925901651,-0.0384453907608985,0.0802397355437278,0.2264686226844787
3.776532958984376,0.0054736821707338,0.0467255108177661,0.0039127895295619,-0.0387053117156028,0.0812067314982414,0.222467228770256
3.7864968261718843,-0.0157231273759156,0.049577393117547,-0.0263502467870712,-0.0394451543688774,0.0818216726183891,0.2201390713453292
3.796460937500001,-0.0043700317777693,0.0176442316316068,-0.0645826545476913,-0.0516107454895973,0.078021340072155,0.2167757749557495
3.806425781249999,0.0077034139841794,0.0405000604316592,-0.0538572623938322,-0.0539619661867618,0.0679718255996704,0.2062461525201797
3.8163896484375215,-0.0341246071156114,0.0588078705385327,0.0082370824694633,-0.0650668144226074,0.0662903040647506,0.198884904384613
3.8263547363281276,-0.0924013664521277,0.0548019958980381,0.155588036596775,-0.0755996853113174,0.088092066347599,0.1954465210437774
3.8363188476562584,-0.0866379806198179,0.0242089969746768,0.2316460248827934,-0.0881000310182571,0.1060255318880081,0.1877854168415069
3.8462839355468788,-0.058067719695717,-0.0127840782493352,0.1704442449450492,-0.0943559259176254,0.111807644367218,0.1797112673521042
3.8562480468749953,-0.0299231368377804,-0.0244068576343357,0.1111427456706762,-0.1004830598831176,0.1120569109916687,0.1752246469259262
3.866212646484385,-0.0177783794052898,-0.0354119435124099,0.0669102207124233,-0.1042493879795074,0.1062614470720291,0.1702561676502227
3.8761767578125017,-0.0295152866892516,-0.0235283212341368,0.0376660060495138,-0.1010962054133415,0.0986445397138595,0.1706998497247696
3.8861408691406467,-0.01753792171292,-0.0129855921708047,-0.0257879367291927,-0.0920123755931854,0.0879627987742424,0.1783157438039779
3.8961059570312386,0.01350727795735,-0.0248033096060156,-0.0893845028489828,-0.0794417262077331,0.075449138879776,0.1886717081069946
3.9060695800781247,0.0465329839203506,-0.0445249320335686,-0.1031529159605503,-0.0703030005097389,0.0689062029123306,0.1920145153999328
3.9160349121093816,0.0639735096734017,-0.0501721441403031,-0.0872737943053245,-0.0581275671720504,0.0670276135206222,0.198426604270935
3.9259990234375266,0.0842084153853356,-0.0542278492718934,-0.0790863961964845,-0.0499851703643798,0.0633899495005607,0.2030442804098129
3.9359638671875246,0.0852183961454778,-0.0551535858146846,-0.0772919139951467,-0.0460096076130867,0.0599270388484001,0.2053702920675277
3.9459277343750045,0.0632587855327874,-0.021971593311429,-0.097472532236576,-0.0450406745076179,0.049228012561798,0.209280788898468
3.955891845703121,0.0555531065262854,0.0294670636333525,-0.0785807847619056,-0.0440337322652339,0.051931120455265,0.2159703820943832
3.9658569335937557,0.0712066027320921,0.0429359092764556,-0.0216740716695785,-0.0484016649425029,0.0548058189451694,0.2196189165115356
3.9758208007812357,0.0985674878664314,-0.0189494690112769,0.0071194766163825,-0.0504230037331581,0.0561872012913227,0.2299554347991943
3.9857858886718844,0.1125057045869529,-0.085027476683259,-0.0109054248958826,-0.0482002198696136,0.0470124669373035,0.2364709675312042
3.995750000000001,0.1272479311667382,-0.1398746268972754,-0.0056739539831876,-0.0479709208011627,0.0374378710985183,0.2454775124788284
4.005714843749999,0.1330430273115634,-0.1759253067046403,0.0534510196805,-0.0481434315443038,0.0385472849011421,0.252185195684433
4.015678955078116,0.1319893535401672,-0.1758241844177246,0.1257645607411861,-0.0528423190116882,0.0463125333189964,0.2558995187282562
4.025643798828128,0.1085076479267329,-0.1069856259912252,0.1424158358126878,-0.0582049712538719,0.053468033671379,0.2584931254386902
4.035607666015636,0.1044350647255778,-0.0387964713841676,0.1309539460778236,-0.0572728626430034,0.0581328235566616,0.2672027349472046
4.045571777343767,0.1228009616952389,0.0089972531870007,0.0476888028919696,-0.0468292385339736,0.0536275319755077,0.2698775827884674
4.055536865234387,0.1303111181296408,0.0194734928853809,-0.0627232904165983,-0.0396040827035903,0.039862185716629,0.2745698094367981
4.065500976562504,0.1352746588211506,0.0066211717054247,-0.1315133335262537,-0.0295650791376829,0.0356429740786552,0.2736358642578125
4.075465820312502,0.1151755813833326,-0.0187118608631193,-0.1257856035292148,-0.0142811983823776,0.0291845425963401,0.2754484117031097
4.085429931640647,0.0765307203643023,-0.0172214761748909,-0.0895990223824977,-0.0072470726445317,0.027492981404066,0.2769637703895569
4.095395019531239,0.0446641213085502,0.0064234571762382,-0.069836921814084,-0.0022555096074938,0.0295729115605354,0.2768012881278991
4.105358642578125,0.0236564045932143,0.0462948643155395,-0.0488560931056737,0.0038552042096853,0.0336860716342926,0.272545576095581
4.115323730468759,0.0245182821195572,0.0394666257306933,-0.0243541045337915,0.0049066208302974,0.0374120995402336,0.2686972916126251
4.125287841796876,0.0013972265120595,0.0490073381446301,0.0014618892461061,0.0074076615273952,0.0355669893324375,0.2664922773838043
4.135251953125007,-0.001975464791432,0.0320832374811172,0.0347428120791912,0.0072025982663035,0.0382927320897579,0.2610982954502105
4.145216796875005,-0.0150054806258529,-0.0029619185455143,0.0521948821395635,0.0021142242476344,0.0408628247678279,0.2562862038612366
4.155180908203121,-0.0071707684122025,-0.032748569522053,0.0923369229137897,-0.0040683038532733,0.0411845333874225,0.2549186646938324
4.165145996093756,-0.0110418376918882,-0.0255900760695338,0.094949151238799,-0.0023206751793622,0.0401706174015998,0.2521862387657165
4.175109863281236,0.005064809108898,0.0043780689537525,0.0531523289948701,-0.006132723763585,0.0359329953789711,0.251630425453186
4.185074707031262,0.0184388891406357,0.0282214474864304,0.0060363575547933,-0.0072365384548902,0.0285535808652639,0.2485169023275375
4.195038818359379,0.0212788618069142,0.0042180560864508,0.0064233110457658,-0.0085252420976758,0.0315688103437423,0.2478199601173401
4.205003906249999,0.0047288551528006,-0.0219257083430886,0.033396658167243,-0.0063564293086528,0.0313939005136489,0.2465259581804275
4.214968017578116,-0.0190106976792216,-0.0165700265288352,0.0213397251486778,-0.0056373761035501,0.0309688597917556,0.2481925636529922
4.224931884765638,-0.0345163098469376,0.034686259586364,-0.0038964229166507,-0.0070387311279773,0.0302319638431072,0.2435370832681656
4.234896728515636,-0.0438477634243667,0.0256181331202387,0.0054582654058933,-0.0075908047147095,0.0318535640835762,0.2403202503919601
4.244860839843767,-0.0435486343473196,0.0048866029977798,-0.0010392799198627,-0.0106052886694669,0.0353596545755863,0.238037422299385
4.254825927734387,-0.0523869706455618,0.0487317360736429,-0.0021294132441282,-0.0116769447922706,0.0367684699594974,0.2397745996713638
4.264789794921882,-0.0258786106873303,0.0679680592022836,-0.0625081863611936,-0.0170108452439308,0.0248810462653636,0.2366418987512588
4.2747546386718795,-0.0252385592181235,0.0561041645377874,-0.0736795687168836,-0.0212660431861877,0.0215243976563215,0.2301176935434341
4.284718749999996,-0.0382899831667542,0.0255759014137089,-0.0488707061529159,-0.021429993212223,0.01661635376513,0.2299107760190963
4.2946831054687635,-0.0537413809292018,-0.0069708619259297,-0.0180424371689558,-0.0212321206927299,0.0126727446913719,0.2223263531923294
4.304647705078125,-0.0733846774235367,0.0076112056560814,0.024399697241187,-0.0175719819962978,0.0146910054609179,0.2218168675899505
4.3146118164062415,-0.0784640265144407,0.0405234413072466,0.0298690685629844,-0.0183011554181575,0.008021118119359,0.2134827673435211
4.324576904296876,-0.0851733148947358,0.0559103955313563,0.021287118178606,-0.0147148016840219,0.0103680351749062,0.2054005712270736
4.334541015625007,-0.0894238850113004,0.0640960400745272,0.0517845477730035,-0.0255184471607208,0.0182896088808774,0.1996593326330185
4.344505859375005,-0.08902589866966,0.0572825606673955,0.0705091219872236,-0.0254571698606014,0.0378835164010524,0.19234499335289
4.354469726562527,-0.0768158939812332,0.0119600485153496,0.0707838472753763,-0.0309534016996622,0.0386694148182868,0.1897891610860824
4.364434814453119,-0.062694429648295,-0.041757367016375,0.0104658644348382,-0.0289268307387828,0.033811617642641,0.1882227510213852
4.374398925781236,-0.0503863714128732,-0.0698509503394365,-0.0398117859065532,-0.0250655114650726,0.026210157200694,0.1826309114694595
4.3843627929687585,-0.0427346145506948,-0.0530738569311797,-0.0576110619693994,-0.0234431475400924,0.0163956470787525,0.1814697533845901
4.394327880859379,-0.0504452619932591,-0.0023968320086598,-0.0274070623636245,-0.0164467580616474,0.0134105095639824,0.1780183017253875
4.404291992187524,-0.0628099457867443,0.0396576182581484,-0.0066629650205373,-0.0194864906370639,0.0178758315742015,0.1724189966917038
4.414256835937522,-0.0744243957348167,0.0214788413584232,0.0188619368582963,-0.0237206500023603,0.0264160577207803,0.1638074070215225
4.424220703125002,-0.0805108029764145,-0.0035045009896159,0.031706805384159,-0.0230028852820396,0.0321133248507976,0.1574940681457519
4.434185546875,-0.0932924700729549,0.0212513162128627,0.0038531682968139,-0.0135310860350728,0.0264136269688606,0.1516108810901641
4.444149902343767,-0.1254814329508692,0.06537307427302,-0.0391758260905742,0.0041405698284506,0.0207698792219162,0.1483388990163803
4.454114746093765,-0.1241578561969101,0.0897375540703535,-0.0846504600644111,0.0110687827691435,0.0180659722536802,0.1441851705312729
4.464078613281259,-0.1103399048551917,0.1423605984941124,-0.0845434925585985,0.0169991105794906,0.0078317103907465,0.131675511598587
4.474042724609376,-0.1171465161301195,0.1761496169798076,-0.0925479353159666,0.0183722376823425,0.0037323064170777,0.1198057979345321
4.484007568359388,-0.1163689558863639,0.1553521820142865,-0.0888788914144039,0.0196723975241184,-0.0046902345493435,0.1116957515478134
4.493971679687505,-0.1156073238641023,0.1357972944557666,-0.076135145175457,0.0160235986113548,-0.0084839081391692,0.0949772298336029
4.50393627929688,-0.1326912181992083,0.0720817781314253,-0.0232885211288928,0.0183169674128294,-0.0060978271067142,0.0870401561260223
4.513900390624997,-0.1665651384893804,0.0218500127583742,0.0271270763784646,0.0186386778950691,-0.0045302910730242,0.0777819454669952
4.5238657226562395,-0.1812112842835485,0.002118599589169,0.0231225169122219,0.0137193892151117,-0.0035966911818832,0.0740764364600181
4.5338298339843845,-0.1512025880541652,0.0665334963545203,-0.0058294368058443,0.008416237309575,-0.0051083015277981,0.0712191313505172
4.543793457031256,-0.1143652879137545,0.1892823625363409,-0.0356909065842628,-0.0003887261264026,-0.0018682756926864,0.0644709318876266
4.553758544921877,-0.0794826289724558,0.2311250697486102,-0.0462923800975084,-0.0012377416715025,0.0028857332654297,0.0547823533415794
4.5637226562500075,-0.0622637831460684,0.1818964900687336,-0.0495715478986501,0.0087566915899515,0.0143529083579778,0.0546335093677043
4.5736875000000055,-0.0018046382691711,0.0534010430589318,-0.1158329493135213,0.0311155244708061,0.0021255377214401,0.0636624246835708
4.5836513671875,0.0245498463016003,-0.0246317524313926,-0.2137678383648395,0.060781218111515,-0.0192523840814828,0.0706853941082954
4.593616699218757,-0.0088655165661126,0.0075502692490816,-0.2322755549579858,0.0751798674464225,-0.0395491309463977,0.0824640244245529
4.603580810546887,0.0015674685124307,-0.0164579444564878,-0.0927986952066421,0.0661261528730392,-0.05912571772933,0.0848616361618042
4.613544677734382,-0.0065237026803195,-0.1223614742994308,0.0788829825788736,0.0628978684544563,-0.1051970720291137,0.0849854797124862
4.6235095214843795,-0.0983250208800658,-0.1254024494305253,0.1475923616677522,0.054996408522129,-0.0870179608464241,0.058528084307909
4.633473632812525,-0.3349749184647574,0.0296782221660017,0.2684206350505352,0.0005619302392005,-0.0559319481253623,0.074386142194271
4.6434384765625225,-0.1937130384601652,0.0478640133284032,0.4743126254737377,-0.0135808121412992,0.0133701935410499,0.0668523013591766
4.653402587890625,-0.1652246106006205,0.1393609782867133,0.3943634749680757,-0.0139248929917812,0.0350635051727294,0.063936673104763
4.663367675781259,-0.0883548310076817,0.2057569658666849,-0.0205436063349246,-0.0033284062519669,-0.0037928617093712,0.0763041526079177
4.673331542968768,0.0826352112518623,0.1328719085283577,-0.3421545643031597,0.0093317292630672,-0.0488865673542022,0.0766338557004928
4.683296630859388,0.0995684450699016,-0.0502995699122548,-0.2575128720670938,-0.0001849634572863,-0.0755300149321556,0.0725991874933242
4.693260742187505,0.0537588800532743,-0.2092059372767805,0.0150151983022689,-0.0179876610636711,-0.0736849755048751,0.0583821684122085
4.703224609374999,-0.1167683304674923,-0.2111179083779454,0.353198520886898,-0.0262355767190456,-0.0249157361686229,0.0362765900790691
4.713189453124997,-0.2382024973215535,-0.1521582082785666,0.5171493121594191,-0.0201252177357673,0.0398712493479251,0.0245616119354963
4.723153564453128,-0.2576428185896948,-0.0190409466870129,0.2860503997653723,-0.0190141759812831,0.0491310954093933,0.0111789358779788
4.733118652343762,-0.2424723566604778,0.1683361667498946,-0.0411585243403911,0.0141464406624436,0.0542377084493637,0.0029697415884584
4.7430825195312565,-0.1108829987559467,0.2493117376938462,-0.3158358816981315,0.0499899536371231,0.0133299203589558,0.0099861305207014
4.753047607421877,0.0705136885644868,0.3134438719950616,-0.5719938320249319,0.073907271027565,-0.0437594652175903,-0.0260597541928291
4.763011718750008,-0.0479184103967621,0.2717806130029261,-0.4988935245007276,0.090515524148941,-0.067960649728775,-0.0564597509801387
4.772975830078138,-0.1452117501415312,0.1048018522113561,-0.1231616847664117,0.0789083987474441,-0.0314937159419059,-0.0767988488078117
4.782940673828136,-0.1880819007053971,0.0436916960798203,0.2400222235620021,0.0728365331888198,0.0252200346440076,-0.1000959500670433
4.792904541015645,-0.243746431716904,-0.0036510698534548,0.2613929283708334,0.0624067932367324,0.0448869466781616,-0.1069059148430824
4.802869628906237,-0.1448253081072121,-0.1335696815341711,0.0973094506293535,0.0434158705174922,0.0339780338108539,-0.1158224642276763
4.812833496093759,-0.1093306182147934,-0.2271187567166984,0.072028294378519,0.0310026109218597,0.0258306264877319,-0.1219581142067909
4.822798828125002,-0.0882981689170002,-0.2409336393184959,0.1587239965349435,0.0238110907375812,0.0268353670835495,-0.118056870996952
4.832762695312525,-0.0127397276509553,-0.2066293647870421,0.1464455297201871,0.0317385196685791,0.0365007780492305,-0.1205847337841987
4.842727539062523,-0.0622058424137532,0.0324263518303632,-0.0211275437027215,0.032488614320755,0.0303734708577394,-0.1185798496007919
4.852691650390625,-0.0637723610781133,0.2207509752504527,-0.1630161407709121,0.034625269472599,0.0178430303931236,-0.1191678717732429
4.862655517578119,-0.0330496713604778,0.2885312567956745,-0.1897989337563514,0.0461410172283649,0.0111931525170803,-0.1219482421875
4.872620605468768,-0.0213459356937557,0.2842065254643559,-0.1977665516346693,0.0750722661614418,0.0181823521852493,-0.1064379885792732
4.882584472656262,0.0949313233211636,0.1191750993482768,-0.2260229243040084,0.1234989836812019,0.0105137079954147,-0.081375740468502
4.8925495605468825,0.2006340698949992,-0.0282457051448523,-0.3863035026311874,0.1691247820854187,-0.0389007143676281,-0.0708852782845497
4.902513427734377,0.1688574872102588,-0.0632365006357431,-0.4891624040812253,0.2070633322000503,-0.0932443067431449,-0.0594270788133144
4.912478515624997,0.1583570629186928,-0.1617792924523353,-0.3260194220602512,0.234288290143013,-0.1061811447143554,-0.0501664653420448
4.922442626953128,0.0717541901448741,-0.1547204599820077,-0.0256949977487325,0.2397426217794418,-0.0773923024535179,-0.0481845289468765
4.932406738281259,-0.0029792350064963,-0.0745136814534664,0.153818104314804,0.2373769432306289,-0.0587536394596099,-0.0469570755958557
4.942371826171879,0.0121451592912897,-0.0910689488045871,0.1754249559670686,0.2212912291288375,-0.0568785406649112,-0.0331773869693279
4.952335449218765,0.0882567409280687,-0.1028570017538964,0.144964935773611,0.1888171732425689,-0.0777518674731254,-0.0473027937114238
4.962300537109385,-0.0165769677262753,0.0172565474882721,0.19845511842072,0.1394547224044799,-0.0848971605300903,-0.0721058472990989
4.972264648437502,-0.1295764106469228,0.0370566419795155,0.4245119449943303,0.0938315689563751,-0.0375197939574718,-0.096621848642826
4.9822297363281365,-0.2015074186634272,0.1065111403472721,0.5846574987649917,0.0454885996878147,0.0118991201743483,-0.1117049604654312
4.992193603515645,-0.1833211525769904,0.1862250207923352,0.4720476031512022,-0.0062441052868962,0.0172866955399513,-0.1276327967643737
