time,ax,ay,az,gx,gy,gz
0.0,0.0369565791385248,0.1071197737649083,-0.026384149056673,-0.0321953706443309,0.000896165263839,-0.0034246197901666
0.009963867187501307,0.0700821287468075,0.0680497461363673,-0.1221124679744243,-0.0284059569239616,-0.0209127273410558,-0.0020946371369063
0.01992895507812875,0.0546139625126495,-0.0223236216194927,-0.0866553701460361,-0.0253543946892023,-0.0132924197241663,0.0005368813872337
0.029893066406252444,0.0326296923827379,-0.0623114947453141,0.0347749607831239,-0.0193654801696538,-0.0003313471097499,0.0133927585557103
0.03985766601563512,0.054110543035157,-0.0714206838741898,0.0308913973480463,-0.0180525872856378,0.0006590683478862,0.0213542189449071
0.04982299804688495,0.0795200383733958,-0.1019730585262179,-0.0014408464580774,-0.0205077566206455,-0.0030139635782688,0.0237353518605232
0.059787109375001535,0.0739857485892251,-0.0844990688949823,-0.0017050503522157,-0.0206308960914611,-0.0030062887817621,0.0261384323239326
0.06975195312499949,0.0466989150717854,-0.0156042502366006,0.0218342306673526,-0.020323833450675,0.0043743960559368,0.023686459288001
0.0797158203125008,0.0234748740138486,-0.0040440146937966,0.0379097516775131,-0.0138282077386975,0.0223451480269432,0.0198799259960651
0.08968090820312824,0.0178935302175581,-0.0028118425503373,0.020466449445486,-0.011526171118021,0.0256184395402669,0.0228139292448759
0.09964477539062955,0.0171263087047264,0.0030472587414085,-0.0600812514752149,-0.0055988831445574,0.0184940136969089,0.0208825580775737
0.10961010742187938,0.038697833315283,-0.055825055335462,-0.1373462774634361,0.0055999755859375,0.0068709123879671,0.0201179645955562
0.11957421875000307,0.0550677341621369,-0.0913766995795071,-0.1205067863434553,0.0220924653112888,-0.0058052777312695,0.0228535532951354
0.12953881835937864,0.0509603353759273,-0.0569083205275237,-0.0748842683315277,0.0366184115409851,-0.0111531727015972,0.0207813475281
0.13950292968750233,0.0292779342694208,0.0020705226637423,-0.0397691158086061,0.0349899493157863,-0.0033387711737304,0.01640678755939
0.14946801757812977,0.0192840712605044,0.0556874004304408,0.0206014740020036,0.0328133478760719,0.0140042658895254,0.0147649496793746
0.15943212890625347,0.0193051871137693,0.0703686906032264,0.0355681569874286,0.0384936071932315,0.0119373872876167,0.0135723855346441
0.16939672851562904,0.0252812658486887,0.0561709461636841,-0.0391629666090011,0.0406118854880332,0.0063104312866926,0.0116134053096175
0.17936206054687887,0.0430748793557286,0.032037060251832,-0.0515367104917764,0.0449511148035526,0.0087641878053545,0.0118824476376175
0.18932592773438017,0.0645358927965164,-0.0041581425927579,-0.0149988316893577,0.0402370542287826,0.0017366386018693,0.0160566866397857
0.1992910156250005,0.0535716138528659,-0.0268405145220458,0.012394786670804,0.0336018092930316,-0.0078809633851051,0.0123521201312541
0.20925488281250182,0.0306611687887459,-0.0515897558532655,0.0516524458259344,0.0252642519772052,-0.0036057911347597,0.0126653080806136
0.21921972656249977,0.0150840622873976,-0.0802488641045987,0.1302747316420078,0.0089425817131996,0.0069236028939485,0.0122496867552399
0.22918383789062347,0.0020940862024202,-0.0677602616705,0.157729140278697,-0.0048248954117298,0.0083747589960694,0.010142327286303
0.2391491699218804,-0.0288496258547529,-0.0408024043790996,0.1403103879660368,-0.017134666442871,0.0065827770158648,0.0082327937707304
0.2491132812500041,-0.0386194708494469,-0.0543953147932887,0.1115840596973895,-0.0235073436051607,0.0118196168914437,0.0121076926589012
0.25907788085937966,-0.011529767339304,-0.0357458516418933,0.1031599302232265,-0.0288687124848365,0.0207123849540948,0.011121304705739
0.26904199218750335,-0.0004504471812397,0.0209026489056646,0.0527507624566555,-0.0259530842304229,0.0157418623566627,0.0079060709103941
0.2790068359375013,0.0064936363356187,0.0444407608814537,-0.0367138198912143,-0.0282663777470588,0.0094326063990592,0.0092346901074051
0.288970947265625,0.0291385257987305,0.0454487688802182,-0.053676645129919,-0.0234330072999,0.0079436330124735,0.0147663429379463
0.29893579101563006,0.0386462857911363,0.0327871479667723,-0.041252047842741,-0.0165137872099876,0.0096583301201462,0.0140578895807266
0.30889990234375375,0.0313694997211918,0.0232391290292143,-0.0231722012728452,-0.0115118362009525,0.0057911537587642,0.0146954506635665
0.3188649902343741,0.007345248196274,0.0101291798263788,-0.0384475118160247,-0.0039084460586309,-0.002183225704357,0.0140043506398797
0.3288291015625049,-0.0100358755197376,0.0004692249469459,-0.0596305850982665,-0.0025893822312355,-0.0076637445017695,0.0136749166995286
0.3387941894531252,-0.0083722166238352,-0.0252627438113093,0.020369418811798,-0.0038773063570261,0.0070516797713935,0.0174146369099617
0.3487587890625008,-0.0032389453886076,-0.0139497610278427,0.1077659627139568,-0.003426965791732,0.0204372592270374,0.0112906983122229
0.3587229003906245,-0.0107263420019298,0.0256843302242457,0.0399620080322027,-0.0108123170211911,0.0118627957999706,0.0109687000513076
0.36868798828125193,-0.0153544036613777,0.0103372696191072,-0.0030780922710895,-0.0102306827902793,0.0098763443529605,0.0049201291985809
0.3786520996093685,-0.0120227750206366,-0.0451341499730944,0.0079068276017904,-0.0111965360119938,0.0067047453485429,0.0057372199371457
0.3886169433593736,0.0080375413093715,-0.0692369100943207,-0.0039198037922382,-0.0153340231627225,-0.0006772708147764,0.0007757511921226
0.3985810546875044,0.0013091463698074,-0.0592220042973756,0.0184136085689067,-0.0125859882682561,0.0035538887605071,-0.0021504187025129
0.40854931640625125,-0.0046256870392709,-0.0565182982966303,0.0499883120059967,-0.0125079583376646,0.0101015362888574,-0.0001003178767859
0.41851318359375256,-0.0128519923863932,-0.0508193560026586,0.0297352130502462,-0.0109643181785941,0.0082200486212968,-0.0024661584757268
0.42847827148438,-0.0028879399938508,-0.0050283495560288,-0.0289922857284545,-0.0086111491546034,0.0024337987415492,-0.0028661652468144
0.4384421386718742,0.0284672024084255,0.0413157607287168,-0.082543258652091,-0.0046708760783076,-0.009872855618596,-0.0041858237236738
0.44840722656250165,0.0274366537842899,0.058637482407689,-0.082474285069108,0.0027249883860349,-0.0159669667482376,-0.0068407282233238
0.45837109375000296,0.0006860095027834,0.0733750328123569,0.0018634557843208,0.006076552439481,-0.001113893231377,-0.0097168758511543
0.4683361816406304,0.0195928814813494,0.045856619028747,0.0350543622463941,0.0182474646717309,-0.0166055001318454,-0.0068667600862681
0.4783002929687541,0.0649860842494294,-0.0157286072686314,-0.1154348899066448,0.0344782657921314,-0.0361809730529785,-0.0086369682103395
0.48826538085937443,0.0685801266860216,-0.0264290111117064,-0.1210690964013338,0.0402831584215164,-0.0499420575797557,-0.0164834409952163
0.49822998046875,0.0101781700672581,0.0135766899317502,0.0364203899025917,0.0408532693982124,-0.0352783873677253,-0.0184622015804052
0.5081940917968737,-0.0123364075470715,0.027113340114057,0.1325362468332052,0.0280053801834583,-0.0247684866189956,-0.0270607490092515
0.5181594238281235,-0.0257004045762121,0.0252329331949353,0.1820814912468195,0.0149983344599604,-0.0035368343815207,-0.0392506048083305
0.5281232910156248,-0.0394759050156921,0.0189995917633175,0.2417097382575273,0.0135389221832156,0.0281039159744977,-0.0418152287602424
0.5380883789062523,0.0036340821860358,-0.0183982648693025,0.1607312447041273,0.0057933498173952,0.016436094418168,-0.0452714934945106
0.5480522460937536,0.0419197545038536,-0.069892013002187,-0.0308855521291494,-0.0029641892760992,0.0037906062789261,-0.0487905964255332
0.5580170898437515,0.0480948994748294,-0.1013034887015819,0.0017179098337888,-0.0129059273749589,0.0161103680729866,-0.0477705150842666
0.5679812011718752,0.0466508016137406,-0.0978065864965319,0.0960194108188152,-0.0229668170213699,0.0267816521227359,-0.0499143600463867
0.5779462890625027,0.0368659051803871,-0.0693926851779222,0.0649532414257526,-0.0318876430392265,0.025182444602251,-0.051100019365549
0.587910156250004,0.052533320313692,-0.0962631564468145,-0.008657353708148,-0.0381000004708766,0.0228082370012998,-0.0532198958098888
0.5978752441406243,0.081596077462472,-0.1143582005858421,-0.018049451431632,-0.0391299165785312,0.0347490906715393,-0.0507498420774936
0.6078393554687551,0.1235817733420059,-0.102820469135791,-0.0189858554989099,-0.0366268083453178,0.0415926165878772,-0.0529016777873039
0.6178044433593755,0.1187267710588872,-0.0844299491815269,-0.0697825612783432,-0.0250465217977762,0.0318322852253913,-0.0490598529577255
0.6277692871093805,0.1218831527305766,-0.0798635180488228,-0.1294376962959766,-0.0163742043077945,0.0301584880799055,-0.0404077731072902
0.6377331542968747,0.1293928342409432,-0.0647962972983717,-0.103888244497776,-0.0020542722195386,0.0257986411452293,-0.0314660817384719
0.6476979980468798,0.1219018574310466,-0.0532924681179225,-0.0582341623038053,0.0183362197130918,0.0261810701340436,-0.0192429684102535
0.6576623535156259,0.1017103159368038,-0.0267627731107175,-0.0412993941158056,0.0326374508440494,0.0216376073658466,-0.0099003873765468
0.6676274414062533,0.0851642182728275,-0.0471558650590479,-0.0018032500296831,0.0478017590939998,0.0199465006589889,-0.0026435409672558
0.6775913085937546,0.0439970722345635,-0.0421029655836522,0.058382046341896,0.0680835545063018,0.02454792894423,0.0088485162705183
0.6875561523437526,-0.001871858286485,0.0111665600501,0.0830219820797443,0.0831005871295929,0.0211095213890075,0.0127511117607355
0.6975202636718834,-0.0428411801977083,0.0371523574389517,0.0668891779243946,0.082477681338787,0.0122526828199625,0.0110912062227725
0.7074853515625037,-0.0917859379675239,0.0538167842529714,0.0740770436018705,0.0753494650125503,0.0017768726684153,0.0068400022573769
0.7174489746093755,-0.1363418496612459,0.0848692173816263,0.1221013620585203,0.0596022233366966,0.0100041208788752,-0.0016453876160085
0.7274143066406253,-0.1988437158795073,0.1218723756082355,0.2229658748209476,0.0344518646597862,0.0216059163212776,-0.0101501923054456
0.737378417968749,-0.2431495983349159,0.1909891664542257,0.290552971881628,0.006838877685368,0.0373244248330593,-0.0204054936766624
0.7473432617187541,-0.2482257325554266,0.2107799085952341,0.3054764002472162,-0.0190763436257839,0.0604129657149314,-0.0275574102997779
0.7573071289062554,-0.2339217147298157,0.2058363147132098,0.2508124976456165,-0.0396037213504314,0.075014017522335,-0.0315636061131954
0.7672722167968757,-0.198377815400809,0.1945354607589542,0.1615425610870123,-0.0616842545568943,0.0774984806776046,-0.0396090149879455
0.7772363281249994,-0.1572537413192913,0.1670565022028982,0.0841670604616403,-0.0787016451358795,0.0665513947606086,-0.0529245026409626
0.7872011718750045,-0.1329250634877011,0.1616486518099903,0.0388952555835247,-0.0920315682888031,0.0598114691674709,-0.0678472593426704
0.7971665039062543,-0.119399409623444,0.1470589854434132,0.0170393976062536,-0.0961641073226928,0.0586742870509624,-0.0818071439862251
0.8071301269531332,-0.1108302821880206,0.1765906387455761,0.0325268895953893,-0.1006179824471473,0.0584793426096439,-0.0925796255469322
0.8170952148437536,-0.0983570965187624,0.1957970051273703,-0.0086328037887811,-0.0978805497288703,0.0504086874425411,-0.1042090952396392
0.8270593261718844,-0.0681760759297758,0.1763423630729317,-0.0776654234826564,-0.098531424999237,0.0397840067744255,-0.1122835353016853
0.8370241699218752,-0.0539510050918906,0.1341547879457473,-0.1220101766437292,-0.0959945619106292,0.0289059076458215,-0.1172553375363349
0.8469880371093765,-0.0154601655907928,0.0818717891313135,-0.1353518887758255,-0.0958084017038345,0.0165453776717185,-0.1187919899821281
0.8569533691406193,0.0244034235682338,0.025999095261842,-0.110374683907628,-0.0925688445568084,0.0065344227477908,-0.1223817020654678
0.8669174804687501,0.0364953913675621,-0.0301211436279118,-0.0707370855242014,-0.0890542715787887,-0.0052338195964694,-0.1221100538969039
0.8768823242187551,0.0546475725213065,-0.1058776647493243,-0.0277267958372831,-0.0963635072112083,-0.0102656353265047,-0.1181456446647644
0.8868461914062564,0.0566248639436438,-0.1664480149157345,0.036822540962696,-0.1010882258415222,-0.0130395842716097,-0.1158095151185989
0.8968110351562544,0.0444094158951193,-0.2045833920426666,0.0761123488217592,-0.1107983589172363,-0.0040771784260869,-0.1023309007287025
0.906775146484371,0.0671088120244443,-0.2152583691835403,0.1214215631008148,-0.1123949214816093,0.0045264298096299,-0.0882792696356773
0.9167402343750055,0.0942000133719295,-0.2170687796063721,0.0919897169113159,-0.1058223769068718,0.006143351085484,-0.0682523176074028
0.9267041015624997,0.1383889549167826,-0.2336938973233103,-0.0093307229250669,-0.0942919552326202,-0.0008162879385054,-0.0446820110082626
0.93666918945312,0.1882909403461962,-0.2507325642772018,-0.1476005449742078,-0.076569989323616,-0.0155054656788706,-0.0243240259587764
0.9466342773437546,0.2041351002858951,-0.233225549159199,-0.2449707858800888,-0.0597686395049095,-0.036107413470745,-0.0083282822743058
0.9565983886718712,0.1972317506382241,-0.1822146161071956,-0.2843400887161493,-0.0398536212742328,-0.0578003600239753,0.0089753353968262
0.9665632324218834,0.1795619461739435,-0.127308136921376,-0.3114601508319378,-0.0318918339908123,-0.080242820084095,0.0170529689639806
0.9765270996093776,0.1224787805361673,-0.0890041252292692,-0.2988607814997434,-0.0228692349046468,-0.1013318970799446,0.0244179740548133
0.9864921874999979,0.0667100950304418,-0.0270759307131171,-0.215219790738821,-0.0175626203417778,-0.1052544713020324,0.0301179364323616
0.9964562988281287,0.0123608844012022,0.0472659013047814,-0.0976391209751367,-0.0169603005051612,-0.0937199220061302,0.0292255505919456
1.006421386718749,-0.0242390633193776,0.0757176504157483,-0.0005278232663869,-0.0217017922550439,-0.0816390290856361,0.0271874330937862
1.0163852539062574,-0.0363315791079774,0.0679790189877152,0.0408282694727182,-0.0290586240589618,-0.0727621167898178,0.0220131278038024
1.0263500976562554,-0.0644675768006593,0.0517867397300899,0.0121814361810684,-0.0294503737241029,-0.0803665071725845,0.0148292519152164
1.036314208984372,-0.1202725026635453,0.0863939427308738,-0.0640934097260236,-0.0304565168917179,-0.0960077792406082,0.0097862901166081
1.0462792968750065,-0.1804032558362931,0.1438648655772209,-0.038543957927823,-0.0353447496891021,-0.1016006842255592,-0.0075146695598959
1.0562429199218784,-0.2457091100919991,0.1633683152094483,0.0583586654663085,-0.0434065423905849,-0.0953005999326706,-0.0259746573865413
1.066208251953121,-0.30350988594722,0.2070373610660433,0.1624836413294076,-0.0578776262700557,-0.0671946629881858,-0.0455531515181064
1.0761723632812519,-0.3167879947911948,0.3044021951444446,0.209790751427412,-0.0709639713168144,-0.0414404645562171,-0.0748420730233192
1.0861372070312498,-0.2778300857676193,0.3150575908020138,0.1545253758013248,-0.0878263041377067,-0.0310991462320089,-0.1024587899446487
1.0961022949218702,-0.2504336178632453,0.2402778057582676,0.0377647902488708,-0.1055590137839317,-0.0274265389889478,-0.1243645623326301
1.1060661621093786,-0.2307578438714146,0.1890223964259028,-0.055330842077732,-0.1133133396506309,-0.0386070199310779,-0.1424255967140197
1.1160310058593765,-0.2405109203943982,0.1722914802469313,-0.0909422536849975,-0.122048832476139,-0.0375250652432441,-0.1632567048072815
1.1259951171875073,-0.2293293454382568,0.1406729376681149,-0.0714046095222234,-0.1248403564095497,-0.0260154157876968,-0.1745692789554596
1.13596044921875,-0.2033831128748133,0.0962820072777569,-0.0311316358447074,-0.124557264149189,-0.0129512082785367,-0.1887500137090683
1.1459240722656219,-0.1858332815283909,0.090142189348489,-0.0428682508677244,-0.1127328276634216,-0.005890900734812,-0.1951559782028198
1.1558891601562564,-0.1243854909403249,0.1324957686923444,-0.1414934602707624,-0.0980261862277984,-0.0010579468216747,-0.2009494304656982
1.165853271484373,-0.0843808128101751,0.110582627569884,-0.2394043839246034,-0.0863516852259635,-0.0042633274570107,-0.2046299129724502
1.175818115234371,-0.0760277758108451,0.0715038321129977,-0.3231821528077125,-0.0738514065742492,-0.0129012512043118,-0.2115589678287506
1.1857819824218794,-0.0258735326534137,0.0614754823125898,-0.3199748811990022,-0.0547075420618057,-0.0202047042548656,-0.2201974540948867
1.195747314453122,0.040200566028431,0.0825322988666594,-0.2680062090307474,-0.0308298282325267,-0.0192587543278932,-0.2236347198486328
1.205711425781253,0.0906442571191117,0.1201128185898065,-0.2562427060008049,0.0052472162060439,-0.0299241822212934,-0.225780963897705
1.2156762695312509,0.185302718315646,0.1084730880700051,-0.2542605922728777,0.0384195707738399,-0.0423498600721359,-0.2236212939023971
1.2256403808593817,0.2658590409342199,0.0016131342850625,-0.2659749954640865,0.0769390016794204,-0.0488628856837749,-0.2223480343818664
1.2356049804687572,0.3294336509505287,-0.1260968614354729,-0.2322264551192522,0.1142442300915718,-0.0643247812986373,-0.2142050564289093
1.2455690917968738,0.3643865986490622,-0.2162703227050602,-0.1779062513887882,0.1499292552471161,-0.0771138146519661,-0.2025377601385116
1.2555341796875084,0.3981961119335144,-0.2482923315182328,-0.1056809731334447,0.1763939410448074,-0.0779653415083885,-0.1872448772192001
1.2654992675781287,0.4348590418877079,-0.2836921462014317,-0.0648036038219928,0.1994262933731079,-0.0874509885907173,-0.1743615716695785
1.275463134765623,0.4485044496741145,-0.2696177358806133,-0.0271241537690162,0.2163121849298477,-0.0986379161477088,-0.1567657589912414
1.2854282226562574,0.4478359758280217,-0.2505171679608524,0.0371849445343017,0.2272785454988479,-0.1083214357495307,-0.1419620364904403
1.295392333984374,0.4499656082678586,-0.2638740776620805,0.1154389815598726,0.231352612376213,-0.112268716096878,-0.1173035353422164
1.305357177734372,0.4891610523743555,-0.3030526802316308,0.1844493894219398,0.2363148778676986,-0.0979353189468383,-0.0938844978809356
1.3153212890625028,0.5434891836829483,-0.3087118750371039,0.2652326526641845,0.2279829531908035,-0.0899799838662147,-0.0671328008174896
1.3252861328125007,0.5358217543276027,-0.2841043802641332,0.3286556157827377,0.2326184511184692,-0.0787371769547462,-0.0428255945444107
1.3352502441406315,0.5377503843026236,-0.2170005366757512,0.3206909205138683,0.2300402671098709,-0.0991655811667442,-0.0181245766580104
1.3452153320312519,0.5313470200663433,-0.2297759932272136,0.2238262910425663,0.204874187707901,-0.1164052933454513,0.0024275695905089
1.3551794433593827,0.4871673578064888,-0.2247067271389067,0.2365881574600934,0.1725965589284896,-0.1216847822070121,0.0200322326272726
1.3651440429687582,0.4314234414158389,-0.1862510320164263,0.3519786237031221,0.1326840221881866,-0.1019134745001792,0.0428904108703136
1.3751081542968748,0.3325073227748275,-0.1662852255694568,0.4308317956656217,0.0926936566829681,-0.0761085003614425,0.0574232079088687
1.3850732421874952,0.2286140367757529,-0.1364263861395418,0.4399398157507181,0.0605892576277256,-0.0500015392899513,0.077666163444519
1.3950371093750036,0.1400440651800483,-0.0094468966506421,0.3973474592149257,0.0266325511038303,-0.0407038331031799,0.098051868379116
1.4049990234375045,0.0874358529992401,0.077171064094454,0.2812497214853763,-0.0050667878240346,-0.0402106158435344,0.1086421906948089
1.414963134765621,0.0705979327818378,0.1032356258079409,0.2381459082961082,-0.0353050678968429,-0.0339556001126766,0.1188131794333458
1.4249277343749966,0.0534627101182937,0.1055906645014882,0.2679518484950065,-0.0609632916748523,-0.0161310620605945,0.1215823292732238
1.4348930664062536,0.0438845883034169,0.0746321932666003,0.2877928595185279,-0.082692839205265,0.0020937132649123,0.1243583634495735
1.4448571777343702,-0.0142446157885715,0.0249384802930057,0.259797183611989,-0.0977074727416038,0.0157330930233001,0.1302929520606994
1.4548220214843823,-0.06406513347961,0.0159669460691511,0.221950560298562,-0.1042476370930671,0.0259323753416538,0.1352309137582779
1.4647858886718765,-0.0986450100820511,0.0197486565649509,0.1678629962801933,-0.1040556207299232,0.0261795166879892,0.1408374011516571
1.4747509765624969,-0.1066204824732616,0.0191379773207008,0.057813306543231,-0.107556402683258,0.0049720779061317,0.144936054944992
1.4847148437500053,-0.0855941706553101,0.0035110768608748,-0.0233294376611709,-0.1105769649147987,-0.0089224325492978,0.1388952136039734
1.4946799316406256,-0.0747553447222337,-0.0487166846349835,0.0090530750274658,-0.1133060380816459,-0.0078040566295385,0.1367625296115875
1.5046440429687564,-0.0728546256674453,-0.0825929430127143,0.0845469996899366,-0.1161098182201385,-2.68267467617e-05,0.1317536532878875
1.5146088867187544,-0.0698810532167553,-0.1098971295237541,0.1118465100258588,-0.1044297888875007,0.0146688371896743,0.1243351697921752
1.524572998046871,-0.0797697753507643,-0.1024972285307943,0.0503548072308301,-0.0892545655369758,0.0142083764076232,0.1136204749345779
1.5345380859375055,-0.0524992353809997,-0.0712703156180679,-0.0909790785640478,-0.0665716230869293,-0.0003103779163211,0.1084086745977401
1.544502197265622,-0.0036267391297966,-0.0413860494859516,-0.2055377701580524,-0.0439163781702518,-0.0141327157616615,0.0943993777036666
1.5544667968749977,0.0163514884073287,-0.0026582594238221,-0.2738958515912294,-0.0205382797867059,-0.0331264212727546,0.0827776417136192
1.5644309082031285,0.0330613800645805,0.019298136318475,-0.2951169187963008,-0.0003480575978755,-0.0464275777339935,0.0633602663874626
1.5743959960937488,0.0366316762994043,0.0612077712871134,-0.2682049464732408,0.0158754717558622,-0.0534745752811431,0.0470290370285511
1.5843610839843834,0.0244380016912706,0.1044464629024267,-0.1970113493531942,0.0267369095236063,-0.0545731335878372,0.0256861988455057
1.5943251953125,-0.0015018559303134,0.1431410813473164,-0.1240074879407882,0.0318405516445636,-0.0609716214239597,-0.0001558009535074
1.6042897949218755,-0.0605247209263965,0.1646333667092025,-0.0497159248054027,0.0299462433904409,-0.0572975203394889,-0.0247596818953752
1.6142539062500063,-0.1095709480429999,0.1279163319475948,0.0416992070883512,0.0228167232125997,-0.0471168458461761,-0.0438644289970397
1.6242189941406266,-0.1457016890829429,0.0954338660158216,0.0860328543335199,0.0237099472433328,-0.0348162353038787,-0.0564385429024696
1.6341831054687574,-0.183788879686594,0.0826671772927045,0.1035948145091533,0.0305118821561336,-0.0208064261823892,-0.0653061270713806
1.6441479492187554,-0.1930352670627646,0.1489129427470266,0.0454325483977794,0.0366270318627357,-0.0290806032717227,-0.0708622857928276
1.654112060546872,-0.1531565899324603,0.1953974844157695,-0.0763362207055091,0.0371972881257534,-0.0417495667934417,-0.075275644659996
1.66407690429687,-0.1069153007013723,0.156890789758414,-0.1049397993773221,0.0410420931875705,-0.0453155376017093,-0.0817055776715278
1.6740410156250007,-0.0746975135877728,0.096987671329081,-0.0630956308603286,0.0383935719728469,-0.0460729785263538,-0.0867096930742263
1.6840058593749987,-0.0674790883752517,0.0213232124052941,0.0026958149552345,0.0393858663737773,-0.0425786450505256,-0.0883613899350166
1.6939699707031295,-0.0749538629690185,-0.0575016102455556,0.0845540139526128,0.0348861441016197,-0.0329551622271537,-0.0858302265405654
1.7039348144531274,-0.0883964233933947,-0.0962134720861911,0.1312906306862831,0.035780169069767,-0.0214468482881784,-0.0778308883309364
1.7138991699218806,-0.0709141956567764,-0.120177115997672,0.1292062256276607,0.0364152453839778,-0.0145766846835613,-0.0716119483113288
1.723864257812501,-0.0481448760963976,-0.1295366266258061,0.0930465324878692,0.0306825265288352,-0.0140613634139299,-0.0668179914355278
1.7338278808593728,-0.0177260464298538,-0.1172327331088483,0.0825146170794963,0.0298508219420909,-0.008610937744379,-0.0544649213552475
1.7437929687500073,0.0265839459450915,-0.060793491397798,0.0682604662775993,0.0267570279538631,-0.0002643247134983,-0.0529908612370491
1.7537580566406277,0.0860369642530567,0.016397008049488,0.0522077416211366,0.0162353459745645,-0.0028081012424081,-0.0538142994046211
1.7637219238281219,0.1230283955092541,0.0279063901878893,0.0031231004565954,0.0110174138098955,-0.0071921972557902,-0.0541083142161369
1.7736870117187564,0.140828237827681,0.0307861834079027,-0.0177232882171869,0.0084401071071624,-0.0108884936198592,-0.0540071055293083
1.783651123046873,0.1308517826112918,0.0108081020012497,-0.0148532857388257,0.004752695094794,-0.0169916599988937,-0.049852043390274
1.793615966796871,0.1012314829112961,-0.0419796314649283,-0.0200397484660148,0.0078300721943378,-0.0200059562921524,-0.0485010594129562
1.8035800781250018,0.0618691030063666,-0.0793022309042513,-0.0010018705189228,0.0086769573390483,-0.0121461693197488,-0.0478941239416599
1.813545166015622,0.0348384910060092,-0.0706925157301127,0.0498977111130952,0.0169783271849155,-0.003289122134447,-0.0419540107250213
1.8235087890625081,0.0291227985066361,-0.0195407129026949,0.0114963765263557,0.0226111784577369,-0.01320247258991,-0.0387254580855369
1.8334738769531285,0.0502896513064391,-0.020273411091417,-0.0592342792570591,0.0307425782084465,-0.0261158570647239,-0.0359805561602115
1.843437988281245,0.0627680611400865,-0.0298041866332292,-0.0818956083983182,0.0363517291843891,-0.0390588194131851,-0.0374588742852211
1.8534030761718796,0.0596781140344217,0.0107495036818087,-0.0365437240213155,0.0352855324745178,-0.0453923866152763,-0.0318347103893756
1.8633669433593738,0.0712829559039324,0.057646279413253,0.0246568868726491,0.0279234908521175,-0.0462797507643699,-0.0346270352602005
1.8733320312500084,0.0663253882954828,0.0858542828962206,0.101883334416151,0.0208722054958343,-0.0418125502765178,-0.0374500006437301
1.883296142578125,0.0417838166318833,0.102609748994559,0.1592044735282659,0.0111380843445658,-0.0344305336475372,-0.0399421863257885
1.893260986328123,0.0428560124406591,0.0590500087313353,0.1735527323544025,-0.0028831996023654,-0.0286449566483497,-0.0460218042135238
1.9032248535156313,0.0473401903836987,-0.01096621517241,0.16275895113945,-0.0143931154161691,-0.0203414857387542,-0.0474636405706405
1.9131899414062516,0.062422718301136,-0.0249801274776458,0.1425853471606969,-0.013747027143836,-0.0169168207794427,-0.0537398010492324
1.923155029296872,0.0542351740618236,0.0030954817973077,0.09673778822124,-0.0150005780160427,-0.0229920241981744,-0.0577617064118385
1.9331191406250028,0.0399037202400155,0.0388727514907717,0.0460579868197441,-0.024019556120038,-0.0296360459178686,-0.0603973232209682
1.9430839843750007,0.0318507986984215,0.0642781186431646,0.0321627324581146,-0.0369167104363441,-0.0363591946661472,-0.0696512684226036
1.953047851562495,-0.002752824105788,0.0608924217276275,0.0732885235726833,-0.0601079948246479,-0.0315389856696128,-0.0777007341384887
1.9630129394531295,-0.0616906594332307,0.0710312461651861,0.165789697137475,-0.0837129205465316,-0.0170191656798124,-0.0824107974767685
1.972977050781246,-0.0840458817673847,0.095164693685621,0.2416086159706115,-0.1095039695501327,0.0113493185490369,-0.0827162265777587
1.9829421386718806,-0.0732788789615035,0.0868795342907309,0.2489063717633485,-0.1302614361047744,0.0437554605305194,-0.0876992642879486
1.9929060058593748,-0.0606757102370262,0.0414303270190954,0.1467465584933757,-0.1355140805244445,0.0533934831619262,-0.0871797204017639
2.002871093749995,-0.0189288646146655,-0.0292310629203915,-0.0179775552392005,-0.1360765397548675,0.0538952201604843,-0.0778006017208099
2.0128349609375036,0.0224356123602949,-0.1005827732115983,-0.1259708969682455,-0.1232981905341148,0.051209669560194,-0.0707573890686035
2.022800048828124,0.0459610292512923,-0.138717273555696,-0.2001929019987583,-0.1057173311710357,0.0434034131467342,-0.0526985004544258
2.0327639160156323,0.0627320399786345,-0.1695395511902868,-0.2508645200937986,-0.0869836211204528,0.0358091257512569,-0.0383134856820106
2.0427290039062527,0.0714700759738683,-0.1625282111234962,-0.2868634697139263,-0.0644021481275558,0.0206389613449573,-0.0168731771409511
2.0526931152343835,0.0765092391848564,-0.1639832322373986,-0.2936076832771301,-0.0330358147621154,0.0114098060876131,0.003130811965093
2.062658203125004,0.1022522955927066,-0.1530893516488373,-0.2706464944064617,-0.0131848789751529,-0.0053278948180377,0.0225540436804294
2.0726230468750018,0.1306530999677255,-0.1140400745473802,-0.2564244923084974,0.0042655654251575,-0.0163767151534557,0.0397185683250427
2.082586914062496,0.1506017543504945,-0.1265583414673805,-0.1771463729321956,0.0166135802865028,-0.0212705414742231,0.0553806163370609
2.0925520019531305,0.1438060845946893,-0.1641163570977747,-0.105091190546751,0.0360596776008605,-0.0227542035281658,0.0697041079401969
2.1025158691406247,0.1489214183144271,-0.249391378801316,-0.0521077883780002,0.0508793704211711,-0.0265116579830646,0.0835120677947998
2.1124812011718817,0.1254191265706904,-0.2832695368751883,-0.0360796136409044,0.0653520226478576,-0.0413571260869503,0.0923388674855232
2.122445068359376,0.0834650496721267,-0.2721925548046827,-0.0050157823354005,0.0730213969945907,-0.0514995120465755,0.0959607660770416
2.132409912109374,0.0555117698688991,-0.2148899742625653,0.0745575205951929,0.0782070979475975,-0.0534047707915306,0.0978896543383598
2.1423740234375046,0.0258525446643121,-0.1239566345363855,0.1553957288950681,0.0790816769003868,-0.048068594187498,0.0926075428724289
2.152339111328125,0.0028412513079121,-0.0063122518867254,0.1838870793640613,0.0701610073447227,-0.0496680773794651,0.0822391957044601
2.1623029785156334,-0.0161547785251401,0.1349316175371408,0.1561672977894544,0.0617832355201244,-0.0460299327969551,0.0683268383145332
2.1722678222656313,-0.0117268790802918,0.2324092643402516,0.1258814651191234,0.0469389297068119,-0.0460911281406879,0.0517262406647205
2.1822321777343703,-0.0449960018777288,0.2206578901395201,0.1285503920674324,0.0298899039626121,-0.049552172422409,0.027768176048994
2.1921970214843824,-0.0985948325310833,0.195131819216907,0.164801270622015,0.0027510216459631,-0.0425670780241489,0.0025786156766116
2.2021608886718766,-0.1467770814958028,0.1653074665784835,0.2175409271627664,-0.0263727754354476,-0.0267630796879529,-0.016101062297821
2.212125976562497,-0.1871412405881099,0.1683142471790313,0.25315584590137,-0.0495716966688632,-0.0098803155124187,-0.0323385596275329
2.222090087890628,-0.2067838064300827,0.1564732949987053,0.194932204991579,-0.0715656802058219,-0.0055348356254398,-0.0471747629344463
2.2320549316406257,-0.2002781143304891,0.1386573600620031,0.1063514197409152,-0.0900995582342147,-0.0029360444750636,-0.058258906006813
2.2420202636718827,-0.169534400091134,0.1309009007163345,0.0211620304942131,-0.109583780169487,-0.0043368674814701,-0.0658313333988189
2.2519838867187545,-0.1454091358771547,0.1275634268566966,-0.0247357973277568,-0.1203081309795379,-0.0055037885904312,-0.0726444944739341
2.261948974609375,-0.11936265780963,0.0812383135333657,-0.022814473876357,-0.133248433470726,-0.0034262563567608,-0.0719640552997589
2.2719130859375056,-0.0895595123560167,0.0396979502685368,0.0030441900014877,-0.1375818401575088,0.0031526642851531,-0.0699523910880088
2.2818779296875036,-0.0636737960744649,-0.0145939041502773,0.0112877022117376,-0.1407890915870666,0.0101117705926299,-0.0673291757702827
2.291841796874998,-0.0239242982817813,-0.0568529370784759,0.0321744228959083,-0.1297482699155807,0.014136548154056,-0.0607662349939346
2.3018068847656323,0.0046727227850817,-0.0655124827437102,0.0262567232847213,-0.1165762692689895,0.0237055532634258,-0.0476861149072647
2.311770996093749,0.0599127447742037,-0.1221129063658416,-0.0109001641988754,-0.0971246361732482,0.0304108783602714,-0.033732570707798
2.3217360839843835,0.1100408123107627,-0.1947863667801022,-0.0774006350666284,-0.0724728256464004,0.0282992608845233,-0.0118594961240887
2.3316999511718777,0.1537966414016671,-0.2290577619552612,-0.1724474014610052,-0.0457875803112983,0.0195411685854196,0.0070535615086555
2.341665039062498,0.1823052535327151,-0.2321099891327321,-0.2643576233953237,-0.0139068812131881,-0.0053213061764836,0.0302283894270658
2.3516289062500064,0.2005022784751839,-0.2007775700189173,-0.3029530192494392,0.0142772179096937,-0.0260622315108776,0.0424173101782798
2.3615939941406268,0.1796560907308012,-0.1928865245081484,-0.2598953832894563,0.0382054522633552,-0.0377694889903068,0.0570439249277114
2.371557861328121,0.1429181775779463,-0.1576036142028868,-0.1650952851325273,0.0620139837265014,-0.0370997413992881,0.0696026906371116
2.3815229492187555,0.0977558244236744,-0.07795709990561,-0.0765922412931919,0.0795426443219184,-0.0301784519106149,0.0779812633991241
2.391487060546872,0.0641690322455018,0.013980010035634,-0.0527419946283102,0.0893452689051628,-0.0330941937863826,0.0788898840546608
2.4014521484375067,0.0637250696039758,0.0348553325429558,-0.0369260013371706,0.1002812683582305,-0.0290155634284019,0.0766011625528335
2.411415527343756,0.0539221260572783,0.0664016866683959,-0.019058336213231,0.1050670072436332,-0.0352564714848995,0.0713544487953186
2.421380371093754,0.0404527872238308,0.0802279674470424,-0.0289636441558599,0.1118894889950752,-0.0421133115887641,0.0666976422071456
2.4313457031249968,0.0281369658070616,0.085093673787266,-0.005363572859764,0.106639340519905,-0.0423505641520023,0.0578368119895458
2.4413098144531276,0.0168885178934782,0.1139772384442388,0.0598188011467456,0.099475160241127,-0.0392772741615772,0.0439170002937316
2.4512746582031255,-0.0138498077847063,0.1135267181977629,0.1005278281539678,0.0815005972981453,-0.0359825454652309,0.0307080242782831
2.461238525390634,-0.0640109373406507,0.1128498418495058,0.143926240375638,0.0599636137485504,-0.0323337502777576,0.0201752223074436
2.471203369140632,-0.0955617484454996,0.1511443550609052,0.2141366716772317,0.0331823006272316,-0.0157276634126901,0.0095664244145154
2.4811674804687485,-0.091004468733631,0.1470323896974325,0.2520288876980543,0.004069154150784,-0.0028057398740202,-0.0022484236396849
2.491132568359383,-0.0689973657174035,0.118573187932372,0.2249316219359636,-0.0265947412699461,-0.0025398451834917,-0.013693768531084
2.5010966796874996,-0.0649005065915174,0.0961491746783256,0.2055477070301771,-0.0484635531902313,0.0050834533758461,-0.0199119839817285
2.5110615234374976,-0.0797224473440088,0.0848114958450198,0.2199585096985101,-0.0662970840930938,0.0119580263271927,-0.0269851237535476
2.5210256347656284,-0.0773327939948067,0.0711971042513847,0.1503781929939985,-0.0848316252231597,0.0131290182471275,-0.0317481867969036
2.5309907226562487,-0.0763902159150689,0.0714756289318203,0.0689011022686958,-0.1001691222190857,0.0127415070310235,-0.0376900881528854
2.5409543457031205,-0.0665278155324049,0.0500510019786655,0.0316460151076316,-0.1111237704753875,0.0143287507817149,-0.0420813746750354
2.550919433593755,-0.063371963583678,0.0264918472148478,0.0632668957740068,-0.1157815158367157,0.0210680719465017,-0.0454358384013175
2.5608835449218716,-0.0676637242271564,0.0019064181432127,0.0963420669019222,-0.1113694608211517,0.0352318286895751,-0.0451628640294075
2.570848632812506,-0.0443183218118734,0.0189649588413536,0.0856587603241205,-0.0992119237780571,0.0441596917808055,-0.0481636188924312
2.580812744140623,-0.0138530591877177,0.0129562199458479,0.007924363258481,-0.0844566822052002,0.0406136959791183,-0.0493820160627365
2.5907775878906207,0.0295119074220769,0.0001692190870642,-0.0427957701534032,-0.0665104761719703,0.0415324307978153,-0.0482321605086326
2.6007416992187515,0.053949397656694,0.0055151101596653,-0.0970581062167882,-0.0487850047647953,0.0360921248793602,-0.0483125895261764
2.6107065429687495,0.0527160016705282,-0.0002631809808313,-0.1117202532976865,-0.031252846121788,0.0368045754730701,-0.0443726107478141
2.620671630859384,0.0532781655979342,-0.0134903268225491,-0.131963999903202,-0.0135526806116104,0.0358245335519313,-0.0429438240826129
2.630635253906256,0.0594519953946582,-0.0168630181260406,-0.1304138478517532,0.0015231724828481,0.0336899533867836,-0.0392202883958816
2.6406005859374986,0.0464429310167208,0.0187752814881503,-0.1625081912487745,0.0139689231291413,0.0247774180024862,-0.0346689485013484
2.6505646972656294,0.0625400793367996,0.0437481024421751,-0.1734744064211845,0.029041051864624,0.0162196345627307,-0.0334271304309368
2.6605295410156273,0.0718176838351413,-0.0013991992734372,-0.1515542510360479,0.0471715852618217,0.0154108330607414,-0.0322060696780681
2.6704934082031215,0.0698190208312124,-0.0102649350352585,-0.1100713170468807,0.0566450841724872,0.0079297646880149,-0.0277675203979015
2.680458496093756,0.0756387947595678,-0.0373296137019991,-0.1091466034173965,0.0653850436210632,-0.0019494977314025,-0.0244777183979749
2.6904226074218727,0.0550207166826352,-0.066381959054619,-0.0708078126728534,0.0759892463684082,-0.0069662253372371,-0.022787781432271
2.700387695312507,0.0385918156575411,-0.0539830807305872,-0.0260959797650575,0.0693515837192535,-0.0112499203532934,-0.0171368196606636
2.710351806640624,0.0400562256542965,-0.0270582489259541,0.0179664493232965,0.0661323592066764,-0.0108696203678846,-0.0126680359244346
2.7203164062499994,0.0555067101012915,-0.0244730547383427,0.0672375529706478,0.0584276355803012,-0.0072000883519649,-0.0150475408881902
2.73028051757813,0.0582298331885598,-0.031039281386137,0.0964472808420658,0.0515446588397026,-0.0117495097219944,-0.0118258912116289
2.7402456054687505,0.0508165247247554,-0.0495297545835375,0.1048234795212745,0.0355513133108615,-0.0180577393621206,-0.012376632541418
2.7502097167968813,0.0378415087468922,-0.0463747976839542,0.1581172628134489,0.0218060482293367,-0.0175455585122108,-0.013555459678173
2.760174316406257,0.0092995058028958,-0.0233944657213985,0.2105214037895202,0.0043215965852141,-0.0106026977300643,-0.0147725231945514
2.7701384277343735,-0.0103630981801077,-0.0235243757113814,0.2154839946329593,-0.0204826258122921,-0.0071844141930341,-0.0196417979896068
2.7801037597656304,-0.0212663859178312,-0.0218479669317603,0.2098264072626829,-0.0382251366972923,0.004625107627362,-0.0286179818212986
2.7900676269531246,-0.0654653191337361,0.0287746974550187,0.1808826368510723,-0.0658456459641456,0.0155385509133338,-0.03314720839262
2.800032714843745,-0.0819321410164237,0.1050434058822691,0.1676771183192729,-0.07559335231781,0.0244138017296791,-0.0429353937506675
2.8099973144531205,-0.093224610734824,0.123283411449939,0.1359656367599964,-0.0845091193914413,0.033686988055706,-0.0458019971847534
2.8199614257812513,-0.073029872636497,0.0827994253702461,0.0675631316632032,-0.088390938937664,0.0395978726446628,-0.0579081922769546
2.8299265136718716,-0.0596431523188948,0.06099032914415,-0.0107698158174753,-0.0841627344489097,0.0439623929560184,-0.0596842169761657
2.839890869140625,-0.0373518985990434,0.0615134762354195,-0.0897714563399553,-0.0703217536211013,0.0385399311780929,-0.0637641847133636
2.8498554687500004,-0.0088216956906951,0.0186712365917861,-0.1707967116445302,-0.0573214665055274,0.0300734378397464,-0.0625670626759529
2.859819580078131,-0.0052471616721712,-0.0428841790892183,-0.1847732145488262,-0.0429142974317073,0.0312244556844234,-0.0633196681737899
2.8697846679687515,-0.0146265643108636,-0.0726674690648913,-0.1424246036410331,-0.0228007435798645,0.0378559008240699,-0.0579438805580139
2.8797485351562457,-0.0079516348578967,-0.0492312100283801,-0.104337741830945,0.0052410094067454,0.0349855460226535,-0.0450445935130119
2.889713378906258,0.0329064634975045,-0.0306023512735962,-0.1765454844295978,0.0242623426020145,0.0239576399326324,-0.0383899435400962
2.8996774902343745,0.0895834777534939,-0.0436858508609235,-0.2128741043955087,0.0391763113439083,0.0150088854134082,-0.030165834352374
2.909642578125009,0.1337125423372723,-0.0503488158814609,-0.1811281360447406,0.0546363554894924,0.0141502078622579,-0.0195211190730333
2.9196066894531256,0.145263334198296,-0.0593875701226294,-0.1383627610296011,0.0725232064723968,0.0027742488309741,-0.0113159194588661
2.929571777343746,0.1152492494077421,-0.0665530778378248,-0.1010118122786283,0.0881442427635192,-0.0035568841267377,-0.0058441893197596
2.9395356445312544,0.0849035580426454,-0.0816967248253524,-0.052414077848196,0.0973965972661972,-0.0095543228089809,9.01329331099e-05
2.9495004882812523,0.0681120707828551,-0.1290000355310738,0.0174473938852548,0.1026390865445137,-0.0070042591542005,0.0084273014217615
2.959464599609383,0.0562397005509585,-0.1421118844300508,0.0816302354604005,0.1092479899525642,0.0004315532278269,0.0156207662075757
2.969429443359381,0.051719209185522,-0.1102592408344149,0.0850520266026258,0.1120196506381034,-0.0079504726454615,0.0155199505388736
2.9793935546874977,0.052455323174037,-0.0943343803413212,0.0414864411205053,0.1124257892370224,-0.0170864462852478,0.0169268995523452
2.989358642578132,0.0428506421457976,-0.0342746100455522,0.040530163308978,0.1048417389392852,-0.0240028090775012,0.0128341186791658
2.99932348632813,0.0342508090448565,0.0329455533988773,0.0734147803008556,0.0940713882446289,-0.0249370448291301,0.0087887765839695
3.0092875976562468,0.0430717375505715,0.0506548130907118,0.1104097552210092,0.0849580094218254,-0.0202929694205522,0.0069216582924127
3.0192526855468813,0.0286544503425247,0.0661287149459123,0.15080430945158,0.0681939423084259,-0.0223531909286975,0.0013617766089737
3.0292165527343755,0.0172310659871436,0.1070041845612227,0.1578887147545814,0.0521664582192897,-0.0292487293481826,-0.0056629730388522
3.039181640624996,-0.004778557779733,0.1190652092330157,0.1370996092259883,0.0351302176713943,-0.0283730812370777,-0.0120202051475644
3.0491457519531266,-0.0184031967727467,0.1152441896401345,0.1836737288743257,0.0074026649817824,-0.0197511482983827,-0.0151593722403049
3.0591105957031246,-0.0201217459273524,0.1052032726190984,0.242788181143999,-0.0201277621090412,-0.0001731859520077,-0.018615623936057
3.069074462890633,-0.0178706790649332,0.0422290761813521,0.2246358538597822,-0.045227788388729,0.0060529811307787,-0.02713618054986
3.0790395507812534,-0.020219342816621,-0.0290507379174232,0.1548211438775062,-0.0712063908576965,0.0046462994068861,-0.0320838019251823
3.08900366210937,-0.026211916028615,-0.0660645636685192,0.1397667826086282,-0.0859704613685607,0.0131255947053432,-0.0296829380095005
3.098968505859382,-0.0158898074460215,-0.0474355587832629,0.1311351478636264,-0.1015358343720436,0.0206287838518619,-0.0273524038493633
3.1089323730468763,-0.0040818076872266,-0.0122070090137422,0.059918754389882,-0.1119914203882217,0.0178360939025878,-0.0262068435549736
3.1188977050781332,0.0172299334759823,0.0211963711552321,-0.0052174423873424,-0.1206533461809158,0.0123728848993778,-0.0254776701331138
3.1288615722656274,0.0404420831667259,0.0266883927002549,-0.0321942966401576,-0.1269581317901611,0.0130071770399808,-0.0198832377791404
3.138826660156248,0.0531791804691776,0.001227934359759,-0.0130874451100826,-0.1241040229797363,0.0257338900119066,-0.0153169818222522
3.148790527343756,0.0639548415055498,-0.0749853906184434,-0.014116203635931,-0.1078938990831375,0.0322202108800411,-0.0113947596400976
3.158755371093754,0.0521990651243366,-0.1424333714693784,-0.0646253246456384,-0.0902621746063232,0.0265492759644985,-0.0023099179379642
3.1687194824218707,0.0579014232181012,-0.1649918247580528,-0.1260340253323316,-0.0674022659659385,0.0221139341592788,0.007880687713623
3.1786848144531277,0.074781118484307,-0.1824614304751157,-0.1252624564379453,-0.0397898145020008,0.0180374346673488,0.0150837395340204
3.1886496582031256,0.081429032066185,-0.1891952687747776,-0.1685667606353759,-0.015361800789833,0.0077475681900978,0.022951204329729
3.198613525390634,0.088261015244387,-0.1480617327451706,-0.2137421194016933,0.0098729813471436,-0.0032060130033642,0.0335884056985378
3.2085786132812544,0.0843983667331747,-0.11746274247244,-0.1806342150479555,0.0285063870251178,-0.0078892577439546,0.0362784527242183
3.2185424804687486,0.0725819279395975,-0.0591385637976229,-0.1297626904666423,0.0464036278426647,-0.0031301886774599,0.0411009043455123
3.228507568359383,0.0649310843928717,-0.0239094295062124,-0.112202483856678,0.0638378113508224,-0.0063749840483069,0.0411933846771717
3.2384714355468773,0.0689021799809299,-0.0348836818546056,-0.125526075810194,0.081125721335411,-0.0139455525204539,0.0403204001486301
3.2484365234374977,0.0725324079757556,-0.0494014520287513,-0.1061824929147958,0.1008904799818992,-0.0217129867523908,0.0366812385618686
3.2584006347656285,0.0543407533281482,-0.0400987861543893,-0.1100350766897201,0.1124390065670013,-0.0286412015557289,0.0312811471521854
3.268365722656249,0.0388053853429853,-0.0250102303549647,-0.0795733029305934,0.1203208640217781,-0.0358139090240001,0.0249973628669977
3.278329589843757,0.0319813845418393,0.0035411797381937,-0.0449877272397279,0.1183700934052467,-0.0453890413045883,0.0172406397759914
3.288294433593755,0.0096354780253022,0.0260331436619162,-0.0017681787163019,0.1123454943299293,-0.0431296899914741,0.0096870362758636
3.2982585449218718,-0.007705350212939,0.0411877504348754,0.0841606307208538,0.0994653850793838,-0.0371218621730804,0.0017377673648297
3.3082236328125063,-0.0152123648421838,0.0656990913569927,0.1490022284656763,0.081977866590023,-0.0386146791279315,-0.0021823868155479
3.3181875000000005,-0.0149412014842964,0.0516411937795579,0.1907324152141809,0.0629945918917656,-0.0322475917637348,-0.0142342559993267
3.328152587890621,-0.0290368920551612,0.018901684346795,0.2114905410826206,0.0407672151923179,-0.0278857350349426,-0.0269316416233778
3.3381166992187516,-0.0405849622361361,0.0329603125765919,0.2356324641704559,0.0127747282385826,-0.0184355080127716,-0.0318600870668888
3.3480815429687496,-0.0195657377460971,-0.0041999359078705,0.2507084527492523,-0.0073625990189611,-0.0123375356197357,-0.030648048967123
3.358045410156258,0.0013601276383735,-0.0344942441456019,0.2223351757019758,-0.0348895639181137,-0.0096530690789222,-0.0352947302162647
3.3680104980468784,-0.000836304693669,-0.0379072674594819,0.1595160236954688,-0.0598026253283023,-0.0100518614053726,-0.0365111120045185
3.3779743652343726,-0.0071223626932129,-0.0278710266135632,0.1479021582692861,-0.0779206454753875,-0.0048914537765085,-0.0372559987008571
3.3879396972656295,-0.0369647076460532,0.0008287059091031,0.1376724406778812,-0.0939420834183693,0.0007436410523951,-0.0361257717013359
3.39790478515625,-0.0173524090781807,0.0116749479636549,0.0993441713273525,-0.1123871356248855,0.0080545507371425,-0.0289285778999328
3.407867919921877,-0.0011061894099228,0.0243583423174917,0.0688058252006769,-0.1219494640827179,0.0126003623008728,-0.0303072072565555
3.417833251953134,0.0303836670216172,0.0028192952044308,0.0196697461098432,-0.1224088594317436,0.0157532785087823,-0.0264637321233749
3.4277973632812504,0.0595445142500102,-0.035485447140038,0.0003612345278263,-0.115332007408142,0.0254726931452751,-0.0212492886930704
3.4377622070312484,0.0748613623799756,-0.0755826258592307,-0.0616144523918628,-0.0970536693930625,0.0205993764102458,-0.0115974601358175
3.4477260742187568,0.0673402826927602,-0.0900955737277865,-0.1350917765349149,-0.0738037750124931,0.013501739129424,-0.0018120440654456
3.457691162109377,0.074120188623853,-0.0641455783046782,-0.182578334853053,-0.0497517064213752,0.0088444026187062,0.0069646695628762
3.467655273437508,0.0954564249075017,-0.043879765997827,-0.1692412988960742,-0.0246335305273532,0.0116522191092371,0.0203455593436956
3.477620117187506,0.1100498541337437,-0.0523513878755271,-0.1685527321100235,0.0008348124101758,0.010527566075325,0.0297318696975708
3.487583984375,0.142621751914639,-0.0280823312766849,-0.2163783131241798,0.0192979909479618,0.0033763656392693,0.038025677204132
3.4975490722656204,0.1619497719147242,-0.0210030405402183,-0.2315741286903619,0.0435327589511871,-0.0083854850381612,0.0399005413055419
3.507513183593751,0.1535821401344612,-0.0011620295166969,-0.1932020201981067,0.0667645931243896,-0.0155216306447982,0.0399080887436866
3.5174782714843715,0.1224994579980149,-0.0187255971275269,-0.1202168634861707,0.0828314423561096,-0.0127261094748973,0.0416956022381782
3.5274423828125023,0.0914955219198949,-0.0389659827321767,-0.0310123933792114,0.0985802263021469,-0.0097119295969605,0.0422292202711105
3.537406982421878,0.0700872981122694,-0.0501315198689699,0.0082452657759189,0.1081340461969375,-0.012511177919805,0.0408560968935489
3.5473710937500087,0.056591327000223,-0.0645870384618639,-0.0121755909621715,0.1209849864244461,-0.0194320082664489,0.0413320586085319
3.5573364257812514,0.0582983135811984,-0.1024281088173389,-0.0172737908840179,0.1188483387231826,-0.0265945792198181,0.0397581309080123
3.5673002929687456,0.0602085311166942,-0.1040200541839003,0.0067190791219472,0.1111702024936676,-0.0317134596407413,0.0381272248923778
3.577265136718758,0.0539488496674224,-0.0718840636022389,0.0697521661400795,0.0952695310115814,-0.0284500196576118,0.0332083664834499
3.5872292480468744,0.041073238943424,-0.0529898319095373,0.1577238795816898,0.0719377249479293,-0.0156550575047731,0.0253304112702608
3.5971940917968723,0.0171221257199533,-0.0012253040112555,0.1827116058439016,0.0497362837195396,-0.0118294265121221,0.0144460722804069
3.607158203125003,0.021995156850107,-0.0240270645365118,0.1398293264508247,0.0270521119236946,-0.0042662103660404,0.0086014177650213
3.617123046875001,0.0201948476961813,-0.036746991508454,0.1110977374851703,0.0129786347970366,0.0054876171052455,0.0054322560317814
3.627087158203132,0.0225383420824073,-0.0192787009656429,0.0938584333926439,0.0049409195780754,0.0098824501037597,0.0017824652604758
3.637052246093752,0.0229873279589228,0.0142978438131511,0.0590197597235441,-0.0101288435980677,0.0138231292366981,-0.0038381363265216
3.647016357421883,0.0320937223425135,0.0424922571621835,0.0119242465496063,-0.0230845343321561,0.0107926167547702,-0.0135976150631904
3.6569809570312586,0.0318084391277283,0.0556108280628919,0.0172317053079605,-0.0366389602422714,0.0170667581260204,-0.0187846533954143
3.666945068359375,0.025145163579937,0.0483547194547951,0.0551531474232673,-0.0415215715765953,0.0383528545498847,-0.0232134759426116
3.6769101562499955,0.0122321799876168,0.0328382936321198,0.0729857412338256,-0.0365707539021968,0.047686967998743,-0.0176013968884944
3.6868742675781263,0.0155760105228051,0.0158089790284633,-0.0027794015854597,-0.0224730800837278,0.0549073219299316,-0.0087650902569293
3.6968393554687466,0.0428856038613244,-0.009675590839982,-0.1271487085759639,-0.0017182664014399,0.040951557457447,0.0010111080482602
3.706803222656255,0.0645028125108219,-0.0201318106636404,-0.2142898164123296,0.027883518487215,0.0168881621211767,0.0089125465601682
3.7167683105468754,0.0838209504377096,-0.045881899600476,-0.214955002322793,0.0428454242646694,0.0042306897230446,0.0145930685102939
3.7267331542968734,0.0865317802989855,-0.0577566079199314,-0.0862082109004259,0.0558889806270599,0.0077919857576489,0.0195047855377197
3.736697265625004,0.0529991294608451,-0.0322162162110209,0.0655681584537029,0.0575417354702949,0.0221743863075971,0.0250425618141889
3.746662109375002,0.0072730597428977,0.0012859481573104,0.1510135682880878,0.0553884319961071,0.0314327515661716,0.0251001063734293
3.7566259765624963,-0.002104735460598,0.0068273618020117,0.143644500824809,0.0466316938400268,0.0383010432124137,0.0280141364783048
3.7665913085937532,0.0053588236194103,-0.0253635738372802,0.1104062480896711,0.0414895936846733,0.0432899184525013,0.0316207408905029
3.776555419921884,0.0282433305246755,-0.0520415912739932,0.0848170488029718,0.043435301631689,0.0508820563554763,0.0373196378350257
3.786520263671882,0.0367451831438578,-0.0414732893779873,0.0182692316621541,0.0488929599523544,0.0485930107533931,0.0422451347112655
3.796484130859376,0.0682518263134174,-0.0219663326144218,-0.0700432580411434,0.0631600469350814,0.0354630947113037,0.043231301009655
3.8064492187499965,0.0939231874582357,-0.0017345687076449,-0.1384592071413993,0.0777365937829017,0.015780733898282,0.0466667786240577
3.816413085937505,0.0933823403134942,0.0140577514469623,-0.1560644219368696,0.0880946889519691,0.0017325597582384,0.0464449375867843
3.8263784179687477,0.080009812918026,0.0537852200709283,-0.0810509742677211,0.0916755944490432,-0.0073163034394383,0.0458737388253212
3.836342285156256,0.0630626967051066,0.0512355355881154,0.022598200777173,0.0842517614364624,-0.005405219271779,0.0451264567673206
3.846307128906254,0.0501042665358632,0.0495930290780961,0.1152209548950195,0.0719988197088241,-0.0005769080016762,0.0448875688016414
3.8562712402343706,0.0243873674825765,0.0200783269107341,0.1542600028634071,0.0567088164389133,-0.00161261158064,0.0442665219306945
3.866236328125005,0.0011434526803903,-0.0209092247769236,0.1389163032591343,0.0392651818692684,-0.0027898056432604,0.0418733917176723
3.8762001953124994,-0.0090260408900678,-0.0591841565050184,0.1369073015242815,0.0180680193006992,-0.0020374627783894,0.0336250513792037
3.8861650390624973,-0.0354909270327538,-0.0862317379064857,0.1893751553863286,-0.0030055060051381,0.0027649386320263,0.0327978655695915
3.896129150390628,-0.0642721090274862,-0.101564477725327,0.2148153015911579,-0.0288107376545667,0.0151217393577098,0.0274552982300519
3.9060942382812485,-0.0763986549498513,-0.081595748668909,0.2025029325067996,-0.0514067262411117,0.0195466671139001,0.0223584752529859
3.916058105468757,-0.0534121672411449,-0.0692411478780209,0.1620949342727661,-0.0694523081183433,0.0253086816519498,0.016294989734888
3.926023193359377,-0.044629744114913,-0.0395826533257961,0.0935030440837144,-0.0871010944247245,0.0243151001632213,0.0103641636669635
3.935987304687508,-0.0350340683770366,-0.0117152799740433,0.0380880308538675,-0.0974765047430992,0.0273585617542266,0.0112938731908798
3.945952148437506,-0.0369682147773914,0.0115147889658808,-0.0256786311358213,-0.1038208752870559,0.0193716622889041,0.0069337380118668
3.955916015625,-0.049529571920447,-0.0102438922472298,-0.0929711291640996,-0.1048318147659301,0.0131609048694372,0.0066088321618735
3.965881347656257,-0.0540168734023347,-0.0312618380956351,-0.1117769519209861,-0.100731685757637,0.0124475229531526,0.0074442741461098
3.9758452148437513,-0.0622197065423242,-0.0273792975738644,-0.1057896942049264,-0.0898252427577972,0.0087657012045383,0.0073137795552611
3.9858103027343716,-0.0743005318931303,-0.0159524791523814,-0.0676519789904356,-0.0747384130954742,0.0222793351858854,0.0094365505501627
3.9957744140624953,-0.0541285170832648,-0.0252023919261991,-0.0510176550537347,-0.0513931438326835,0.0242737773805856,0.015434255823493
4.005739013671871,-0.0194711547978222,-0.0397032109655439,-0.1134995379298925,-0.0266141034662723,0.0223275870084762,0.0185482520610094
4.015703125000002,0.0179431049803271,-0.0304471607118844,-0.1798749211132526,0.0013948949053883,0.0133900195360183,0.0249166693538427
4.025668212890622,0.0534685736034996,-0.0495600035913288,-0.212412916624546,0.0267396681010723,0.0047984244301915,0.0269399173557758
4.035632324218739,0.0663631082236766,-0.0739015409044921,-0.2173544646799564,0.0561929009854793,-0.0042837536893785,0.0331453494727611
4.045597167968751,0.0645067215009592,-0.0414471320234239,-0.1706260312527418,0.0780812799930572,-0.009560652077198,0.0397926159203052
4.055561279296867,0.0581995476481504,-0.0463613536804914,-0.133694769218564,0.1017898023128509,-0.0193605534732341,0.0442771129310131
4.065526123046865,0.0593817979689687,-0.0745798785574734,-0.0952694692343473,0.1162986978888511,-0.0249566808342933,0.0461138524115085
4.075490234374996,0.0566559166690334,-0.0846620043717324,-0.041917818275094,0.1223440691828727,-0.0269721616059541,0.051611416041851
4.085455078124994,0.0625564276834018,-0.0599916734956204,0.0124555769473314,0.1142715290188789,-0.0248325672000646,0.050029557198286
4.095419189453125,0.0763952026174403,-0.0500828584216535,0.0611357289642095,0.1097263172268867,-0.0235987231135368,0.0473613366484642
4.105384277343745,0.0555741858469322,-0.0455368855550885,0.0757476071625948,0.0962966978549957,-0.0288831405341625,0.0378397330641746
4.115348388671876,0.0204468131632544,-0.0403648897446691,0.097597619920969,0.0779906585812568,-0.0339410156011581,0.0293700788170099
4.125313476562496,-0.0225249346115626,0.0291780175589025,0.1284030925512314,0.059446170926094,-0.0352538600564003,0.0233215037733316
4.135277099609368,-0.0446039338202215,0.0978197382390499,0.210751120892167,0.0345951467752456,-0.0206621345132589,0.013881929218769
4.1452421874999885,-0.0368503605513833,0.1187001753129065,0.2494774496495723,0.0099451439455151,-0.0178687386214733,0.0030475857201963
4.155206298828119,-0.0609363704672083,0.1083612982586026,0.1963227825671434,-0.0158166792243719,-0.0159829538315534,-0.0094311879947781
4.165171142578117,-0.0605420556536875,0.1221495851144194,0.1679699637860059,-0.0356277152895927,-0.0102685783058404,-0.0169913955032825
4.175135009765626,-0.0572420459939166,0.1205466799624264,0.1717898143351078,-0.0581431426107883,-0.0082938438281416,-0.0228106677532196
4.185100341796868,-0.0487747897640801,0.1101084341868758,0.1155120467960834,-0.0714760422706604,-0.0089073739945888,-0.0279510803520679
4.195064208984377,-0.0413885337039828,0.0869224966496229,0.081291797286272,-0.0876909643411636,-0.0043935822322964,-0.0316044054925441
4.205029296874997,-0.0392221311840228,0.0648787148848176,0.0784790779531002,-0.0944257900118827,-0.0010143599938601,-0.0357640162110328
4.214993164062491,-0.0270452981128357,0.070975424324721,0.0698714086055755,-0.0953030288219451,0.0095647815614938,-0.0310398340225219
4.224958007812489,-0.0100245504081249,0.0635939357712864,0.0001624970853328,-0.0894419327378273,0.0064262142404913,-0.0214455723762512
4.23492211914062,0.0128798302413895,0.0217642341710627,-0.069562781047821,-0.0830010771751403,0.0054365834221243,-0.016668926924467
4.244887451171863,0.0417454573828727,-0.0177924079306423,-0.1143605386734008,-0.0707974731922149,-0.0027133938856422,-0.0111297573894262
4.254851318359371,0.060983753272891,-0.0389661288626492,-0.133830962818861,-0.0581027157604694,-0.0097705041989684,-0.0083531439304351
4.264816162109369,0.0797016968169249,-0.0630924159899354,-0.1139730006605386,-0.0410204231739044,-0.0069893198087811,-0.0023269103839993
4.2747802734375,0.0819555766909383,-0.0663506871335208,-0.0807534526258707,-0.0245186798274517,-0.0038422627840191,0.0048766736872494
4.28474536132812,0.0873000429914332,-0.0844533300571143,-0.073622870093584,-0.0105486558750271,-0.0003691238816827,0.0151769649237394
4.294708984374992,0.0953505533802323,-0.1271320497021079,-0.1018546928435564,0.0051722498610615,0.0041009918786585,0.0249656792730093
4.304674072265627,0.1031699401605874,-0.1589738796427846,-0.1331365508139133,0.0196518339216709,-0.0031031088437885,0.0352542586624622
4.314638183593743,0.1221469547659158,-0.1952348411999642,-0.1490454830855131,0.0380295068025589,-0.0156314168125391,0.047050729393959
4.324603271484364,0.1286307455609552,-0.1907157563403248,-0.120147305381298,0.0578281991183757,-0.0210655648261308,0.0544689409434795
4.334567138671872,0.1308296073121018,-0.1432204301938414,-0.0848901140391826,0.0717775672674179,-0.0289301462471485,0.0603569261729717
4.344532226562492,0.1237667745200917,-0.1188105038195848,-0.0457516973495483,0.0744501650333404,-0.0316368453204631,0.057779211550951
4.354496093750001,0.0961067420423962,-0.0866677912361919,0.0298328282058238,0.0769721716642379,-0.030378233641386,0.0587224997580051
4.364461181640621,0.0678717409546487,-0.0323931802131235,0.0673234776884317,0.078410804271698,-0.0270016118884086,0.0568937100470066
4.374425292968752,0.0498807965109124,0.0178672267325222,0.0528805263161659,0.07754448056221,-0.0361450426280498,0.0458967164158821
4.384389892578113,0.005655705940444,0.0501801813162863,0.0643921004116535,0.0735755935311317,-0.0359359979629516,0.0380265563726425
4.3943542480468665,-0.0281117583005689,0.1091805056869983,0.094721772223711,0.0667906627058982,-0.030101278796792,0.0266319550573825
4.404319335937501,-0.0534979092958383,0.1483496097758412,0.1044651676028966,0.0564937144517898,-0.0247526988387107,0.0140259675681591
4.41428369140624,-0.0617230455991812,0.1691034978605806,0.0903542246639728,0.0438934974372386,-0.0254754815250635,0.0012553110718727
4.4242487792968745,-0.0614841588093899,0.1800721972510218,0.0517044682741165,0.0281287729740142,-0.0265254098922014,-0.0094678904861211
4.434212646484369,-0.0456023154741153,0.1806345073089003,0.0685614950507879,0.007524162530899,-0.0189633630216121,-0.0174560416489839
4.444177490234367,-0.042597105776146,0.1708168776497244,0.1051513963013887,-0.0130565958097577,-0.0117091294378042,-0.0252035483717918
4.4541416015624975,-0.0386635839858092,0.1168506019234657,0.1032154598027467,-0.0259572155773639,-0.0022016442380845,-0.0309700928628444
4.46410693359374,-0.0332648119485005,0.0281707402125,0.0969949778527021,-0.0409476980566978,-0.0022135186009109,-0.033380202949047
4.474070800781249,-0.01051500080619,-0.0528502773083746,0.0966939490795135,-0.0493110865354537,0.006450543180108,-0.0338068380951881
4.484035644531247,0.0044887810529209,-0.0733864309892058,0.0764729988276958,-0.055417276918888,0.0038207657635211,-0.0253992453217506
4.493999755859363,0.0152327865757048,-0.0915523484073579,0.0494856231808662,-0.0600541085004806,0.005067391321063,-0.0217895954847335
4.503964599609375,0.017386128684692,-0.0618437311030924,0.0408159945130348,-0.0618451312184333,0.0144129879772663,-0.0155756659805774
4.5139284667968695,0.0275004762681201,-0.0423491954296827,0.0430956298828125,-0.0635378360748291,0.0223100595176219,-0.0105950217694044
4.5238937988281265,0.0339641010579653,-0.0354638198301196,0.008785948523879,-0.0533720403909683,0.0265205316245555,-0.0012380173429846
4.533857910156243,0.0588208944168873,-0.0481736637994647,-0.030444238102436,-0.0413342863321304,0.0199949890375137,0.0065831542015075
4.543822753906241,0.0775961759050376,-0.0731350865766406,-0.050349546533823,-0.0271211322396993,0.0166762825101614,0.0122724380344152
4.553786621093749,0.0904340849671512,-0.0871187498740851,-0.0659744011670351,-0.0119357882067561,0.0128871360793709,0.0203902851790189
4.563750732421866,0.0906857581732794,-0.089747783203423,-0.0785030433505773,0.003295524045825,0.0092160953208804,0.0227376352995634
4.573715576171864,0.0838651914382353,-0.0588999327361583,-0.0618079291373491,0.0245901606976985,0.0055174967274069,0.0252620447427034
4.583679687499995,0.0742510301955975,-0.0167823541052639,-0.0392664269834756,0.0453583113849163,0.0075635882094502,0.0281475931406021
4.593644531249993,0.0781312691624276,0.0094799221374094,-0.0366448463082313,0.0502920858561992,0.0009685357799753,0.0302589461207389
4.603608886718746,0.0799485111848451,0.0122154845811426,-0.0212158065080642,0.0533474534749984,0.0025374821852892,0.0224524307996034
4.613573730468744,0.0670245130081661,0.0037367023102939,0.0323211378902196,0.053950659930706,0.0037952931597828,0.0198673009872436
4.623537841796875,0.035658739614021,0.0213069919228553,0.0675520257472992,0.0573797337710857,0.0070837484672665,0.0173702649772167
4.633502685546873,0.0239766312572173,0.0161225750222802,0.0864309137403964,0.0582087747752666,0.0111485309898853,0.013944374397397
4.643466552734367,0.0181958376323804,0.0412900417655706,0.0313671981662511,0.0574735477566719,-0.0059562316164374,0.0114287454634904
4.653431640625001,0.0118634745393879,0.0773570881858468,-0.0114653968662023,0.0521323159337043,-0.0208694022148847,0.0079967295750975
4.663395751953118,0.0030357327003963,0.07152750524953,0.0236339735656976,0.0372246988117694,-0.0231146328151226,0.0011825738474726
4.673360839843738,-0.0064044054158963,0.0422220619186759,0.1230412732571363,0.0126714212819933,-0.0114427972584962,-0.0046002138406038
4.683324707031247,-0.0382970704946666,0.0177380473949015,0.1850567076653242,-0.0172166228294372,-0.0031812484376132,-0.010240308009088
4.693289794921867,-0.0445145385037176,0.0326592838034033,0.1839502077281475,-0.0430887006223201,0.0055288858711719,-0.0163943395018577
4.7032536621093755,-0.0319023644888773,0.0554300646685063,0.1539952144473791,-0.0586896575987339,0.0060259709134697,-0.0224938169121742
4.713218749999996,-0.0072789232281036,0.0786241855122149,0.0933586671769619,-0.0676320195198059,0.0011206946801394,-0.0274683348834514
4.72318261718749,0.0184246231532655,0.0747924983948469,0.0318769012540578,-0.0766422301530838,-0.0020450502634048,-0.03464125841856
4.733147460937488,0.0309340491796843,0.0242196644991636,0.0293172798991203,-0.0808023512363433,0.0027385195717215,-0.0380210764706134
4.743111816406241,0.0322849157993681,-0.0111843879677355,0.0663274523884058,-0.0841714441776275,0.0173993688076734,-0.0410127155482769
4.753076904296876,0.0102082364119589,-0.0386797131367027,0.0931686975628137,-0.0847834348678588,0.0241936240345239,-0.0371527299284935
4.76304077148437,0.0086734463264234,-0.066870619354397,0.0662210694044828,-0.0772194489836692,0.031518880277872,-0.0346077196300029
4.773005615234368,0.02004639740251,-0.0547169479630887,-0.0031342063724994,-0.0674331337213516,0.0291121788322925,-0.0282675325870513
4.782969726562499,0.0442040295161306,-0.0388173680417239,-0.0778437026590108,-0.0526937395334243,0.0177099779248237,-0.0216757021844387
4.792934814453119,0.078350793664623,-0.0481353776156902,-0.1055178915262222,-0.0410000644624233,0.0129812695086002,-0.0141059327870607
4.802898437499991,0.0919490195747464,-0.0360413274571299,-0.1087719248861074,-0.0310747660696506,0.0082904268056154,-0.008881046436727
4.812863769531248,0.0945326611260883,-0.0331169644430279,-0.1139361757814884,-0.0173275284469127,0.0066632353700697,-0.0021637547761201
4.822827880859364,0.0865539555981755,-0.0427381947472691,-0.0986930139422416,-0.0086099570617079,0.003706342773512,0.0072419857606291
4.8327927246093765,0.0695906919680535,-0.0817243434846401,-0.1003138931423425,0.0030088825151324,-0.0021044083405286,0.0163835529237985
4.842756591796871,0.0570495008301921,-0.1024082350730895,-0.0867746126115322,0.0053266212344169,-0.0067246938124299,0.0198403783142566
4.852721679687491,0.050553672537487,-0.0872919144839048,-0.085419106349349,0.0099637173116207,-0.0148491999134421,0.0229948926717042
4.862685546874999,0.0536467431819997,-0.0657318245828151,-0.0564379265367984,0.011204794049263,-0.0164359435439109,0.0173119977116584
4.87265063476562,0.0669955426420085,-0.0573388208992779,0.0187672443121671,0.0122189261019229,-0.0077734785154461,0.0138674639165401
4.882614990234373,0.0627745091471821,-0.0456581738471984,0.0720323860317468,0.0162254907190799,-0.0012603104114532,0.0112924138084054
4.892578857421867,0.0559971787656657,-0.0138388479992747,0.0690811350107192,0.018357615917921,0.0022169789299368,0.0076380241662263
4.902543701171865,0.0535598320835269,0.0059556935340166,0.036813188612461,0.0177750438451766,-0.0014748566318303,-0.0004687160253524
4.912507812499996,0.0486767544833943,-0.0185682146087288,0.0342132352471351,0.0127272875979542,-7.21698161214e-05,-0.005165999289602
4.922472900390616,0.040824725808762,-0.0414284273229539,0.0785480515360832,0.0086184088140726,-0.0007268828339874,-0.0090997405350208
4.932436523437488,0.0326263496481813,-0.0602170066840946,0.0748012662231922,0.0020404011011123,-0.0055301608517766,-0.0139733254909515
4.942401611328123,0.017486958710663,-0.0533127802535891,0.0897907455623149,-0.0037402929738163,0.0012257756898179,-0.0212304610759019
4.952365722656239,0.0095387761851772,-0.0445430522121489,0.1196943009167909,-0.0100493216887116,0.0142592852935194,-0.0233458094298839
4.962330810546874,0.004776822480373,-0.0391333021230995,0.0946907925635576,-0.0177151709794998,0.0239709708839654,-0.0233048126101493
4.972294677734368,0.0020396526014432,-0.0081279230065643,0.0199596689671277,-0.0219282917678356,0.0181026943027973,-0.0207468494772911
4.982259765624988,0.0378125383807346,0.0148803198762238,-0.0635106414020061,-0.0216204151511192,0.0131281623616814,-0.0337119027972221
4.992223876953119,-0.0134883175285533,-0.0308766381703317,-0.1030640686333179,-0.0272937472909688,0.0056366901844739,-0.0348543971776962
