time,ax,ay,az,gx,gy,gz
0.0,-0.1169456963283941,-0.1084462000630795,0.1268535250216722,0.0709017962217331,0.0291616562753915,0.0604824721813201
0.009965087890625668,-0.1146411091804504,-0.0751383892230689,0.0864595553129911,0.0647096782922744,0.0273064989596605,0.0609035156667232
0.01992919921874936,-0.0740177146300673,0.008334697625041,0.0602191986411809,0.0579287782311439,0.0290839057415723,0.0558384209871292
0.029894042968750867,-0.0524357782233506,0.0099929862260818,0.0520645337581634,0.0509864538908004,0.0256870426237583,0.0490092784166336
0.03985815429687456,-0.0696496556136757,-0.0412023634821176,0.0940881504952907,0.047976404428482,0.0319902561604976,0.0384404323995113
0.04982324218750023,-0.1163729014091193,-0.0724069184325635,0.0845218652486801,0.0496129170060157,0.0287707578390836,0.0279584974050521
0.05978710937499976,-0.1199810454363003,-0.0398358974345028,0.0470861608237028,0.0503547079861164,0.0206272602081298,0.0265177190303802
0.06975219726562543,-0.0946994873266667,0.060351592849195,0.0126589905649423,0.0541832707822322,0.0111093893647193,0.032147642225027
0.07971606445312496,-0.0357397872272878,0.163603877530992,-0.0301227510631084,0.0504312478005886,0.0016412338009104,0.0275843050330877
0.08968090820312469,-0.0116242041571065,0.1903251495875418,-0.0109673842161893,0.0421623960137367,-0.001859757816419,0.0207975059747695
0.09964526367187432,-0.0014129355378448,0.1402431679487228,0.0870148511081933,0.0358825400471687,0.0036960889119654,0.0150944329798221
0.10961035156249999,-0.0267089970968663,0.0793760267928242,0.1558721142351627,0.029080556705594,0.0068005360662937,0.0103161893784999
0.11957397460937536,-0.0541475505772978,0.0044262920096516,0.145248428890109,0.0210575796663761,0.003596655325964,0.0078972596675157
0.12953906249999925,-0.049917036868073,-0.0644999447003007,0.1773211449772119,0.0068128639832139,0.0041548539884388,0.0025443057529628
0.13950317382812472,-0.0526486537890508,-0.0823414524696767,0.2263794826567172,-0.0080038774758577,0.0088192392140626,-0.0015109675005078
0.14946704101562425,-0.0495165297757834,-0.0547837295889854,0.27534955753088,-0.0256917960941791,0.0187919773161411,0.0009492603130638
0.15943188476562575,-0.0329453342031687,-0.0439567767567932,0.2853957352489233,-0.044304609298706,0.0324261859059333,-0.0030323830433189
0.16939599609374945,-0.0330127368835732,-0.0589073853902518,0.2863309702724218,-0.0673377513885498,0.0354826934635639,-0.0104554109275341
0.17936132812499928,-0.0500839544001966,-0.0435083023369312,0.2866483656585216,-0.0861364752054214,0.0475660189986228,-0.0090171750634908
0.18932495117187464,-0.0456270115239545,-0.0404914387337863,0.2468628832370042,-0.0928220748901367,0.0538888983428478,-0.0035236054100096
0.1992900390625003,-0.0221535257495939,-0.0339544381804764,0.1476052211493253,-0.0960817858576774,0.0466863773763179,0.00216517271474
0.20925415039062578,0.002015321877785,-0.028178338997066,0.02252922719419,-0.0986677110195159,0.0332062542438507,0.0030536032281816
0.2192189941406255,-0.0084011869899928,-0.048120764568448,-0.0304109203547239,-0.094735287129879,0.0238047633320093,0.0144162457436323
0.2291831054687492,0.0225592570062726,-0.0763658851914107,-0.0467377857774496,-0.0875207856297493,0.0185924246907234,0.0177912712097167
0.23914819335937487,-5.4068274796e-05,-0.0597694090470671,-0.0515875638961791,-0.0831196904182434,0.0101325856521725,0.0200474001467227
0.24911230468750034,-0.0250311635451391,-0.0524567479461431,-0.0608493132382631,-0.0786106958985328,0.0061658071354031,0.0264874547719955
0.25907714843750007,-0.0406458255778998,-0.0269397371128201,-0.0656558367371559,-0.0753175839781761,0.007456584367901,0.0242148339748382
0.26904125976562554,-0.0409682624652981,-0.0395766619764268,-0.0611532646209001,-0.0631235018372535,0.0033595776185393,0.0316850021481514
0.27900585937499933,-0.0086677289716899,-0.077644819086045,-0.1149310320377349,-0.0482658594846725,-0.0022549193818122,0.0351433083415031
0.2889699707031248,0.0011829261742532,-0.0979632383629679,-0.1737409484028816,-0.0297244004905223,-0.0082459663972258,0.038420595228672
0.29893505859375047,-0.0102873295301571,-0.1096466618940234,-0.1578349387407302,-0.0095152109861373,-0.0153928333893418,0.0350920483469963
0.30889916992187594,-0.0404269951954483,-0.0842111918643117,-0.1536842488020658,0.0045007402077317,-0.0208496507257223,0.0284658353775739
0.31886425781249983,-0.0611440584011375,-0.0560375290423631,-0.1270505088984966,0.0093846786767244,-0.0222442634403705,0.0254168659448623
0.32882812499999936,-0.0464312040463089,-0.0211154148735105,-0.0549924039036035,0.0092933326959609,-0.0174324642866849,0.020180556923151
0.33879223632812483,-0.0133081021234393,-0.0192583888299763,0.0038607670813798,0.0113167827948927,-0.007672400213778,0.0191203039139509
0.3487573242187505,0.0037707872429862,-0.0302798413209617,0.0244745160430669,0.017909437417984,-0.0037969674449414,0.0174606218934059
0.35872119140625003,0.0289677358090877,-0.074941551476717,-0.0304617737591266,0.0279360115528106,-0.0135566107928752,0.0196788683533668
0.3686862792968757,0.0592552124472334,-0.1204312368892133,-0.07799450930655,0.034738790243864,-0.0155595745891332,0.0141767766326665
0.3786503906249994,0.0478175803707912,-0.1080820429258048,-0.0189075295656919,0.0367315933108329,-0.0204739496111869,0.0107404012233018
0.38861547851562506,0.0220106466801837,-0.1265580492064356,0.0265372937917709,0.0345043912529945,-0.0183527413755655,0.0099039021879434
0.3985795898437505,0.007023980352655,-0.1312307171925902,0.0311292977571487,0.033927347511053,-0.0128637971356511,0.0084149483591318
0.4085441894531243,0.0296735459908843,-0.0851568021513521,-0.0011275427252054,0.0246217288076877,-0.0180564280599355,-0.0014411439187824
0.4185083007812498,-0.0069226023374125,-0.0217465523838996,-0.0323532865941524,0.0197391547262668,-0.0313595794141292,-0.0022921310737729
0.42847338867187545,-0.0219599394062533,-0.0251817875295877,0.0500876807272434,0.0175857245922088,-0.0281086601316928,-0.0041547454893589
0.4384375000000009,-0.0325559330267831,-0.0365244347989559,0.1767214255183935,0.0061659421771764,-0.0138033870607614,-0.0082398690283298
0.4484020996093747,-0.0434876614077016,-0.0526541702143847,0.1816781711429357,-0.0070372116751968,0.0068004243075847,-0.0155302733182907
0.45836645507812435,-0.0224518145764246,-0.0615979396484792,0.1089051958769559,-0.0129158534109592,0.0141580644994974,-0.0200401488691568
0.46833154296875,-0.0193872759066522,-0.0811976892620325,0.0200818340420722,-0.0217578150331974,0.0116922436282038,-0.0266527775675058
0.47829541015624955,-0.0367765098638832,-0.0900283537104725,0.033818098449707,-0.0202915370464324,0.0126332659274339,-0.0218728259205818
0.4882602539062493,-0.049269313549064,-0.0840804050914943,0.0690431410878896,-0.0155191533267498,0.0188394952565431,-0.0162040218710899
0.49822436523437474,-0.0375722998840734,-0.0598981499932706,0.0335544790774583,-0.0109767019748687,0.0209274981170892,-0.0093263983726501
0.5081892089843745,0.023541582574509,-0.0216346164420247,-0.0562923805862665,-0.009274142794311,0.0062180608510971,-0.001027189195156
0.5181533203124999,0.0866321719335392,-0.0142598498903214,-0.0996785178482532,-0.0124488566070795,-0.0037206055130809,-0.0040593557059764
0.5281171874999995,0.0884519347066059,-0.0355219797581434,-0.063107905820012,-0.0128904078155756,-0.004998923279345,-0.0048710871487855
0.5380822753906251,0.0524237589919939,-0.0841167915791273,0.0079296239554882,-0.020733255892992,0.004108402878046,-0.0066134561784565
0.5480463867187506,-0.0049175461253151,-0.1245196752466261,0.0579021538704633,-0.0208826586604118,0.0109306219965219,-0.006053393241018
0.5580114746093745,-0.0423902946250513,-0.1268786594629287,0.0643114363908767,-0.0268452856689691,0.0205136537551879,-0.002071629744023
0.5679753417968758,-0.0620492636125534,-0.098916009043157,0.0198217218011617,-0.0227828994393348,0.0173681937158107,0.0048456648364663
0.5779401855468755,-0.0259619781218469,-0.0858653888121247,-0.0254793091714382,-0.0134750977158546,0.0133901638910174,0.0136552806943655
0.5879042968749992,0.0123407914612442,-0.0814982796438038,-0.0584223783522844,-0.0087389312684535,0.0074486518278717,0.017578650265932
0.5978693847656249,0.0075127137176692,-0.1038049501284957,-0.0837041191250085,0.0050634983927011,0.0004734375979751,0.0247757341712713
0.6078332519531244,0.0252367325872182,-0.1386158590078353,-0.0765536628484725,0.0168184246867895,-0.0049186646938323,0.0192443504929542
0.6177983398437501,0.0130281892035156,-0.1319591775976121,-0.0770177732288837,0.0246166493743658,-0.0053592366166412,0.0141048245131969
0.6277624511718756,-0.0073080579910427,-0.0888750920221209,-0.0473334135830402,0.0305456463247537,-0.0056884032674133,0.0076983235776424
0.6377272949218753,-0.0177842246241867,-0.0627137919358909,-0.0120066641360521,0.0290210284292697,-0.0003981844056397,0.0077031352557241
0.6476911621093748,-0.0028729981530457,-0.0150491005718708,0.0114887777417898,0.0287006497383117,0.003766200505197,0.0058871256187558
0.6576562500000005,-0.0031698622077703,0.0040595045238733,-0.0360071329265832,0.0323464125394821,0.004215826280415,0.006666109431535
0.6676203613281242,0.0323612872375175,-0.0210141464561223,-0.1074964981228113,0.0381265357136726,-0.0049052340909838,0.0076562729664146
0.6775854492187499,0.0456950352588668,-0.0238989081121981,-0.1085538982212543,0.0458319038152694,-0.0118347648531198,0.0008678459562361
0.6875495605468753,0.0425202411476522,-0.0324552856639027,-0.0567646742731332,0.0544397681951522,-0.0141519820317626,0.0030095600523054
0.6975141601562509,0.0373155851766467,-0.033981326187402,-0.0359141939461231,0.0609734877943992,-0.0156449787318706,0.0005406038835644
0.7074782714843746,0.0193235264880582,-0.0528004468172788,-0.0061205287069082,0.0609087720513343,-0.0176897533237934,0.0004838784225285
0.7174423828125001,-0.006416077587381,-0.0629763883948326,0.0170925890982151,0.0581253170967102,-0.0195781737565994,-0.0040701869875192
0.7274074707031257,-0.0166775420239195,-0.0758702106289565,0.041830139991641,0.0577330365777015,-0.0182204935699701,-0.0010275258682668
0.7373713378906253,-0.0079100059395655,-0.0931017698064446,0.0723000970572233,0.0550514459609985,-0.0187620539218187,-0.0049699577502906
0.7473364257812509,-0.0111272509530186,-0.0733583739385008,0.0710831224828958,0.0516103729605674,-0.0177884027361869,-0.0075199347920715
0.7573005371093746,-0.0172945414111018,-0.0540795268423855,0.0825479348272085,0.0383483618497848,-0.0121600776910781,-0.0066117965616285
0.7672653808593743,-0.0166516769303008,-0.0625168080590665,0.1179278757661581,0.0328601226210594,-0.0027543252799659,-0.0081729423254728
0.7772292480468757,-0.0225447535568848,-0.0772280549786984,0.1166869357943534,0.0301249511539936,-0.0022120214998722,-0.0084842555224895
0.7871943359374995,-0.0273347643123939,-0.0716707131125032,0.0522217701464891,0.0237536057829856,-0.0063710799440741,-0.0093591036275029
0.797158447265625,-0.0252670546602457,-0.0595421761624515,0.0387462025016546,0.0184355154633522,-0.0059768497012555,-0.0096551608294248
0.8071232910156247,-0.0035513723386451,-0.0609846300557255,0.0954997708588838,0.0142221273854374,0.0084582827985286,-0.0067208902910351
0.8170871582031243,0.000895195274055,-0.0872014597214758,0.0874497353941202,0.0142119461670517,0.0126680685207247,-0.0061085210181772
0.8270524902343759,-0.0026718495577573,-0.0774075031988322,0.0338642756789922,0.0185150802135467,0.009300235658884,-0.0034496211446821
0.8370163574218754,0.0144616195401176,0.0015567279227077,-0.0098725747168064,0.0191100109368562,0.0013260442065075,0.006186178419739
0.8469814453124993,0.0432039856281131,0.029516455733031,-0.0493681342810392,0.0156782604753971,-0.0065646357834339,0.0084378812462091
0.8569453125000006,0.0658857730355113,-0.0149137837544083,-0.003690671211481,0.0179519355297088,0.0007221361156553,0.0094774859026074
0.8669094238281243,0.0525404441742226,-0.0994539153121411,0.0336065015256404,0.0277105569839477,0.00405028834939,0.0084644192829728
0.8768742675781258,-0.0013265358960255,-0.0936646643862128,-0.0041997897773981,0.0368952937424182,-0.0039076167158782,0.0111470744013786
0.8868383789062495,-0.0120597094975411,0.020161475149542,-0.0464794271022081,0.0325532741844654,-0.0086049009114503,0.0209528319537639
0.8968032226562492,0.0262208847863599,0.0684657795913517,-0.0277490076690912,0.0237058922648429,-0.0072747329249978,0.0249766632914543
0.9067673339843747,0.026407018475607,0.0141080203294754,0.0429968456834554,0.0187691897153854,-0.0045561781153082,0.0222333408892154
0.9167324218750004,-0.0207759903186932,-0.0659663639910519,0.0693231270730495,0.020125925540924,0.0013007160741835,0.022218469530344
0.9266965332031258,-0.0584647927219048,-0.1127232928603887,0.0516033459872007,0.0243520960211753,-0.0005395282059907,0.021717794239521
0.9366613769531256,-0.0510939716929569,-0.133481272598356,0.0267623347193002,0.0286856517195701,-0.0031005223281681,0.0298260748386383
0.9466252441406269,-0.0171023067746311,-0.0748372143194079,-0.0048223055899143,0.0296417288482189,-0.0115661788731813,0.0274180434644222
0.9565903320312508,0.0193021549064666,-0.0030066344700753,0.0022737901508808,0.0220900699496269,-0.0134844528511166,0.016263660043478
0.9665541992187503,-0.0105107995551079,0.0261148305959999,0.0607844313085079,0.0192234441637992,-0.0067932615056633,0.0068248845636844
0.9765195312500001,-0.065257667732425,-0.0193600956387817,0.1095025772482156,0.0070637017488479,0.0103174215182662,-0.0038199536502361
0.9864833984374997,-0.1046356287989765,0.0114151279836893,0.1734030947506427,-0.0137608861550688,0.0248412359505891,-0.0114762745797634
0.9964482421874994,-0.0826425543081015,0.0769094905488192,0.1436637900471687,-0.0240774266421794,0.0284171886742115,-0.0187683589756488
1.0064123535156266,-0.0540419713109731,0.1059144896283745,0.0655149669617414,-0.0205442085862159,0.0222011059522628,-0.0223865285515785
1.0163762207031244,-0.0116079106094315,0.0569957065500318,0.0168956052213907,-0.0087849982082843,0.0183756295591592,-0.0149639826267957
1.02634130859375,0.0298404635230079,-0.0374222604215145,-0.0294119724452495,0.0053521264344453,0.0199769884347915,-0.0150814279913902
1.0363051757812496,0.0512962527994066,-0.0985522902972996,-0.0895253726243972,0.013873397372663,0.0181574746966362,-0.0136556737124919
1.0462705078124994,0.0599441810920834,-0.1355015263795852,-0.1230652386546134,0.0185709446668624,0.0066084102727472,-0.0140309128910303
1.0562346191406267,0.0339374139804393,-0.1574419939003884,-0.0848199714124202,0.0234189480543136,-0.0023340785410255,-0.0077191391028463
1.0661992187500005,-0.0052902518952265,-0.2104837021276354,-0.0074584993124008,0.0292025338858366,0.0029309908859431,-0.003757155034691
1.076163330078126,-0.0507394226342439,-0.2387013502217829,0.0743435855835676,0.0263075940310955,0.0098951011896133,0.0045470427721738
1.0861284179687498,-0.0396180169001221,-0.1973024412542581,0.1356628544211387,0.0261430107057094,0.0129633294418454,0.0093106385320425
1.0960925292968735,-0.0008966200461611,-0.0926744843050837,0.1072398930132389,0.0187808014452457,0.0114533985033631,0.0075451703742146
1.1060571289062509,0.0367276292208582,-0.0114706575632095,0.0424719450265169,0.0125356884673237,0.0061350651085376,0.0076258638873696
1.1160212402343745,0.0582414322948083,0.0134387427657842,0.0345861602127552,0.0092767644673585,0.0122573813423514,0.0125467181205749
1.1259863281250002,0.0741349112689495,-0.0058183308899402,0.0240443079322576,0.0095207095146179,0.012346064671874,0.0138420788571238
1.1359504394531257,0.0401326153587549,-0.0664639382496476,-0.0213093300104141,0.0220009163022041,0.0075142071582376,0.0163054931908845
1.1459155273437496,-0.0023382336892187,-0.097326255633682,-0.0395814842820167,0.027051068842411,-0.0001125535927712,0.0240129474550485
1.1558793945312509,-0.0295144099064171,-0.0630183278404176,-0.0249438871204853,0.0271572433412075,0.0023265797644853,0.0297423992305994
1.1658432617187504,-0.0245918588124215,-0.0629763883948326,0.0096031101256608,0.0260283276438713,0.0036126202903687,0.0303016640245914
1.1758083496093743,-0.0495544871659949,-0.0823028740249574,0.0404272874563932,0.0242708530277013,0.0067046754993498,0.0236939415335655
1.1857722167968756,-0.0776614048946648,-0.061124476917833,0.0558522356033325,0.0227954629808664,0.004813564941287,0.0265459213405847
1.1957373046874995,-0.0430802496505901,-0.0133199386917054,0.0382937825590372,0.0144292060285806,0.0039870874024927,0.0252396613359451
1.2057014160156267,-0.0220030844282358,-0.0083089786618947,0.0415513230502605,0.0045994790270924,0.0084611978381872,0.0148546649143099
1.2156665039062506,-0.0460144034063443,-0.0427696127988398,0.108173958992958,0.0019171750172972,0.0122223682701587,0.0093247136101126
1.2256303710937502,-0.0746013962695375,-0.0749541186973452,0.1025309846699237,0.0014551160857081,0.0150772761553525,0.0056042778305709
1.23559521484375,-0.0547193591158837,-0.0791112383767962,0.0680517919629812,-0.0021953568793833,0.0132973548024892,0.002655106363818
1.2455593261718736,-0.0221234228722751,-0.0890602393306791,0.045164837372303,-0.0075152874924242,0.012470444664359,-0.002405964769423
1.2555244140624993,0.003125036685355,-0.0546403755955398,0.0524713609933853,-0.0152210490778088,0.0110427774488925,-0.0078280847519636
1.2654882812500006,0.0024014716511592,-0.0174115919195115,0.0697480744868516,-0.0159294493496418,0.0068259271793067,-0.0071476469747722
1.2754533691406245,0.0108936979254707,-0.0021871347807347,0.0277946003764867,-0.0140132196247577,-0.0018253587186336,-0.0108074620366096
1.28541748046875,0.0169574914764612,-0.0101638127483427,0.0095113401889801,-0.016014851629734,-0.0059644440189003,-0.0140352137386798
1.2953815917968736,-0.0261995862700045,0.0254186650253832,0.0185983174860477,-0.011148945428431,-0.0061494912952184,-0.0169712472707033
1.3053464355468734,-0.0331712884461507,0.0316457228466868,-0.0006318681627511,-0.0120107438415288,-0.0117767509073019,-0.01394909247756
1.3153103027343747,0.015189897282049,0.0204163266934454,0.0129787240386009,-0.0148214325308799,-0.0183723103255033,-0.0127020655199885
1.3252751464843744,0.0334495208656415,-0.0184974874600768,0.0650584553658962,-0.0156526044011116,-0.0175848137587308,-0.0136283142492175
1.3352392578124999,0.042373233892396,-0.1097273259148001,0.1307727442920208,-0.0159935243427753,-0.0105321425944566,-0.0139938835054636
1.3452045898437497,0.0229591430440545,-0.158603877286613,0.1534141996890306,-0.0215480774641037,-0.0127327125519514,-0.0152839198708534
1.3551684570312492,0.0093779230676591,-0.1394743755333125,0.1129144315183162,-0.0338140688836574,-0.0156947821378707,-0.0132423881441354
1.3651333007812507,0.0005121507732197,-0.1040843515917658,0.1250175417661666,-0.0498231276869773,-0.0127815511077642,-0.0130058992654085
1.3750974121093744,-0.0111702863771468,-0.0744207424730062,0.1652075133353471,-0.0653966143727302,-0.0023962284903973,-0.0154002085328102
1.3850625,-0.0127025739783421,-0.0806137518942356,0.1590676954060793,-0.0790258720517158,0.0081437639892101,-0.0155722480267286
1.3950261230468737,-0.0181885676413774,-0.0377248966298997,0.1112947213619947,-0.0828753262758255,0.0097667872905731,-0.0140298306941986
1.4049914550781253,0.0036897578960284,-0.0134318746335804,0.0217144036799669,-0.0770669654011726,0.0098067354410886,-0.0129397995769977
1.4149555664062508,0.018399506978318,0.0241381236955523,-0.0653933864086866,-0.0707398876547813,0.0037149819545447,-0.0118709150701761
1.4249196777343744,0.0416834249973297,0.0690472327411174,-0.1192418809741735,-0.0618806183338165,-0.0025301307905465,-0.0090911071747541
1.43488427734375,0.0611862170424312,0.0329087285198271,-0.1472726281940937,-0.0456249304115772,-0.005695937667042,-0.0067305183038115
1.4448483886718737,0.0504700676409527,-0.015080372492969,-0.1394599086165428,-0.0310632996261119,-0.0122563689947128,-0.002264130860567
1.4548134765624994,0.0329406945606693,-0.0809622730709612,-0.1291337449133396,-0.0174533687531948,-0.0164453461766242,0.0045049055479466
1.4647773437500007,0.01643997040838,-0.1208754735253751,-0.0737935504853725,-0.0081679923459887,-0.0178895778954029,0.0122011750936508
1.4747421875000004,-0.0074935340931639,-0.1383098617985844,-0.0531646039545536,0.0021086139604449,-0.0177154075354337,0.0173517279326915
1.4847062988281259,-0.0118133335210382,-0.1430519417591393,-0.0479307949542999,0.0057222573086619,-0.0223714113235473,0.0243846047669649
1.4946713867187498,0.0041608460064977,-0.1068725210055708,-0.0243108499139547,0.0091239614412188,-0.0224453043192625,0.0299014933407306
1.5046354980468735,0.0306166720598936,-0.1039841060876846,-0.0203320094108581,0.0096099888905882,-0.0224508959800004,0.0375008210539817
1.5146003417968732,0.0309167875176295,-0.1372673670083284,-0.0114461076438426,0.0117607833817601,-0.0219647176563739,0.0417968221008777
1.5245642089843745,0.0141350179342553,-0.1782237929053604,0.0487888730883598,0.0086845653131604,-0.0169451907277107,0.0427944399416446
1.5345292968750002,-0.0027272695394232,-0.1783162934944033,0.0530459460109472,0.0098544545471668,-0.0146261239424347,0.045693852007389
1.5444934082031256,-0.0162483568264171,-0.1422488086827099,0.0208703540712595,0.0172114372253417,-0.0138173224404454,0.0458856001496315
1.5544572753906252,-0.0119780225634574,-0.0614395342163741,-0.0627022476285696,0.0193252377212047,-0.0185946244746446,0.0451134406030178
1.5644223632812508,0.0103425668487325,0.0257457050226628,-0.1163257012665271,0.0167728662490844,-0.029386818408966,0.0426532104611396
1.5743864746093745,0.0229298073517158,0.0804294813685119,-0.0937678324997425,0.0225266627967357,-0.0289396606385707,0.0378823950886726
1.5843515625000002,0.0024171441443264,0.0401714129991829,-0.0359182855993509,0.0177686605602502,-0.0169162880629301,0.0243545994162559
1.5943151855468756,-0.0308839812265709,-0.0491243886530399,0.0401256741613149,0.0024054162204265,-0.0032018064521253,0.017564071342349
1.6042802734374995,-0.0384050243811681,-0.0902925576046109,0.0972381389588117,0.0039843143895268,0.0034058727324008,0.0095893805846571
1.6142443847656267,-0.0340314854720607,-0.0872593273885548,0.1098258178532123,0.0098746214061975,-0.0047535500489175,0.000259593129158
1.6242092285156264,-0.0492712132452055,-0.0646929830543696,0.0777829123824834,0.0143173076212406,-0.0091775935143232,-0.0026776073500514
1.6341733398437501,-0.0398944226887077,-0.037193712362647,0.0697913291066884,0.0140368463471531,0.0035103522241115,-0.004483550786972
1.6441384277343758,0.0309958441032096,-0.0350675139889121,0.0435322677344083,0.0113704903051257,0.0128207635134458,-0.0118394689634442
1.6541022949218736,0.056466531576775,-0.0039271103158593,-0.0365150824487209,0.00410764105618,-0.0003960328176617,-0.015491597354412
1.6640673828124992,0.0753374919917434,-0.0617347177706658,-0.0705114600747823,0.0047481311485171,-0.0098073780536651,-0.0177161358296871
1.6740314941406265,0.0036842780033126,-0.0732870622679591,0.0093763156324625,-0.0012209992855787,-0.0081406123936176,-0.0173386503010988
1.6839953613281242,-0.0219099993173032,-0.1453247089967131,0.0915694456726312,-0.0020274044945836,0.0012004252057522,-0.0103593040257692
1.6939602050781257,-0.0091352734182029,-0.139352210458368,0.1579740549504756,0.0019294833764433,0.0088940160349011,-0.0084926635026931
1.7039243164062494,0.0125568088321015,-0.0695269790820777,0.1036263786911964,-0.0016900184564292,0.0065794633701443,-0.0042574382387101
1.7138896484374992,0.0722885162172839,0.0357018663696944,0.0069131403893232,-0.01337699778378,0.0011295850854367,-0.0052087507210671
1.7238532714843746,0.1051167633794248,0.0255694716729223,-0.0140437229216098,-0.0225345436483621,0.0006166603416204,-0.0054377824999392
1.7338183593750003,0.0832986070640385,-0.0958513607755303,0.0253822785377502,-0.0250190310180187,0.0034610293805599,-0.0102741364389657
1.7437824707031258,0.0306460442848503,-0.1805652414649725,0.062080316337943,-0.023489311337471,0.0108821941539645,-0.0043115834705531
1.7537473144531255,-0.0140056194009259,-0.1545757908143103,0.0393166958659887,-0.0207887664437294,0.0114917075261473,0.0058353161439299
1.7637111816406268,-0.0003546221239492,-0.1127761920914053,0.002661328163743,-0.0226575061678886,0.0135953389108181,0.0159769002348184
1.7736762695312507,0.0234929211271926,-0.0924812998205423,0.0074988313227891,-0.0251560024917125,0.0119875138625502,0.0213553123176097
1.7836406250000003,0.0205442273894324,-0.0804050775796175,0.0361129313886165,-0.0227839238941669,0.016446977853775,0.0216937996447086
1.7936042480468757,0.0058671019351109,-0.0184575938411056,0.0174064773529767,-0.0224580094218254,0.0182632133364677,0.0320163704454898
1.8035693359374996,0.0418185226190835,0.0059571548387408,-0.0309311448365449,-0.0243011824786663,0.0165976732969284,0.0393661633133888
1.8135334472656268,0.0805925629757344,-0.0270937586307525,-0.0222439805120229,-0.0218142028898,0.0164391547441482,0.0425389148294925
1.8234982910156265,0.0605804697016254,-0.0610939356490969,0.0117839612960815,-0.0150950476527214,0.0172642022371292,0.0385034270584583
1.8334624023437502,0.0343186683829873,-0.1056819960467517,0.0205184718936681,-0.0039880238473415,0.0162507463246583,0.0415262654423713
1.84342724609375,0.0190185156594961,-0.1190308685719966,0.0017664251506328,-0.0014228671789169,0.0131668066605925,0.0474225059151649
1.8533913574218737,0.0396441011894494,-0.1280773677282035,-0.0173474406421184,0.0063911704346537,0.0140856355428695,0.0472665466368198
1.8633564453124993,0.0268937060140073,-0.0868590760245919,-0.0223673146307468,0.0153942527249455,0.0120187569409608,0.0438398569822311
1.8733205566406266,0.0280817832874134,-0.0206866680674254,-0.0430295789092779,0.0170020125806331,0.0075873853638768,0.048771146684885
1.8832851562500004,0.0456941584760323,0.0221798292346298,-0.0563280364215373,0.0151053080335259,-0.0031107990071177,0.0512942261993885
1.8932492675781258,0.0708497521184384,0.0014360241524875,-0.0545879147559404,0.0129196066409349,-0.0041610226035118,0.0524804294109344
1.9032133789062495,0.0607518076805397,-0.0467429003439843,0.0350485170274972,0.0040323724970221,0.0083273388445377,0.0460776574909687
1.9131784667968734,0.0094696199391037,-0.1060987601540982,0.0991851813733577,-0.0030243042856454,0.0186876468360424,0.0443509630858898
1.9231420898437506,-0.0168176446143537,-0.1103185698062181,0.1165542493253946,-0.0109165823087096,0.0175323672592639,0.0490588992834091
1.9331074218750004,-0.0077483491044491,-0.0428581678651273,0.0697428137898445,-0.0200836807489395,0.0103303957730531,0.0487800315022468
1.9430715332031259,0.0054836921080946,-0.0172936646282672,0.0289420168459415,-0.0295240543782711,0.0092424945905804,0.0464170090854167
1.9530363769531256,0.0159497757386416,-0.0348944955095648,0.0675870970606803,-0.0347880609333515,0.0184984467923641,0.0411672107875347
1.963000244140627,0.0160754479449242,-0.0575768674388527,0.0743728116780519,-0.0354400053620338,0.0268013849854469,0.0444008186459541
1.9729653320312508,0.0252181374846026,-0.0471546960152685,0.0373328285723924,-0.0262732319533824,0.0287812650203704,0.0478609912097454
1.9829294433593745,0.063475935414806,-0.0398673154860734,-0.052464346730709,-0.0198432952165603,0.0193691197782754,0.0538709498941898
1.9928942871093742,0.0911002207256853,-0.0564021245710551,-0.0888192701816558,-0.0101192332804203,0.0131951477378606,0.0577484406530857
2.0028581542968737,0.0750907141564413,-0.0640063159644603,-0.0568903464794158,-0.0041412357240915,0.0121376067399978,0.0571034215390682
2.012822509765627,0.0715994379745796,-0.0875691239900886,-0.0043032501518726,0.0047862567007541,0.016934098675847,0.0608334131538867
2.0227873535156267,0.0717863023161888,-0.0845642430856823,0.0399742829918861,0.0032078009098768,0.0192414615303277,0.0670526996254921
2.0327514648437504,0.0794684543166309,-0.0741182523950934,0.0644756870418787,0.0065362779423594,0.0220623202621936,0.0657875388860702
2.04271630859375,0.0864131954206153,-0.0742171827249228,0.057333998593688,0.0098524466156959,0.0224748440086841,0.070069633424282
2.0526804199218738,0.0773745507773011,-0.0577625992693007,0.0211234520494937,0.0143517348915338,0.0227611940354108,0.0746879577636718
2.0626452636718735,0.0855647253651171,-0.0478936778143048,-0.0070668696463108,0.0181773658841848,0.0199678037315607,0.0814603716135025
2.0726093750000008,0.0729133335847407,-0.0380173037052154,0.0073994626015424,0.0163767207413911,0.0214269272983074,0.0865403264760971
2.0825744628906264,0.0569165038339793,-0.0103941143728792,0.0056692778080701,0.0202329792082309,0.0178819932043552,0.094356968998909
2.092538330078124,0.0785261319652199,-0.0105135029688477,-0.0617740268677473,0.0218717902898788,0.0022298800759017,0.102121964097023
2.10250341796875,0.0695649730049073,-0.0041360768914222,-0.0970470003008842,0.0328618548810482,-0.0087047927081584,0.0987858176231384
2.1124675292968735,0.0395112685900181,0.0080915365189313,-0.0848737474262714,0.0404691398143768,-0.0166278798133134,0.0958583727478981
2.1224311523437507,0.0133855878064408,0.0468649192884564,-0.0412029480040073,0.0262997932732105,-0.0220263730734586,0.0846443399786949
2.1323962402343746,-0.0484116007411852,0.1197843172878026,0.0355868616878986,-0.0035620988346636,-0.031122300773859,0.0675626397132873
2.1423603515625,-0.0900842851487919,0.1683839514143764,0.208891756761074,-0.043773703277111,-0.0035529909655451,0.0568924210965633
2.1523254394531257,-0.0720356739673763,0.1238753859937191,0.3659685706108808,-0.0648326501250267,0.0202932208776474,0.0528566688299179
2.1622893066406252,-0.0158600881611928,0.0494638497404754,0.2973784339874982,-0.0890287980437278,0.0345757529139518,0.0510236136615276
2.172254394531251,0.0335720147341489,-0.0205702020809054,0.1913508393734693,-0.1032195538282394,0.028167737647891,0.0432072468101978
2.1822185058593746,0.0527877699987962,-0.0786161483362317,0.1632394281327724,-0.1194744259119033,0.0276252515614032,0.0454701334238052
2.1921833496093743,0.0539294143145903,-0.1156656299225985,0.177391872125864,-0.1182495355606079,0.0337550975382328,0.0467709898948669
2.2021474609375,0.0355695086942985,-0.1498443783782422,0.1182055236637592,-0.1195060089230537,0.036768727004528,0.053444605320692
2.2121113281249993,0.0191615773919969,-0.1077398053593933,0.0390694431066513,-0.1291915327310562,0.0309137068688869,0.0589992925524711
2.222076171875001,-0.0070705229081213,-0.0385661697596311,0.0273100317299366,-0.1253973245620727,0.0265631675720214,0.0675355270504951
2.2320402832031245,-0.0354947264250367,0.0228757025443017,0.047014849153161,-0.1150451153516769,0.0276129655539989,0.0751621350646019
2.2420056152343744,-0.0772642588032409,0.0427661056675016,0.0263765502721071,-0.1014973446726799,0.0351915210485458,0.0871575474739074
2.2519692382812497,-0.0648231853052973,0.0496017969064414,-0.0668681351363658,-0.0917389541864395,0.0338156186044216,0.1000307872891426
2.2619343261718736,-0.0257537056660279,0.0241533212646842,-0.1298000998675823,-0.0749586522579193,0.0239190459251403,0.1175767630338668
2.271898437500001,0.0068341203363612,-0.025093524724245,-0.2045890911310911,-0.0570508912205696,0.0051914984360337,0.12920843064785
2.2818632812500006,0.0159256276780739,-0.1032198437169194,-0.2128606603920459,-0.0356428027153015,-0.0082196481525897,0.145706444978714
2.2918271484375,-0.0247257143251597,-0.1684130313783884,-0.1248299102395772,-0.0208622589707374,-0.0110922660678625,0.1610950827598571
2.30179248046875,-0.0587321384212002,-0.2146178793229162,-0.0501788661420345,-0.0127436108887195,-0.0060556950047612,0.1744811832904815
2.3117565917968736,-0.0537919786052778,-0.2143336555540561,-0.0143944360554218,-0.0115711521357297,0.003300056559965,0.1872700005769729
2.321720214843751,-0.0029670331120491,-0.154418700556457,-0.0195423203378915,-0.0068682758137583,0.0089432951062917,0.1865775734186172
2.3316853027343747,0.0324126155659556,-0.0988065573193132,-0.0406862306535244,-0.0103437043726444,0.0028913933783769,0.1840940862894058
2.3416494140625,0.0295832738915458,-0.0898009746953844,-0.0119300917685031,-0.0170024074614048,0.0127959558740258,0.1803502142429351
2.3516179199218747,0.0089495050551369,-0.1005580771617591,0.0632540362924337,-0.023803187534213,0.0260487124323844,0.1778341084718704
2.3615817871093743,-0.0192144766230136,-0.1148997601166367,0.0890770443350076,-0.0237070471048355,0.0338318012654781,0.1733767688274383
2.371546875,-0.0657289385059848,-0.1097035066477954,0.0343412455409765,-0.0208249762654304,0.0336143523454666,0.169067695736885
2.3815109863281254,-0.1014925450002774,-0.1054535941183567,-0.0412801048934459,-0.0115395979955792,0.0292608812451362,0.1616843491792678
2.3914760742187493,-0.1103752684295177,-0.1106900334671139,-0.0877905116558075,-0.0076767806895077,0.0212364625185728,0.1618735343217849
2.4014399414062506,-0.0936128611337393,-0.1362144969545304,-0.0603057078808546,0.004048584960401,0.0265449415892362,0.1507662832736969
2.4114040527343743,-0.1271331822132691,-0.1311570674344897,-0.0635375294089317,0.0099667590111494,0.0235111154615879,0.1368162781000137
2.421368896484376,-0.1643872464610263,-0.1013394367977976,-0.1121755958497524,0.0186531916260719,0.0185232833027839,0.129429206252098
2.4313327636718736,-0.1530796705050393,-0.0414889253385365,-0.0802875886797905,0.0270322989672422,0.0199522040784358,0.1160477101802825
2.4412978515624992,-0.169139336358942,0.0551850038662552,-0.0495908371210098,0.0384689792990684,0.0238534677773714,0.0996666103601455
2.4512619628906265,-0.1908341950882226,0.0673204089485108,-0.0957382557898759,0.0511892959475517,0.0208387710154056,0.0858490616083145
2.4612268066406244,-0.1762505566036328,0.07134104276672,-0.1508212605863809,0.0625918880105018,0.0117664448916912,0.0791538804769516
2.471191162109376,-0.1355268434839323,0.0938672012209892,-0.1321118839412927,0.073867879807949,0.002694203518331,0.0678434446454048
2.4811557617187496,-0.1156757494578138,0.0972052596025168,-0.0775175394445657,0.0877309590578079,-0.0011636517010629,0.0559668093919754
2.4911198730468733,-0.1170550019217655,0.0940152313895523,-0.0276028771966695,0.0987951830029487,-0.0056852493435144,0.0410791188478469
2.5010839843750006,-0.1224385946562513,0.0787653475485742,0.0098702366292476,0.1124646514654159,-0.0088232522830367,0.0343799330294132
2.5110490722656245,-0.1154224688164889,0.0679974314272403,0.0448959573030471,0.1215059012174606,-0.0102794207632541,0.0274612847715616
2.5210126953125,-0.1124233600657433,0.0325802272178232,0.0701969872981309,0.132682129740715,-0.0089430464431643,0.0223940890282392
2.5309777832031255,-0.1147798965966328,0.0107421971581876,0.0598474427193403,0.141253650188446,-0.0090523026883602,0.0180714670568704
2.540941894531249,-0.1083826698401942,0.0275686826661229,0.0476163221776485,0.1428539305925369,-0.0165557600557804,0.0127265024930238
2.550906982421875,-0.1236131913935765,0.0433984122216701,0.0859995365858077,0.1397953480482101,-0.0155438715592026,0.0016661020927131
2.5608708496093744,-0.1593915935982018,0.1011876072369515,0.1444891349554062,0.1288026124238968,-0.0115097146481275,0.0055918674916028
2.5708359375,-0.1197132248129695,0.0654218818508088,0.1649549998790025,0.1177553683519363,-0.0041741239838302,-0.0037933066487312
2.5808000488281255,-0.1386534876044839,0.0929974326491355,0.184592597284913,0.0973595529794693,0.0050542620010674,-0.0086727505549788
2.590763671875001,-0.1317959863925352,0.0535417667038738,0.2235112337440252,0.0821562185883522,0.0136944074183702,-0.0171852782368659
2.6007287597656266,-0.1332953215721994,0.0303390241622924,0.22902269064188,0.0778392329812049,0.0198566950857639,-0.025020832195878
2.6106928710937503,-0.1296103859817609,0.029217034395039,0.1319306821554899,0.0725625604391098,0.0169673636555671,-0.0301551073789596
2.620657958984376,-0.1075808154053986,0.0184026487834751,0.0166460143744945,0.0727660283446312,0.0081922486424446,-0.0414319969713687
2.6306220703124996,-0.0820878430347889,0.0230269475832581,-0.0655441930562257,0.0765485242009162,-0.003141896566376,-0.0414991863071918
2.6405869140624993,-0.0290178220285102,0.0254708336040377,-0.1274298636049032,0.0810127854347229,-0.0155242644250392,-0.0470169894397258
2.6505510253906266,0.0073220865163952,-0.0041515667214989,-0.1337958915054798,0.082835242152214,-0.0297242067754268,-0.0498940721154212
2.6605158691406245,0.042936384200491,-0.0672536273226142,-0.1026864674925804,0.0766505897045135,-0.0368942357599735,-0.0522629544138908
2.67047998046875,0.0511772295296192,-0.1131397647067904,-0.0078688336789608,0.0688171908259391,-0.0390274114906787,-0.0515436679124832
2.6804438476562495,0.0461381759164854,-0.1622261594370007,0.0862298382103443,0.0563091300427913,-0.0338845811784267,-0.0568968951702117
2.6904086914062493,0.023473631904833,-0.2166463164106011,0.1293278061807155,0.0448596403002738,-0.0290431007742881,-0.0618893913924694
2.7003730468750007,-0.0003076777096837,-0.2311389521434903,0.1498801803439855,0.0326128266751766,-0.0291634760797023,-0.0660652220249176
2.7103381347656264,-0.0212682308150455,-0.1857658788479864,0.1347229432225227,0.0226840525865554,-0.0262764617800712,-0.0662475153803825
2.7203017578125,0.0045114130098372,-0.1756581802010536,0.1254664545774459,0.0040283445268869,-0.0201903395354747,-0.0646448284387588
2.7302668457031256,0.0091529917379841,-0.1860042176485061,0.1232154607802629,-0.0081612039357423,-0.0184279922395944,-0.0690205693244934
2.7402309570312493,-0.0018485504761338,-0.1498874868676066,0.1615378849118948,-0.0223065838217735,-0.0075598983094096,-0.0641073063015937
2.750195800781251,0.0135808911828324,-0.1021131976492703,0.1642307772576808,-0.0290317647159099,-0.0025108938571065,-0.0652865692973136
2.7601596679687503,0.0190385355342179,-0.0513487867042422,0.1234691432803869,-0.0339769907295703,-0.0013521525543183,-0.0587983056902885
2.770123779296876,0.0231267546959221,-0.0216680803202092,0.072330492195487,-0.0236592032015323,0.0001848407555371,-0.055303432047367
2.7800891113281256,0.0100361312480643,-0.0097626846015453,-0.008444587740302,-0.0151352239772677,-0.0048488001339137,-0.0455429442226886
2.790052978515625,0.0259772487562149,-0.0462764518760144,-0.0811912595212459,-0.0148018328472971,-0.0040694428607821,-0.0437208674848079
2.8000178222656267,0.0166479506032541,-0.0557335776597261,-0.02652034265697,-0.008364706300199,0.0095033571124076,-0.0439352504909038
2.8099819335937504,0.0063164896704256,-0.0341930692419409,-0.0022568390160799,0.0033753663301467,0.004823266994208,-0.0402478538453578
2.81994677734375,-0.0268740879980847,0.0095122169718146,-0.0230856920331716,0.0158813036978244,-0.0074919890612363,-0.0356435142457485
2.8299108886718756,-0.020230777526088,-0.01930266636312,-0.0386433266490697,0.0217802450060844,-0.0089958412572741,-0.0342322997748851
2.8398747558593733,0.001144749588333,-0.062586658424884,-0.0087689973890781,0.0209847595542669,0.004718639422208,-0.0353731997311115
2.8498398437500008,0.0031897359520196,-0.0984365549631416,-0.0185801973074674,0.0161521192640066,0.0089568896219134,-0.0372101850807666
2.8598039550781245,0.0165022219896316,-0.1051316686876118,-0.0274216754108667,0.0152628887444734,0.0082215908914804,-0.033766720443964
2.86976904296875,-0.0088945234648883,-0.0975521733440458,-0.0009176993668079,0.0136606972664594,0.0035191006027162,-0.0306751988828182
2.8797329101562497,-0.0275737241674214,-0.0618080752678215,0.0505126281410455,0.007021970115602,0.0074440673924982,-0.0194723457098007
2.8896977539062494,-0.0222631966691464,-0.0261893571369349,0.0962175637394189,-0.001120610628277,0.0030500020366162,-0.0126407463103532
2.899661865234375,-0.0119881786312907,-0.0018447510838508,0.088725746679306,-0.0177922658622264,-0.003864096943289,-0.002862419001758
2.9096269531250005,0.0477178828559815,-0.0097780283011496,0.1085685112684965,-0.0392856039106845,-0.0098538286983966,-0.0030381525866687
2.919590576171876,0.0755460932411253,-0.0383070804320275,0.1290910748153924,-0.0594715662300586,-0.01676020398736,-0.0024213637225329
2.9295546874999996,0.0686134809663519,-0.0769026224166154,0.1364525434941053,-0.0784766227006912,-0.0163824204355478,-0.0019201738759875
2.9395200195312494,0.0386509254336357,-0.0987023662924766,0.1532470264285802,-0.0953653305768966,-0.0143299214541912,0.0016244938597083
2.949484130859375,0.0077757851006463,-0.115302934090048,0.1640741253912448,-0.0979944765567779,-0.0078131984919309,0.0097728474065661
2.9594487304687505,-0.0025404782630503,-0.1268802668981254,0.0897299552857875,-0.0966658294200897,-0.0091554308310151,0.0156115610152482
2.969412841796876,-0.0154351407473906,-0.1118570314198732,0.0042097266495227,-0.1045637130737304,-0.0198221895843744,0.0186305996030569
2.9793779296875,-0.0129183356208726,-0.078121350556612,-0.0025888474494218,-0.1111734136939048,-0.0284993033856153,0.0169639941304922
2.9893417968749993,-0.039527160278894,-0.0199454943113028,0.0129664490789175,-0.1126034408807754,-0.0203438717871904,0.0111333103850483
2.999307128906249,-0.0298733063466846,0.0389564842514693,-0.0023988778352737,-0.1033268421888351,-0.0127610536292195,0.0103591289371252
3.0092709960937505,-0.0162453246191143,0.1303648941434919,-0.0805161367386579,-0.0919997841119766,-0.0212472807615995,0.0015797801315784
3.019235107421874,-0.0114222883768379,0.1867031596980989,-0.2149532487571239,-0.0730852112174034,-0.0353591032326221,-0.0066123693250119
3.0291999511718757,0.0240935539014637,0.2008469819933176,-0.2335287698894739,-0.0545758977532386,-0.0464868247509002,-0.0107771698385477
3.0391638183593734,0.0491012269731611,0.1905592506043613,-0.2248322532147169,-0.0358067378401756,-0.0443435125052928,-0.0138520542532205
3.049128906250001,0.0701465357525274,0.1248477381572127,-0.195008777359128,-0.0252682864665985,-0.0458154082298278,-0.0197278577834367
3.0590927734375004,0.0678264222418889,0.0606352320961654,-0.1533300285369157,-0.0176327377557754,-0.0518602505326271,-0.0298310909420251
3.0690578613281243,0.0244317363472655,0.0191229258820414,-0.0490443091541528,-0.0095552904531359,-0.0490258149802684,-0.0363940671086311
3.0790219726562498,-0.0034103929653763,-0.0043368601605296,0.0535556490987539,-0.0039583910256624,-0.0347906872630119,-0.0449968799948692
3.0889860839843735,-0.0217036265576258,-0.0329332784391939,0.0825987882316112,-0.0022770902141928,-0.025314463302493,-0.0477248355746269
3.098950927734373,-0.0184264315178617,-0.0279679111167788,0.0781377171695232,-0.0081666707992553,-0.0196296796202659,-0.0521773733198642
3.1089150390625004,-0.0306952902540564,-0.0270772458873689,0.1102326450884342,-0.0120579414069652,-0.0114891258999705,-0.0529619790613651
3.1188796386718742,-0.0150053710279986,-0.0465495697289705,0.1102525188326835,-0.007221907377243,-0.0063050165772438,-0.0497805662453174
3.1288437499999997,0.0126716308508068,-0.0715267745971679,0.0485433738946914,-0.0016488973051309,-0.0066448030993342,-0.0474057048559188
3.1388088378906254,0.0298546381788328,-0.0891504018321633,-0.0084083473831415,0.0009050741791725,-0.0137570416554808,-0.0418045446276664
3.148772949218751,0.0451214731546118,-0.0937400677099823,0.0055722471743822,-0.0037539447657763,-0.0126260481774806,-0.0398922860622406
3.1587368164062504,0.0430857295433059,-0.0901721460953354,0.0525070168286561,-0.0042663370259106,-0.0093706008046865,-0.0376813299953937
3.1687019042968743,0.0327680414075031,-0.0968676982112228,0.0622007278472185,-0.0085862781852483,-0.0018615692388266,-0.0324505791068077
3.1786660156249997,0.0199133456073701,-0.1218232757695019,0.0650695612818002,-0.01201057061553,-0.0030653176363557,-0.0305104628205299
3.1886308593749995,0.0165816073687747,-0.1586819109588861,0.069426587447524,-0.0083722583949565,-0.0018140817992389,-0.0261292867362499
3.1985947265625008,0.0025581600502133,-0.1254372284829616,0.0390285265743732,-0.0076148551888763,0.0009449532954022,-0.0240048840641975
3.2085598144531264,-0.0102007837578654,-0.0767065153226256,0.0089390932589769,-0.0133865289390087,0.0041232700459659,-0.0215217769145965
3.21852392578125,0.0022283070413395,-0.0538091854684054,0.0549883122503757,-0.0203656088560819,0.0092818131670355,-0.0214940793812274
3.228489013671876,0.0057217386476695,-0.0305928527928888,0.0775812523305416,-0.025773437693715,0.0177838243544101,-0.0252020992338657
3.2384531249999995,-0.0259063389444723,-0.0351255277864634,0.0469219101727008,-0.0231701992452144,0.0164455845952034,-0.0318397618830204
3.248416992187501,-0.0489838476711884,-0.042574236357212,0.0299099850952625,-0.0293722450733184,0.0187838077545166,-0.0322065949440002
3.2583818359375005,-0.0427419941395521,-0.0225584532886743,0.0542991609424352,-0.0418693982064724,0.0197936780750751,-0.0345342010259628
3.268345947265624,-0.0374128715386614,-0.0154132577091455,0.0809212104082107,-0.0458026677370071,0.0274839214980602,-0.0362427160143852
3.27831103515625,-0.0187438999691978,0.0095898122526705,0.0835030435949563,-0.0504839718341827,0.0309963636100292,-0.0402188152074813
3.2882749023437494,-0.011774791608937,0.0082039108522236,0.0322790523141622,-0.0533196963369846,0.0335796475410461,-0.0404291674494743
3.298239746093751,0.0063789604473859,0.0077373162537813,0.002749006447196,-0.053065363317728,0.0307516381144523,-0.039421159774065
3.3082041015625006,0.0155173756707459,-0.0117458212427794,-0.044950317838788,-0.044736485928297,0.0277100913226604,-0.0402847416698932
3.31816796875,0.0008314093228429,-0.0432823846265673,-0.0757382548123598,-0.0300435610115528,0.025786755606532,-0.0379483513534069
3.3281328125,-0.0113099505761638,-0.0427212436124682,-0.0907253960639238,-0.0180401764810085,0.0177063085138797,-0.038725059479475
3.3380969238281253,-0.0046387657165527,-0.0269027661032974,-0.1286485917448997,-0.0006481376476585,0.0073455469682812,-0.0308442339301109
3.348062011718749,0.0315537337142974,-0.0024117373168468,-0.1427683025121688,0.0068450290709733,-0.0094356471672654,-0.0273898597806692
3.3580219726562497,0.0581761485062539,-0.0043035424128174,-0.0879185219496488,0.0061235791072249,-0.013342504389584,-0.0268420483916997
3.3679868164062494,0.0239997016055509,-0.0384488269902765,0.0446335069745779,0.0006446726620197,0.0004203105345368,-0.0285578221082687
3.3779506835937507,0.0014877543397247,-0.1017009635865688,0.144603116723895,-0.0074625224806368,0.0173159372061491,-0.0310382917523384
3.3879147949218744,-0.0105380163555964,-0.1226803309902548,0.1343225457280874,-0.0093617187812924,0.0214146245270967,-0.0309860799461603
3.3978798828125,-0.0304870543308556,-0.1081558388143777,0.0815203453451395,-0.0034042270854115,0.0156060047447681,-0.0274486038833856
3.4078437499999996,-0.0278091038258746,-0.0805612910546362,0.0431558356374502,0.002313888631761,0.0115171344950795,-0.0255241431295871
3.4178088378906253,-0.0059442588245496,-0.0455728336513042,0.0250683902829885,0.0038574570789933,0.0096784876659512,-0.0258234813809394
3.4277729492187508,0.0112063075385987,-0.0289379251927137,0.01195464168787,0.0025996724143624,0.0151180336251854,-0.0318086706101894
3.4377377929687505,0.0039571035953238,-0.0268726632259786,-0.0070908350437879,-0.0085374014452099,0.0192318186163902,-0.0383651070296764
3.44770166015625,-0.0206846953060477,-0.042255379666388,-0.0173515322953462,-0.0142833646386861,0.0247734673321247,-0.0392623357474803
3.4576657714843737,-0.0659186889244243,-0.0491198586083948,0.0290168356478214,-0.0190687999129295,0.0328777357935905,-0.0426805019378662
3.4676308593749994,-0.1210123977780342,-0.014359510872513,0.0957218891769647,-0.0183311756700277,0.0404151156544685,-0.0383310541510582
3.4775949707031266,-0.1002396223297342,0.025694120965898,0.0588590162038803,-0.0180169232189655,0.0350344628095626,-0.0368545986711978
3.4875600585937505,-0.0545833481786772,0.0994941011920571,-0.0215367090255022,-0.0145196327939629,0.0211503561586141,-0.0443644821643829
3.49752392578125,-0.0266464167220518,0.1287425536386668,-0.0501993244081735,-0.0222931336611509,0.012922253459692,-0.046674508601427
3.5074887695312498,0.0014541443310678,0.0816108001075684,-0.0236216986060142,-0.0165882520377635,0.01290541049093,-0.0486828461289405
3.5174528808593735,-0.0004828516134992,-0.0042886371046304,-0.0316886852055788,-0.0082070166245102,0.0052983574569225,-0.0532288625836372
3.5274167480468748,-0.0293377016326412,-0.0902374664165079,-0.0610018734514713,0.0029846429824829,-0.0067597907036542,-0.0503961890935897
3.5373818359375004,-0.0675643372396007,-0.1220604455262422,-0.0547381368815898,0.0043268762528896,-0.0131359305232763,-0.0512760952115058
3.547345947265626,-0.1000594799898564,-0.1078819903090596,0.0031809681236743,0.0027832454070448,-0.0088732875883579,-0.0491015240550041
3.55731103515625,-0.1006532811645418,-0.0972141735613346,0.0817675981044769,-0.004988657310605,-0.0002552985679358,-0.0463526062667369
3.567274658203125,-0.0966137965153902,-0.0756964614972472,0.0734697253584861,-0.0055787428282201,0.0027806046418845,-0.0502999201416969
3.577239746093751,-0.0722562213828787,-0.0842506470918655,0.0325952786564826,-0.0122358463704586,-0.0018152121920138,-0.0504003204405307
3.5872038574218745,-0.0649874359562993,-0.0784345081590116,0.0175648827850818,-0.0135268215090036,-0.0014922365080565,-0.0524773672223091
3.59716796875,-0.037246392397955,-0.0395120723076164,0.0248234756112098,-0.0164235420525074,-6.07876572757e-05,-0.0537892431020736
3.6071325683593756,-0.0122364543039351,-0.0246541103936731,-0.0009948562562465,-0.010309973731637,-0.0004201831761747,-0.04840849339962
3.6170966796874993,0.006617810704559,-0.0584970510236918,-0.0144400287628173,-0.0087770586833357,-0.0069539821706712,-0.0510639324784278
3.627062011718751,-0.0255394783934578,-0.0718142132364213,-0.0547001429587602,-0.0063679083250463,-0.0093822181224823,-0.0532264932990074
3.6370258789062504,-0.0453175437159836,-0.0781318719506263,-0.0575736525684595,-0.0030634580180048,-0.0144230490550398,-0.0532248951494693
3.6469909667968743,-0.0261749998180195,-0.0772856303848326,-0.0210895497798919,-0.0019921041093766,-0.0111238304525613,-0.0540585555136203
3.6569548339843756,-0.0232778536044061,-0.0470791465610265,-0.0036953473865985,0.0039227772504091,-0.0118434149771928,-0.0621098242700099
3.6669189453124993,-0.0423993181817233,-0.0193193252369761,-0.0234673848271369,0.005157665349543,-0.0158995408564806,-0.0640401840209961
3.676883789062501,-0.0425642994850873,0.0049725277155637,-0.0545277090013027,0.0162017941474914,-0.0229505244642496,-0.0643424540758133
3.6868476562500003,-0.0338710707459598,0.0043505964249372,-0.0674158321470022,0.0202081687748432,-0.025288013741374,-0.0640650689601898
3.69681298828125,-0.0251275365917012,-0.019890110862255,-0.0505512065857648,0.0199165511876344,-0.0255929455161094,-0.0652131587266922
3.7067768554687497,-0.0409507998738437,-0.0576857346408069,-0.0235708452016115,0.0234473459422588,-0.0279834158718585,-0.0704880505800247
3.7167419433593736,-0.0583166164228692,-0.102003599794954,0.0056727849394083,0.0235229767858982,-0.025933314114809,-0.0716558396816253
3.726706054687501,-0.0664081164091825,-0.1251395607106387,0.0407376685798168,0.0252549611032009,-0.0268351472914218,-0.0760160535573959
3.7366699218750004,-0.0731389955667778,-0.1129506718754768,0.0669353551536798,0.0265407375991344,-0.0228792876005172,-0.0785599052906036
3.746634765625,-0.0479268128989264,-0.0702114542149007,0.016738368833065,0.0323596708476543,-0.0261042565107345,-0.0769313722848892
3.7565988769531256,-0.025050525832735,-0.0463501016341149,-0.0334732305347919,0.0355679802596569,-0.0354847088456153,-0.0771643966436386
3.7665639648437494,-0.0089273297559469,-0.0507559353776276,-0.0643465077042579,0.0333493687212467,-0.0451089367270469,-0.081605464220047
3.7765278320312508,-0.020348595219478,-0.0746352620065212,-0.0068809916853904,0.0297671519219875,-0.0457105450332164,-0.083280861377716
3.7864929199218746,-0.0291431289086118,-0.1000498353786766,0.0540618450552225,0.0274885352700948,-0.0431868210434913,-0.0862767770886421
3.79645703125,-0.0351545346852391,-0.1022955684788525,0.0749842215746641,0.0165200419723987,-0.0396448150277137,-0.0921317413449287
3.8064208984374996,-0.0583757992642,-0.094256346669048,0.1075999584972858,0.0057596117258071,-0.0301627311855554,-0.0945107191801071
3.8163857421874994,-0.0661869114065542,-0.1220247896909713,0.1286076752126216,0.0023049591109156,-0.0246209613978862,-0.1008940488100051
3.8263498535156266,-0.0741326462466269,-0.1065844978444278,0.0911310542553663,0.0010289400815963,-0.0277900397777557,-0.1083631366491317
3.8363146972656264,-0.0862159558154642,-0.0777478410691022,0.0359036725521087,-0.0033727320842444,-0.0342157147824764,-0.109088584780693
3.846278564453126,-0.0708449298128485,-0.0467353015594184,0.0346323374420404,-0.008200510405004,-0.0304300319403409,-0.1084377020597457
3.8562438964843757,-0.0590800020107999,-0.0457895451419055,0.0305558817833662,-0.0098500726744532,-0.0292161647230386,-0.107465386390686
3.8662080078124994,-0.0704630543557927,-0.0331491131469607,0.0176905549913644,-0.0143530145287513,-0.0323878861963748,-0.1133621782064437
3.8761718750000007,-0.0887079187616705,-0.0319853300645947,-0.0071329206198453,-0.0095630530267953,-0.03665267303586,-0.1136948093771934
3.8861369628906264,-0.0766636625615879,-0.0480570516824722,0.0072311202973127,-0.0077621601521968,-0.035231065005064,-0.1119974106550216
3.896100830078126,-0.0641774712802842,-0.080513067998737,-0.0006295300751924,8.484441787e-05,-0.0430503748357296,-0.1142712160944938
3.9060656738281256,-0.0659633317837491,-0.0994816801019012,-0.0175075996398925,0.0026105614379048,-0.0478715114295482,-0.1153875738382339
3.9160297851562493,-0.0664021615924313,-0.1069502624168992,-0.0296001884937286,9.81353223323e-05,-0.0535720065236091,-0.1199197396636009
3.925995117187501,-0.1018990799745544,-0.0666352031633257,0.0457207176893949,-0.0030001299455761,-0.0444153361022472,-0.1185505613684654
3.9359589843750005,-0.0848920502679422,-0.0766750972710549,0.092433369025588,-0.0169889163225889,-0.0364183969795703,-0.1201074421405792
3.9459228515625,-0.0400820176826789,-0.0439455247104167,0.1049818849533796,-0.0224990919232368,-0.0340891145169734,-0.1281475126743316
3.9558879394531257,-0.0537193152278661,-0.0018697393946349,0.0714426034450531,-0.0330060608685016,-0.0354451946914196,-0.1270907670259475
3.965851806640625,-0.0287874108061194,-0.064931906376779,0.0763584325373172,-0.0425642989575862,-0.0325734615325927,-0.1350641846656799
3.9758166503906267,-0.0356959480855613,-0.1294208912916481,0.1028740990191698,-0.0465491861104965,-0.0239421557635068,-0.1386655867099762
3.9857807617187504,-0.017490429309383,-0.1854950990825891,0.0250420867979526,-0.0401172637939453,-0.0262325834482908,-0.1437421441078186
3.9957458496093743,-0.0207565914984792,-0.1522134455971419,-0.075422612991929,-0.0291905812919139,-0.0416980944573879,-0.145335778594017
4.005710205078126,-0.0339805224698036,-0.0919910320855677,-0.0999976668000221,-0.0250219032168388,-0.0479918792843818,-0.1410960704088211
4.015673828124999,0.0020413696344941,-0.0986073814854025,-0.076909052157402,-0.03368516638875,-0.0449377670884132,-0.1399450600147247
4.025638916015627,0.0324259499715641,-0.1001506654046475,-0.0241617968320846,-0.0361448191106319,-0.0308289881795644,-0.143249973654747
4.03560302734375,0.0588780862305313,-0.1423730195842683,-0.0416419239431619,-0.0481665953993797,-0.0299133937805891,-0.1507584899663925
4.04556787109375,0.0572835470480844,-0.1835495179727673,-0.072819152495265,-0.0507217347621917,-0.0226227976381778,-0.1580801755189895
4.05553173828125,0.0523551142025738,-0.220334503404051,-0.0804419024586677,-0.0396648198366165,-0.0215703174471855,-0.1543634682893753
4.065495849609373,0.0760443981520831,-0.198075617583841,-0.0324877266287803,-0.0197552517056465,-0.0146993026137351,-0.1465242356061935
4.075460937500001,0.0748347301013767,-0.1163311080940067,-0.0163192666381597,0.001927938312292,-0.0080376705154776,-0.1438568085432052
4.085424560546874,0.0865858120411634,-0.0598572334609925,-0.0474462263077497,0.0211338195949792,-0.0095630344003438,-0.1343597918748855
4.095389892578124,0.1363726101256906,-0.0037272038295865,-0.0738975953817367,0.0371540635824203,-0.0083113489672541,-0.1273157298564911
4.10535400390625,0.1659318455545231,0.0078597735896706,-0.0884492678254842,0.0544991604983806,-0.0166882220655679,-0.1184655502438545
4.1153188476562494,0.1707597041023895,-0.0303590440370142,-0.1130500405967235,0.0652578026056289,-0.0260257963091135,-0.1119535863399505
4.125282714843751,0.1484904430186376,-0.0945468540482223,-0.0812690009325742,0.0817228108644485,-0.0350569784641265,-0.1027376130223274
4.1352468261718744,0.1304061760019511,-0.1467529882341623,-0.0390969156354665,0.094322495162487,-0.0404296405613422,-0.0899254158139228
4.145211669921874,0.0779642602987587,-0.1548743353694677,0.0105132107079029,0.0930745378136634,-0.0397795625030994,-0.0862995162606239
4.15517578125,-0.0163005984703078,-0.0932543300196528,0.1467033038735389,0.0987724959850311,-0.0278276726603508,-0.0801039785146713
4.1651411132812495,-0.0636583062443882,-0.0124253279395401,0.1670288835436105,0.089868739247322,-0.0159420929849147,-0.0710416510701179
4.175104980468751,-0.0631600743986666,0.024798925691843,0.131397013670206,0.0732985511422157,-0.0055554993450641,-0.0725684389472007
4.1850698242187505,-0.0635125410981476,0.0697279084816575,0.1298135438710451,0.0565082468092441,-0.0083472449332475,-0.0737446695566177
4.195033935546874,-0.0283659705236554,0.0738520026743412,0.138487848713994,0.0421921573579311,0.0063789705745875,-0.0817032605409622
4.204997802734374,-0.0011385755758732,0.0605495996393263,0.1451975754857063,0.0315643548965454,0.0110709834843873,-0.0861146301031112
4.2149626464843735,0.020093889806047,0.0295328223459422,0.1081371341139078,0.0306016188114881,0.0198705997318029,-0.0925592109560966
4.224926757812501,0.0124787020945921,0.080149495383352,0.0275070156067609,0.0321039669215679,0.0182710289955139,-0.0929216146469116
4.2348920898437505,0.034804442605935,0.1122404777795076,-0.0738157623171806,0.0381472110748291,0.0125694684684276,-0.0894041135907173
4.24485595703125,0.0700775987021625,0.0854116536952555,-0.1406774677127599,0.0324267596006393,-0.0051387147977948,-0.0956417992711067
4.25481982421875,0.043596272881329,0.0837077723868191,-0.0771411073476076,0.0338893607258796,-0.0096839312463998,-0.1033127680420875
4.2647849121093735,0.0042245223598554,0.0857533067397773,-0.0043114334583282,0.0327957309782505,-0.005478176753968,-0.1063574850559234
4.274749023437501,-0.0141477312853559,0.0518995524547994,0.0224766202241182,0.0259884260594844,-0.0006485341582447,-0.1143600195646286
4.2847136230468745,-0.0338519276540726,0.0374237217262387,0.0529722962528467,0.0156983043998479,0.0029645869508385,-0.119801752269268
4.294677734375,-0.0360142567871138,0.0250844646349549,0.098889997819066,0.0036062207072973,0.0057545145973563,-0.1237110123038292
4.304642822265626,-0.0276203032555058,-0.0083335285812616,0.1228010347604751,-0.0023032338358461,0.0076853339560329,-0.1280715465545654
4.314606933593749,-0.0262266204074025,-0.0438240902878344,0.107371994960308,-0.0007727155461907,0.0072102257981896,-0.1247260719537735
4.324570800781251,0.0141828391313552,-0.0714900958485901,0.0643769028425216,0.0030988883227109,0.0012479134602472,-0.1200952306389808
4.334535888671875,0.0549734069421887,-0.0992256595142185,-0.0069195701301097,0.0083040371537208,-0.0105200624093413,-0.1139747574925422
4.3445,0.0749109006101265,-0.1131198909625411,0.0280249020010232,0.0103301480412483,-0.0140086663886904,-0.1093175262212753
4.35446484375,0.0720460492309182,-0.0833101513713598,0.0794020380169153,0.0075953472405672,-0.0129450010135769,-0.105473518371582
4.364428710937499,0.0689594813924282,-0.0628024931326508,0.1247808104008436,0.0086998818442225,-0.0035779732279479,-0.0997411012649536
4.3743928222656265,0.0723401733392849,-0.0539434793725609,0.128226566940546,0.0100770024582743,0.0038866007234901,-0.0968276038765907
4.38435791015625,0.0622977950135245,-0.0665158145673572,0.0734147803008556,0.0134685384109616,0.0005427803844213,-0.0931143686175346
4.39432177734375,0.0573379441164433,-0.0588467412441968,0.0415735348820686,0.0190902054309844,-0.0005467187147587,-0.0857179760932922
4.404287109375,0.0747810636853799,-0.0658776627942919,0.0307487740069627,0.0245917830616235,-0.0003497817087918,-0.0815188661217689
4.414250976562499,0.0620166034519672,-0.0379896850459277,0.0086263740479946,0.0302848238497972,-0.0006589747499674,-0.0797720998525619
4.424215820312501,0.0670758961355313,-0.0017848375901579,-0.0190016375899314,0.0387128144502639,-0.0075470656156539,-0.0761729106307029
4.4341799316406245,0.0826455865154042,0.0349200683422386,-0.0438975939154624,0.0467574223875999,-0.0126699227839708,-0.0701120868325233
4.444143798828126,0.1132236801305785,0.0501442332200706,-0.0517640895068645,0.0472008623182773,-0.011467220261693,-0.0664380341768264
4.4541086425781256,0.1224430881682783,0.0223448105379939,-0.0288303731650114,0.0490147396922111,-0.0075414548628032,-0.0685515105724334
4.464072753906249,0.1087726555384695,-0.0326223127938807,0.0195025728493928,0.0486679263412952,0.0032432728912681,-0.0732819885015487
4.474038085937501,0.0744666639739647,-0.0451373648434877,0.0264092834979295,0.0561138577759265,0.0042973519302904,-0.0685847029089927
4.484001953125,0.0947789092384278,-0.0777997173868119,-0.0121048638135194,0.0623480789363384,-0.0005294559523463,-0.0613895542919635
4.4939658203125,0.1157535274017602,-0.0808897923566401,-0.0305143807291984,0.0679540336132049,-0.0062350127846002,-0.0554445758461952
4.503930908203126,0.1259959948768839,-0.0697046737365424,-0.0377501772016286,0.0718794018030166,-0.0114090908318758,-0.0494581311941146
4.513895019531249,0.1516825901234522,-0.0763674926266074,0.0006207622468471,0.0721121653914451,-0.011604300700128,-0.0417592003941535
4.523859619140627,0.1583853391651064,-0.0777329357609152,0.0469517207890749,0.067498505115509,-0.0065877037122845,-0.0335300341248512
4.53382373046875,0.1567343936203047,-0.0867448019951581,0.0837432820916175,0.0647663697600364,0.0001498274505138,-0.0254105906933546
4.543788818359374,0.1453239052791148,-0.0635905747704207,0.1156038167327642,0.0612741447985172,0.0110299978405237,-0.0148608293384313
4.5537529296875,0.1535809710906818,-0.0731108289182186,0.0978051251918077,0.0585188381373882,0.0083596464246511,-0.0069911880418658
4.563716796874999,0.1509774375287816,-0.1049479826837778,0.0781488230854272,0.0542683154344558,0.0083277514204382,0.0046942834742367
4.573681884765627,0.1257162280874326,-0.1529625103987753,0.0800502727925777,0.0530994534492492,0.0097253788262605,0.0136459665372967
4.58364599609375,0.1289585710095241,-0.1683899427637457,0.0592775338768959,0.0443041920661926,0.0194671414792537,0.0223619453608989
4.59361083984375,0.1133865060094743,-0.1315007663056254,0.0693067604601383,0.0356822088360786,0.0177576579153537,0.0284608509391546
4.60357470703125,0.0908843129526823,-0.0549206538416445,0.0965080711185932,0.0293770972639322,0.0206490419805049,0.0355867706239223
4.613538818359373,0.0567403070168569,0.0257734698124229,0.1307680681169033,0.0291757639497518,0.026651807129383,0.0371457822620868
4.623503906250001,0.0536731379985809,0.0344813846640288,0.1070130985200405,0.0243082121014595,0.0279321800917387,0.0462566129863262
4.6334677734375,0.0764882329294458,0.0052602586157619,0.0716816728979349,0.0131935076788067,0.0356947630643844,0.0443644374608993
4.643432861328126,0.0911855243889614,-0.0061370414502918,0.0519271711140871,0.0045534102246165,0.0357268750667572,0.0453171730041503
4.65339697265625,0.0941484658477827,-0.0355690337702631,0.0397509956300258,-0.0003489363007247,0.0343726575374603,0.051797978579998
4.663361816406249,0.0952972340241074,-0.0630443390645086,0.018157587981224,0.0017676735296845,0.0323344878852367,0.0629287734627723
4.673325927734375,0.0691002781026065,-0.0831961696028709,0.022059271594882,-0.001844105310738,0.0275234878063201,0.068063348531723
4.683289794921874,0.0686831121364608,-0.0917917101211845,0.0700362437784671,-0.00696442136541,0.0314460098743438,0.0756250396370887
4.693254638671876,0.0866907337203621,-0.097550858169794,0.1197995148569345,-0.0199973993003368,0.0321501493453979,0.0801172628998756
4.70321875,0.0936378859771415,-0.091251904156059,0.1657090331166982,-0.0314493589103221,0.0391295105218887,0.0737859383225441
4.713184082031249,0.0146025989133864,-0.0709732323676347,0.1780412759453058,-0.0531511940062046,0.0529699586331844,0.061721283942461
4.723147949218751,-0.0601032806439325,-0.0142113345734775,0.2114882029950618,-0.0773597508668899,0.0715823546051979,0.0583774857223033
4.73311181640625,-0.0745020275482907,0.0629081454642117,0.2005138045161962,-0.1043397039175033,0.0876585245132446,0.0564405657351017
4.743076904296876,-0.053601095675677,0.1030040090091526,0.1456786370009183,-0.1209375187754631,0.0949626713991165,0.0575058609247207
4.753041015625,-0.0097332027787342,0.0894524535186588,0.0640203444898128,-0.1190293654799461,0.0917194783687591,0.0631930381059646
4.763005615234373,0.0585499502547085,-0.0193868375152349,-0.0505149662286043,-0.1046693846583366,0.0768483951687812,0.075427658855915
4.772969726562501,0.1226236688995733,-0.1414161572508513,-0.1726595829069614,-0.071708507835865,0.0530397370457649,0.0932471379637718
4.782933837890624,0.1630532579109072,-0.230614489877969,-0.2512374450594186,-0.0393883809447288,0.0243436452001333,0.1102543547749519
4.792899169921876,0.1951716397706419,-0.2919935260787606,-0.3153068893879652,-0.0045246761292219,-0.0035175469238311,0.1275960505008697
4.8028627929687495,0.1940202777784317,-0.2986722731903195,-0.2863666261076927,0.0208890512585639,-0.0179139710962772,0.1391474455595016
4.812827880859373,0.1518329949121922,-0.2422631343565881,-0.149806530585885,0.0350450836122036,-0.0196610055863857,0.1420926302671432
4.822791992187501,0.0933875644778832,-0.1828102439127862,0.0032154549151659,0.0355173610150814,-0.0084763439372181,0.1435757279396057
4.832756103515624,0.029318229747191,-0.1247032151199877,0.1095586913496255,0.0267539620399475,0.0083697475492954,0.1449360698461532
4.842720703125,-0.0084470719583332,-0.068242346099019,0.1193909340560436,0.0252898968756198,0.0208399537950754,0.1456702053546905
4.852684814453125,0.0090227529544383,-0.0312916487120091,0.0555997221469879,0.0240491330623626,0.0207888204604387,0.1520620584487915
4.862649902343749,0.0533022953921928,-0.0227348327688872,-0.0184784904986619,0.03925321996212,0.0171557627618312,0.153367131948471
4.872613525390626,0.0732117320094257,0.0026041911490261,-0.0710574035197496,0.0520129539072513,0.0070458715781569,0.154732808470726
4.8825788574218745,0.0795959166212007,-0.010646335568279,-0.1003933881193399,0.0582386180758476,0.0022911522537469,0.1585852652788162
4.89254296875,0.0639222544101998,-0.0529797489069402,-0.0418102662473916,0.0605049654841423,0.0070459600538015,0.1544048935174942
4.902507080078125,0.0184544155033305,-0.081457801502943,0.014830489385128,0.0667081400752067,0.0081271594390273,0.1574434787034988
4.912471923828127,0.0159462686073035,-0.1107588609196245,-0.0145545950531959,0.0785054117441177,0.0027148171793669,0.1619982719421386
4.9224357910156264,-0.0044704234123229,-0.0838183931544423,-0.0476782814979553,0.0856691375374794,-0.0069145653396844,0.1608889102935791
4.93240087890625,-0.0087376158701255,-0.0786556035637855,-0.0641302346050739,0.0795095115900039,-0.0196921452879905,0.1583621054887771
4.94236474609375,-0.0286663051771,-0.072236238040775,0.0083978259891271,0.0752761214971542,-0.0156986638903617,0.1492524445056915
4.952328613281249,-0.0676113912517204,-0.0108687461473047,0.1064589717686176,0.0607147514820098,-0.0016520882491022,0.1411204934120178
4.962293945312499,-0.0885576235707849,0.0879090234689414,0.146861709305644,0.0391852259635925,0.0108421314507722,0.1385792940855026
4.9722580566406265,-0.0744916888173669,0.0808228646002709,0.1660644224256277,0.0156362242996692,0.0262714214622974,0.1325549632310867
4.982222900390624,-0.0642114466151222,0.0391882471807301,0.186468912550807,-0.001034237910062,0.0353142991662025,0.1239726841449737
4.99218701171875,-0.0635434476930648,-0.0048657063402235,0.1654892528861761,-0.0150187630206346,0.039448857307434,0.1185771226882934
