time,ax,ay,az,gx,gy,gz
0.0,-0.1056428330801427,-0.0505612895883619,-0.1185848783701658,0.0357601679861545,0.0097774025052785,0.0524839498102664
0.009964843749997954,-0.1060808957038447,-0.041045857746154,-0.1034855089157819,0.0404700636863708,-0.0024854834191501,0.0476971864700317
0.01992895507811454,-0.1059749145787209,-0.0158516491264104,-0.0457072736859321,0.0346673056483268,0.0003222874365746,0.0387265942990779
0.029893798828112494,-0.1037629376176744,0.0371913742750883,0.0112953009963035,0.0249981135129928,0.009477537125349,0.032707642763853
0.03985766601562091,-0.1064852021884173,0.0525372658364474,0.0730161363720893,0.0172419231384992,0.0178169589489698,0.026193019002676
0.049822753906241246,-0.0905368146892637,0.0057854515336453,0.0900116948366165,0.0063699334859848,0.0264218039810657,0.019800903275609
0.05978710937499443,-0.0689717563521117,-0.0449875811092555,0.0661333911210298,0.0029829256236553,0.0251360293477773,0.01511693559587
0.06975195312497817,-0.0476068236969411,-0.1061310549885034,0.0433265160292387,0.0062047159299254,0.0198070723563432,0.0127394422888755
0.07971606445312318,-0.0347200887907296,-0.135014181254059,0.0408721086144447,0.0050217397511005,0.0199082735925912,0.0143431983888149
0.08968090820312113,-0.0303692366374656,-0.1439187877215444,0.0529079988449811,0.0091976216062903,0.0232933573424816,0.0156633034348487
0.09964477539061534,-0.0390186627674847,-0.1111250638835132,0.0338695363759994,0.0120815588161349,0.0223937425762414,0.0186926499009132
0.1096098632812641,-0.050329453593865,-0.0502940169543027,-0.0307201324343681,0.0161099806427955,0.0180149264633655,0.0181201733648777
0.11957397460938068,-0.0552580691024661,0.0016268705494701,-0.0686959350854158,0.0203840881586074,0.0191355850547552,0.0173678305000066
0.12953881835937864,-0.0588741041751578,0.033944939699769,-0.065707859185338,0.029372714459896,0.0195047091692686,0.0200972277671098
0.13950390624999898,-0.0547433245133608,0.0225793499462306,-0.0947732101500034,0.0386394523084163,0.0167264994233846,0.0181672349572181
0.14946801757811556,-0.0362031669553369,-0.0004367839820683,-0.1267056409835815,0.0508008040487766,0.0053467960096895,0.0195872448384761
0.15943286132811352,-0.02317731583938,0.0194815300613641,-0.1190437280535697,0.0628537386655807,0.0014133072691038,0.0185344964265823
0.16939672851562193,-0.0401309713909402,0.0476823731511831,-0.0821668265551328,0.0694316923618316,-0.0023608908522874,0.0181637592613697
0.17936181640624227,-0.0496541116155683,0.0700957188807427,-0.0595861614346504,0.0673858523368835,-0.0022466413211077,0.0129120051860809
0.18932568359373647,-0.0641712972678244,0.0662307140156626,-0.0219680861800909,0.0625944286584854,0.0004166995640844,0.0109786186367273
0.1992910156249792,-0.0594718143399804,0.0712000268608331,0.0174883104175329,0.0612274333834648,-0.0011764033697545,0.0039100563153624
0.2092551269531242,-0.0506825413478538,0.0660964201115071,0.040578678625822,0.0560807213187217,0.0025207267608493,0.002530772704631
0.21921972656249977,-0.0407768680790439,0.0200438401192426,0.042768297624588,0.0523855835199356,0.0039665568619966,-0.0028323014266788
0.22918383789061636,-0.0171000052196905,-0.0388581384435296,0.0375736515909433,0.047157347202301,0.0004311576485633,-0.0033861971460282
0.2391489257812367,-0.0080540540527552,-0.0597175327293574,0.0251198282092809,0.0445764809846878,-0.0001512756571173,-0.0017459564842283
0.2491130371093817,-0.0022403628053143,-0.0844585907541215,0.0427425786614418,0.034462284296751,0.0002548492047935,-0.0018030111677944
0.25907788085937966,0.0135920701639726,-0.0707461456134915,0.033896424382925,0.0247537307441234,-0.0048730671405792,-0.0051836282946169
0.26904199218749625,0.0157477503605186,-0.0001934767454862,0.0441506918936967,0.0132502792403101,0.0008657675934955,-0.0067265867255628
0.2790068359374942,-0.0133553753312677,0.0549361436717212,0.0787988114267587,0.0087828272953629,0.0020210468210279,-0.0086914673447608
0.288970947265625,-0.0163936835812404,0.1058927161879837,0.077250412940979,0.0080877523869276,0.0087995491921901,-0.0154796345159411
0.29893603515625955,-0.0038802024342119,0.1152567568607628,0.0375245517522096,0.011817242950201,0.0139242699369788,-0.0132242040708661
0.30889990234373954,0.0345197804456576,0.0731888625904917,-0.0243669640153646,0.0223102644085884,0.0064235716126859,-0.0118196569383144
0.3188647460937375,0.0642169630404561,0.019896686733514,-0.0981774656355381,0.0407420024275779,-0.0069074132479727,-0.0046943691559135
0.3288288574218541,0.0605066738130524,-0.0070113400667905,-0.1192266834050416,0.0508642941713333,-0.0219287984073162,-0.0005336427129805
0.3387941894531252,0.0280165360314771,-0.0170915661849081,-0.0910351926654577,0.0559535920619964,-0.0317124500870704,0.0013982141390442
0.34875781249999704,-0.022658150803484,-0.0209343592181801,0.0307177943468093,0.0527388826012611,-0.0291268546134233,0.0025928202085196
0.3587229003906174,-0.0457087349906563,0.0264846868216991,0.1383867264270782,0.0416838340461254,-0.0171556789427995,0.0087338034063577
0.36868701171873397,-0.0482738727709278,0.0642436318516731,0.1883236005067825,0.0293436758220195,-0.0070384410209953,0.0059460243210196
0.3786518554687319,-0.0316531024355441,0.0656803866565227,0.1818710633665323,0.0178412161767482,-0.0068717277608811,0.0070453775115311
0.38861572265624034,-0.0170546682406216,0.0661807373940944,0.1512216580808162,0.0007366482168436,-0.0068536894395947,0.004064290318638
0.39858105468749727,-0.0073664736473932,0.0941406113348901,0.1684066016376018,-0.0101154670119285,-0.0004751519300043,-0.0044532977044582
0.40854492187497726,0.0139869877656921,0.0670816317565739,0.159032624092698,-0.0257732458412647,0.0049999998882412,-0.0111937951296567
0.4185100097656118,0.0031993805631995,0.0188273039363324,0.0948638110429048,-0.0345821864902973,2.38833017647e-05,-0.0156647097319364
0.4284738769531202,0.0037881037039682,0.0034597850650548,0.0732709879159927,-0.031764768064022,0.000943703460507,-0.0163981169462203
0.43843579101562113,-0.0006419146327301,0.0108851127602159,0.0669569824635982,-0.0368546023964881,0.0028337489347904,-0.0142718497663736
0.44839965820311534,-0.0011278349861502,0.0298984407879412,0.000635959815979,-0.0340239554643631,-0.0018320912495255,-0.0157469883561134
0.4583647460937357,0.000209331901744,0.0587421118259429,-0.0337140535533428,-0.0277309082448482,-0.0073498943820595,-0.0082730930298566
0.46832885742185226,0.0275353649184107,0.0362627151228487,-0.058292614492774,-0.020462654531002,-0.0089572798460721,-0.0051486105658113
0.478293945312501,0.0355720294449478,0.0184274909637868,-0.0490232663661241,-0.015570692718029,-0.0109599772840738,-0.0055720531381666
0.48825903320312136,0.0499417329179123,-0.0067240475580096,-0.0500812509864568,-0.0094677079468965,-0.0115180667489767,-0.0015118829905986
0.49822265624997897,0.0596326674574986,-0.0150695588380098,-0.0479056605130434,-0.0038718744181096,-0.0170385334640741,-0.001300161704421
0.5081877441406135,0.0413462289322167,-0.0215504452899098,0.0111538466989994,-0.0003181700594723,-0.00894689373672,-0.0049717067740857
0.5181518554687443,0.0382611223984509,-0.051655076174438,0.0612543869078159,0.0065013859421014,1.33109278976e-05,-0.0074055693112313
0.5281169433593789,0.0435074255540966,-0.0923768165327608,0.0658878919273614,0.0095415487885475,0.0004743996541947,-0.0048108571209013
0.5380808105468589,0.0511240015050396,-0.0889244841217994,0.0238356336176395,0.0084224883466959,-0.009510857053101,-0.0096769854426383
0.5480458984374934,0.0428108946572989,-0.0701211455829441,0.0162619834929704,0.0082122692838311,-0.0140965357422828,-0.0117133222520351
0.5580100097656242,0.0386063556395471,-0.0441984765581786,0.0636047494262456,0.0055309990420937,-0.0060764257796108,-0.0161919612437486
0.5679748535156222,0.0356854997567832,-0.0226946468889713,0.1100099422484636,0.0068984129466116,0.0036193777341395,-0.0224736407399177
0.5779387207031164,0.0305248290579766,0.0141882459588348,0.0926741920441389,0.0051367324776947,0.0040979478508234,-0.0202965065836906
0.5879035644531143,0.0430446668805554,0.047552024769783,0.027195465439558,-0.0001188889145851,0.0017249207012355,-0.0286900140345096
0.5978676757812593,0.0400319314632564,0.0483265162736177,0.0214992996245622,-0.0010627130977809,-0.0028727606404572,-0.0320317484438419
0.607833007812502,0.0317887845791876,0.0557820929765701,0.0111199444293975,0.0034409868530929,-0.0013971582520753,-0.0349426083266735
0.6177968749999962,0.0211189950700849,0.0767056385397911,0.013716975185275,0.0049539278261363,0.0003482773900032,-0.0375192165374755
0.6277617187499942,0.0174801271110773,0.0286183378495275,0.0078583122849464,0.012117501348257,0.0048618782311677,-0.0371935032308101
0.637725830078125,0.0129261170685291,0.0400944022402167,-0.0033691841721534,0.0142578836530447,0.0023984543513506,-0.0351780205965042
0.6476909179687453,0.0229229757521301,0.0371872826218605,-0.0121656540900468,0.024115115404129,-0.0017630415968596,-0.0394582189619541
0.6576557617187433,0.0255040782865136,0.0203548057645559,-0.0498614707559347,0.0351161025464534,-0.00692371558398,-0.032317753881216
0.6676198730468741,0.0340689314056187,0.0297100786089897,-0.0740811352550983,0.0441715456545352,-0.0151277538388967,-0.0296751037240028
0.6775847167968578,0.0253456728544086,0.0555750260971486,-0.0431944140821695,0.0488445945084095,-0.0174979660660028,-0.0291549898684024
0.6875488281249744,0.0181464455327019,0.0432525740101933,0.0136713824778795,0.0476920045912265,-0.017280975356698,-0.0325833037495613
0.6975139160156232,0.0270420649761334,0.0373300520934164,0.057874681341648,0.0428788736462593,-0.0129096619784832,-0.0280609913170337
0.7074777832031174,0.0358100759845226,0.0430753177471458,0.0815811356216669,0.0320592261850833,-0.0149370711296796,-0.0307390391826629
0.7174426269531153,0.0371387307723984,0.032617928879708,0.0917500629365444,0.0233799815177917,-0.0112922685220837,-0.029997881501913
0.7274067382812603,0.0467312464388087,-0.0019371055424213,0.1045358947515487,0.0186190214008092,-0.0081102699041366,-0.0292007680982351
0.7373720703125031,0.0439495067657902,-0.0240989607289433,0.0673076955974101,0.0135920383036136,-0.0126261925324797,-0.0265703629702329
0.7473356933593749,0.0318427432561293,-0.0220354523278772,0.0197387196928262,0.0087233018130064,-0.0172567404806613,-0.025120060890913
0.7573007812499952,0.0376470456207171,-0.0232921743907034,0.0283697699159383,0.0066990326158702,-0.0144729372113943,-0.021489905193448
0.7672648925781118,0.0387409783372655,-0.0399539708562195,0.0597626870453357,0.0043362756259739,-0.014150695875287,-0.0186523087322711
0.777229736328124,0.0467229900671169,-0.0432514049664139,0.0655149669617414,-0.0011220956221222,-0.0153306433930993,-0.0140624837949872
0.7871948242187443,0.0516316587662324,-0.0636177550382912,0.0583019668430089,-0.0038349758833646,-0.0110043808817863,-0.0088567668572068
0.7971586914062385,0.0650131183868274,-0.0537435728862881,0.0549538254588842,-0.0134575087577104,-0.0089952927082777,-0.0065544638782739
0.8071237792968589,0.0588562762575224,-0.0595608808629214,0.0579547608405351,-0.0100954305380582,-0.0106769911944866,-0.0003853212110698
0.8170878906249754,0.0588093318432569,-0.0348427653223276,0.0593903466016054,-0.009192619472742,-0.008938480168581,0.0049290168099105
0.8270529785156242,0.0576578967858105,-0.0354608972206711,0.0347808060020208,-0.0070087658241391,-0.0146763352677226,0.0074502197094261
0.837016601562496,0.0508649852426722,-0.0684764471158385,0.0315641820430755,-0.0112264137715101,-0.007256768643856,0.0072773806750774
0.8469816894531164,0.0487013044027611,-0.0799333684146404,0.0512935493856668,-0.0122151859104633,-0.0064407661557197,0.0049554342404007
0.8569458007812614,0.0378106386845931,-0.1046055989868938,0.067479545032978,-0.0171614754945039,-0.0043616364710032,0.0065296287648379
0.8669108886718533,0.0281725303107872,-0.1042107544504106,0.0700409199535846,-0.0137709369882941,-0.0003716808278113,0.0096927303820848
0.876875976562502,0.0325707652697339,-0.0844070066973566,0.0115431382775306,-0.0193758253008127,-0.0118528343737125,0.0143194403499364
0.8868398437499962,0.044040217256546,-0.0624950346186757,-0.0183843824744224,-0.0227531865239143,-0.0128396097570657,0.0152549967169761
0.8968046874999942,0.0374859002422541,-0.0273088626861572,0.0341056832194328,-0.0315666534006595,-0.0062373671680688,0.0123625379055738
0.906768798828125,0.0199046873768791,-0.0220057878419756,0.0664969637364149,-0.0395242199301719,0.0071021630428731,0.0102753993123769
0.9167338867187453,0.0028524668216705,-0.0328476459823548,0.0798790078788995,-0.0373236499726772,0.0194781385362148,0.0164741743355989
0.9266977539062395,0.0098708942163735,-0.0249554314278066,0.0545206947386264,-0.0296781025826931,0.0259545613080263,0.0186625178903341
0.9366628417968741,0.0599865589290857,-0.0251966928377747,-0.0573988805234432,-0.0156184751540422,0.0140797924250364,0.0197152644395828
0.9466269531249765,0.0790990730149671,-0.0588376811549067,-0.1667366225987672,0.0073707592673599,0.0010977092897519,0.0247071422636508
0.9565917968749744,0.0545902528434991,-0.0798524121329188,-0.170213358798623,0.0245265774428844,-0.0013915474992245,0.0290670040994882
0.9665568847656232,0.0263988351691514,-0.0463496632426977,-0.1365671097844839,0.0376518927514553,-0.0134464893490076,0.0314545705914497
0.9765207519531174,0.0115964758999645,-0.011603928554058,-0.1046767645269632,0.0410511530935764,-0.0144393164664506,0.0273879244923591
0.9864855957031153,-0.020867431461811,-0.0048870413891971,-0.0330243177235126,0.0404189750552177,-0.0096441013738513,0.0247758831828832
0.9964499511718543,-0.0433379142060875,5.845218896865844e-07,0.0443564435988664,0.0355544462800025,-0.0065473774448037,0.0186506137251853
1.006415039062503,-0.0581337706692516,0.041350832042098,0.0467021299421787,0.0299961753189563,-0.004355645738542,0.0146169578656554
1.0163786621093749,-0.041963228319399,0.0424034098349511,0.0413958402276039,0.0234794206917285,-0.0024272508453577,0.0063209449872374
1.0263437499999952,-0.0391264339908957,0.0250561153233051,0.056201779693365,0.0204011648893356,0.0018662509974092,-0.0018242956139147
1.0363088378906156,-0.044806488921307,0.0483605646736919,0.0823041891992092,0.0140543188899755,0.0034737349487841,-0.0078888460993766
1.046272705078124,-0.0439425290357321,0.1068394955188035,0.0450385806441307,0.0172638781368732,-0.000530641991645,-0.0166276320815086
1.056238037109381,-0.047297648149915,0.12583660306409,0.0235860427707433,0.0187904015183448,0.0038864770904183,-0.0229856614023447
1.0662019042968751,-0.0282794247513636,0.086644264230132,0.0296580561608076,0.0163384433835744,-0.0028964246157556,-0.0291101969778537
1.0761667480468589,-0.0141559876570478,0.0452742890961468,-0.0029319617986679,0.0117783136665821,-0.0045438557863235,-0.0346599593758583
1.0861308593749754,-0.0038488209152594,0.011727993325144,0.0026204116314649,0.0073083243332803,-0.0063219768926501,-0.0377335734665393
1.0960959472656242,-0.0019236980715766,0.0333003581859171,0.054646366944909,-0.0030199466273188,-0.0045171529054641,-0.0386196076869964
1.1060598144531184,0.009926168067567,0.0567800179727375,0.0565080691635608,-0.0137299410998821,-0.0040678773075342,-0.0390807203948497
1.1160246582031164,0.0221216327739879,0.0260201380498707,0.0601619154959917,-0.0217844042927026,0.001963916234672,-0.0435335263609886
1.1259899902343733,0.0427028311729431,-0.0362127385012805,0.0661924278318882,-0.0250568967312574,0.0014989741612225,-0.0386758372187614
1.1359538574218533,0.0656335153074935,-0.1134879936225712,0.0571644872456789,-0.0269101914018392,0.001591385807842,-0.0365200079977512
1.145918945312502,0.0656002706250175,-0.1463293559946119,0.0398556250482797,-0.0245295856148004,-0.0042106704786419,-0.0290590152144432
1.1558828124999962,0.0693204601919278,-0.1248088674515485,0.0134685533821582,-0.0260063074529171,-0.0045851105824112,-0.0198391526937484
1.1658476562499942,0.064692763858661,-0.0865346663758158,0.0398883582741022,-0.026630824431777,0.0052843457087874,-0.0206942595541477
1.1758127441406145,0.061453014752455,-0.0717322340413928,0.0367588280767202,-0.0221005231142044,0.0086862668395042,-0.0161945819854736
1.185777099609382,0.0617795798256993,-0.0633377690531313,0.0059743982344865,-0.015432926826179,0.0121256429702043,-0.0095854084938764
1.1957416992187433,0.0759549663029611,-0.0749317607350647,-0.0585877980470657,0.0006323256529867,0.008446485735476,-0.0025408146902918
1.205705810546874,0.0806675279080867,-0.0811560420773923,-0.1316232236415147,0.0157313253730535,-0.0114341136068105,0.0031083654612302
1.2156708984374944,0.0737243577066808,-0.0805706434048712,-0.1818418372720479,0.032494056969881,-0.0205692891031503,0.0056327758356928
1.2256347656249744,0.0673076590647921,-0.0638914574131369,-0.1390332076370716,0.0419950634241104,-0.0312212221324443,0.0102646695449948
1.2355996093749724,0.0432814713111147,-0.0323667305976152,-0.0780009390473365,0.0483227334916591,-0.0349816083908081,0.0086539890617132
1.2455649414062435,0.0171852723503485,0.0041891222529113,-0.0080535425961017,0.0504505299031734,-0.0303514879196882,0.0032558771781623
1.2555288085937377,-0.0019029475444927,0.04749693358168,0.0570540126085281,0.0480286516249179,-0.0233985092490911,-0.0003329985775053
1.2654938964843723,-0.0149287986604496,0.1014673009611666,0.047807460835576,0.0492770373821258,-0.018295794725418,-0.0052694408223032
1.275458007812503,-0.0029254589926451,0.1291455814816057,0.0195130942434072,0.0474431850016117,-0.0118264434859156,-0.0109097491949796
1.2854226074218644,-0.0076729092480614,0.1070107604324817,0.0170838212698698,0.0483736097812652,-0.0145205901935696,-0.0158244892954826
1.2953867187499952,-0.0070286565277725,0.069099401319772,0.0017728548914194,0.0508788451552391,-0.0203153621405363,-0.0197475887835025
1.3053518066406156,0.002235065575689,0.0536760606080293,-0.0173088621973991,0.0544940158724784,-0.0291070882230997,-0.0219084005802869
1.3153168945312643,-0.0127374991612508,0.057785249492526,0.016602175232768,0.0493357367813587,-0.0291824545711278,-0.0318981856107711
1.3252807617187443,-0.0160148768641054,0.0224738437451422,0.0693792411744594,0.0401136353611946,-0.0211313087493181,-0.0326560921967029
1.3352458496093789,-0.0107744919925928,0.0034334815800189,0.1207072773516178,0.0228209309279918,-0.0062002958729863,-0.0402508974075317
1.3452097167968589,-0.0114120227111503,0.0252191969305276,0.1196218202024698,0.0143038183450698,-0.0038065745029598,-0.0419598333537578
1.3551748046874934,0.0040083588585257,0.0542994532033801,0.077662500873208,0.0101514179259538,-0.0145787950605154,-0.0425182953476905
1.3651389160156242,-0.0021542188918218,0.0722892834022641,0.0703963092625141,0.0051101776771247,-0.012771813198924,-0.0401673503220081
1.3751037597656222,0.0012068550391122,0.0400955712839961,0.0923684870958328,0.0033554206602275,-0.0081094168126583,-0.0423841662704944
1.3850688476562425,0.0158904832994565,0.024455811342597,0.0837660784453153,-0.0045576458796858,-0.0112415477633476,-0.0401671454310417
1.3950329589843733,0.0380427304074168,0.018053250823915,0.03427870169878,-0.0075497073121368,-0.0090601537376642,-0.0411714240908622
1.4049978027343855,0.0404226112812757,-0.0054608957543969,0.0364192208588123,-0.0054649813100695,-0.0141744036227464,-0.0383984148502349
1.4149616699218655,0.0255539087776094,-0.0165093823827803,0.0680921239733696,-0.0098791709169745,-0.0102049633860588,-0.037850871682167
1.4249267578125,0.017120280822739,-0.0052481297865509,0.0743394939303398,-0.0107487430796027,-0.0095484694465994,-0.0327434800565242
1.4348981933593734,0.0267835967030376,0.0131311381213366,0.0468996983408927,-0.0065531991422176,-0.0085838716477155,-0.0311032384634017
1.4448623046875042,0.0408159945130348,-0.0056204702302813,0.0262245745807886,-6.38300552964e-05,-0.0122286053374409,-0.0230335034430027
1.4548273925781245,0.0533981204494833,-0.0092230247668921,-0.0006903203517198,0.0059256195090711,-0.0150464959442615,-0.0156954303383827
1.4647915039062411,0.0835646375890821,-0.0031404899828135,-0.0330196415483951,0.003893578890711,-0.0224461108446121,-0.0088796578347682
1.474756347656239,0.0891547492137178,0.0080250471539795,-0.0451829575508832,-0.00276405736804,-0.0271311439573764,-0.007973650470376
1.484720458984384,0.0933132206000387,-0.0008194996893405,0.0127022451847791,-0.0099203884601593,-0.0278613064438104,-0.0090696010738611
1.494685302734382,0.0862160288807004,-0.0178399003341794,0.0741886872828006,-0.0207235012203454,-0.0211802348494529,-0.011911192908883
1.504650390624974,0.07657704372406,-0.0283222775124013,0.101433837082982,-0.0272955577820539,-0.0123376529663801,-0.0119696389883756
1.5146142578124966,0.0605867533119395,-0.0590489858180284,0.1304214466363191,-0.032802440226078,-0.0077117420732975,-0.0178789272904396
1.524579345703117,0.0429870184091851,-0.0834577431485056,0.1292833825170993,-0.0392551757395267,-0.0033080363646149,-0.0150413215160369
1.534543457031262,0.0370888637486845,-0.0812197549633681,0.0874906519263982,-0.039473820477724,-0.0035591721534729,-0.0147230736911296
1.5445085449218539,0.0478851657142862,-0.071304656279087,0.0572457357883453,-0.0415375046432018,-0.0021461441647261,-0.0118034854531288
1.5544724121093623,0.0585403787087649,-0.0490166904948651,0.0089881930977106,-0.0382223986089229,-0.0067108022049069,-0.01505733653903
1.5644372558593744,0.0669850029816851,-0.0501231904320418,-0.0129378075063228,-0.0378787778317928,-0.007463140413165,-0.0094723049551248
1.5744023437499948,0.077574822589755,-0.0557815084546804,-0.0023345804274082,-0.0288354810327291,-0.0026324319187551,-0.009868049994111
1.5843662109375032,0.0787909203812479,-0.0371093950800597,-0.0305266556888818,-0.0207734629511833,-0.0063832765445113,-0.0049600703641772
1.5943315429687317,0.0706437812175601,-0.0031355215467512,-0.0932107831388711,-0.0047771865501999,-0.0180955938994884,-0.002151234075427
1.60429541015624,0.0671604691464453,0.00982391326949,-0.12346329806149,0.0014590215869247,-0.0230062715709209,0.00253492500633
1.614260253906238,0.0695802071066573,0.0026999066084623,-0.1153863745898008,0.0082205198705196,-0.0202166102826595,0.0007767062634229
1.624224365234383,0.0666177771044895,-0.000417640890181,-0.0520920062869787,0.0142210535705089,-0.010427844710648,0.0007473700679838
1.634189453124975,0.0661364233283326,-0.0253514450080692,0.0078875383794307,0.0191441737115383,-0.0102715175598859,0.0023780236952006
1.644154296874973,0.0493892501343041,-0.0526350271224975,0.0264613059461116,0.0256737601011991,-0.0075552011840045,0.0067961020395159
1.6541181640624956,0.0401858433833345,-0.0756225194782018,0.0470358919411897,0.0273411627858877,-0.0066851456649601,0.0093511389568448
1.6640834960937383,0.0323145620189607,-0.0808048905521631,0.0639934564828872,0.0304495524615049,-0.0062989611178636,0.0148082002997398
1.674047363281261,0.0424593412732705,-0.0635229163616895,0.0871007758259773,0.0210941340774297,-0.0010509360581636,0.0175664369016885
1.6840124511718528,0.0505718840476125,-0.0209732299238443,0.1006371337473392,0.0161094423383474,-0.0018667278345674,0.0186619702726602
1.6939775390625016,0.05195314580556,0.0186776663325726,0.1112836154460907,0.0089567247778177,0.0012536979047581,0.0175674110651016
1.7039411621093734,0.0309878069272264,0.0546226938083767,0.1084586211532354,0.0031087989918887,0.0036466703750193,0.0138703826814889
1.7139064941406161,0.0068637482896447,0.1097147586941719,0.1080523784399032,-0.0068892398849129,0.0060879904776811,0.0066372375003993
1.7238706054687327,-0.0066566814102232,0.1036757707908749,0.097735567086935,-0.013959776610136,0.0144607163965702,0.004825887735933
1.7338354492187449,-0.0181511217078194,0.0506336241722106,0.1061900916993617,-0.0127416467294096,0.0173220168799161,0.0036871202755719
1.743799316406239,-0.023245266509056,0.0011108838513493,0.0674567486792802,-0.0134273581206798,0.0196571797132492,0.0023732986301183
1.7537644042968736,-0.0284429082173854,-0.0076898238502442,0.0254039058476686,-0.0064541371539235,0.0125414803624153,0.0017884685657918
1.7637292480468574,-0.0239111465392634,0.006617810704559,0.0041033436655998,-0.0058353710919618,0.006777144037187,0.0043157460168004
1.773693359374974,-0.0034528804002329,0.0388220442168414,-0.0063309565871953,-0.0006057219579815,0.0041009336709976,0.0063373520970344
1.7836586914062593,0.0048905485205352,0.0770084208786487,-0.0222334591180086,0.0046605658717453,-0.0030452024657279,0.0076684616506099
1.793622314453117,0.0265940654803067,0.1084545295000076,-0.0378337638318538,0.0025833002291619,-0.0056524369865655,0.0078178653493523
1.8035874023437373,0.068278732586652,0.0924915289536118,-0.049860886234045,0.0089389663189649,-0.0109281316399574,0.0084427427500486
1.8135515136718539,0.0788583230616524,0.0333037191867828,-0.041166123124957,0.0102143548429012,-0.0177879016846418,0.0085926782339811
1.8235163574218518,0.0647583033755421,-0.0326117913998663,-0.0207844293534755,0.0090890899300575,-0.0151652693748474,0.0101470109075307
1.833481201171864,0.0425923565357923,-0.1094558154970407,0.0641015930324792,0.0072078318335115,-0.0064053339883685,0.0146608026698231
1.8434453124999948,0.0276093800026923,-0.1353942666128277,0.1151724395781755,0.0028729490004479,0.0074287950992584,0.0159223545342683
1.853410400390615,0.0240024050192907,-0.1095002391606569,0.1207177987456321,0.0060314587317407,0.0163514502346515,0.0155122280120849
1.8633745117187317,0.0377026117328554,-0.1035365084506571,0.0569184035301208,0.0054245362989604,0.0112340906634926,0.0223658066242933
1.8733395996093805,0.0570171146642416,-0.1372188516914844,-0.0201554838001728,0.003976575564593,0.0058747450821101,0.0237591732293367
1.8833041992187418,0.0798382374770939,-0.1443874281466007,-0.0438140072852373,-0.0023890249431133,-0.0005963251460343,0.0293816644698381
1.8932683105468584,0.0708823026811704,-0.0702463793978095,-0.0303045373708009,-0.0004294710233807,-0.0069990972988307,0.0291483718901872
1.903233398437493,0.0430333417689427,0.0065207800708711,0.0366126976042985,7.09923915565e-05,-0.0052414825186133,0.0326397605240345
1.9131975097656237,0.0474987967452034,-0.0046739831604063,0.1036339774757623,0.002857991028577,0.0083954995498061,0.0326096676290035
1.9231623535156217,0.0485513014728203,-0.0015412380926311,0.0871954683721065,0.003839545417577,0.015710137784481,0.0303754732012748
1.9331264648437383,0.0385807462742552,0.0530365936607122,-0.0056885670304298,0.0108641665428876,0.0096852676942944,0.0283224396407604
1.9430913085937362,0.0393335374029353,0.0591845948964357,-0.0937578956276178,0.019361924380064,-0.0049464772455394,0.0287408828735351
1.953056396484385,0.0128087012339383,0.0463356347173452,-0.107497082644701,0.0245324503630399,-0.0112701533362269,0.0267203412950038
1.9630205078125016,-0.0166106873327866,0.0668564446985721,-0.0536614475607871,0.0262092743068933,-0.0089338114485144,0.0271443556994199
1.9729853515624995,-0.0321579466851428,0.1004822354465723,-0.0151268419831991,0.0273594949394464,-0.008082665503025,0.0239134095609188
1.9829494628906161,-0.0492822095632553,0.1014509343482553,0.0212409409493207,0.0322998166084289,-0.0029290849342942,0.0181013196706771
1.9929145507812365,-0.0475480061817914,0.0665256053090095,0.0551782818645238,0.0280843023210763,0.0005612540990114,0.017063220962882
2.002878417968745,-0.0451307524396106,0.0644401773370802,0.0653951399743557,0.021682932972908,0.0023882796522229,0.0096864514052867
2.012843261718743,-0.0266246067490428,0.0778857882350683,0.0391699808716774,0.0081623308360576,0.0036239863839,0.0055532255209982
2.022808105468741,-0.010007964599505,0.0856032307446002,0.0407481899738311,-0.0020063924603164,0.0021040656138211,-0.0043431594967842
2.0327722167968574,-0.0137890905734151,0.0395746161498129,0.0623065263092517,-0.0134625127539038,0.005224491469562,-0.014335605315864
2.0427375488281143,-0.0232505637386813,0.0019714462034404,0.1057785882890224,-0.0247343368828296,0.0137646244838833,-0.0229254346340894
2.0527016601562593,-0.041258989040181,0.0203261641919612,0.1042184993654489,-0.033747274428606,0.0170120820403099,-0.028031513094902
2.0626662597656207,-0.0394500033894553,0.0515945781588554,0.0465367102473974,-0.0383782275021076,0.0164617300033569,-0.0321541875600814
2.0726303710937373,-0.0250714224902912,0.0300268894731998,0.0010509703576564,-0.0367073602974414,0.013335445895791,-0.0359939336776733
2.082595458984372,-0.0020435615915805,-0.0094920509666204,-0.0299421337991952,-0.0358664616942405,0.0103178387507796,-0.0326912179589271
2.092560546874978,0.0237622030552476,-0.0102335169836878,-0.063663786137104,-0.0297214835882186,0.0030798991210758,-0.0307122226804494
2.1025244140625006,0.0483255298929288,-0.0346099794797599,-0.0978302596330642,-0.0217113085091114,0.0002864161506295,-0.0272899344563484
2.1124892578124985,0.0537948646821081,-0.1051739003941416,-0.1025087728381156,-0.0122637441381812,-0.0089246584102511,-0.0208725165575742
2.122453369140615,0.0693873148830607,-0.1266344754435122,-0.0738660311996936,0.0010529006831347,-0.0116668911650776,-0.0161770451813936
2.132418457031264,0.0675404814399778,-0.1154598782174289,-0.0649625937759876,0.0116829071193933,-0.0114391911774873,-0.0110661722719669
2.142382324218744,0.0344789735112339,-0.0802580703243613,-0.0272913270294666,0.0240325108170509,-0.0044816355220973,-0.0053941388614475
2.152347167968742,0.0289351121811196,-0.0402811569839715,-0.0317383695662021,0.0316046774387359,0.0008460180833935,-0.0024518785066902
2.1623124999999987,0.0611447525208815,-0.0349748672693967,-0.0633580811887979,0.0429778583347797,0.0024957722052931,0.0010193968191742
2.1722766113281153,0.0779406602274626,-0.0156800919517874,-0.1171416938245296,0.0505553521215915,-0.009706032462418,0.0013634772039949
2.1822414550781133,0.0788066659396514,0.01229497955814,-0.122407651528716,0.0589818097651004,-0.0116519816219806,-0.0007167365401983
2.1922053222656217,0.0807419813837856,0.0319385683134198,-0.0711468353688716,0.0593735612928867,-0.0011820301879197,-0.0022059762850403
2.202170410156242,0.0616919746074825,0.0378154975228011,-0.0317868848830461,0.0660251379013061,0.0027183617930859,-0.0013777455314993
2.2121342773437362,0.0617640534630045,0.0607620733462274,-0.0352986923962831,0.0678307563066482,0.0007886353414505,-0.0010211486369371
2.222099365234385,0.0669446344386786,0.078700465618819,-0.0480745873391628,0.0644098222255706,-0.0006989098619669,-0.0014667017385363
2.2320634765625016,0.0710845472550019,0.0501031705573201,-0.0426584075093269,0.0607996433973312,-0.0078082187101244,-0.0051216231659054
2.2420283203124995,0.0623943872557953,-0.0070360361166298,0.0242418763309717,0.0537455715239048,-0.0077655781060457,-0.0085607096552848
2.25199340820312,0.0369927829630672,-0.0372653162941336,0.0914753376483917,0.0417741313576698,-0.0022877221927046,-0.0165541879832744
2.2619575195312365,-0.0046640828208997,-0.0404736108161509,0.1440168412685394,0.0269900634884834,0.0091437511146068,-0.0205518119037151
2.271922363281263,-0.0120671986842527,-0.0221210847847163,0.1666822620630264,0.0123887509107589,0.0177572127431631,-0.0228967256844043
2.281886230468743,-0.012878259338811,-0.019410802912712,0.1417798759967088,0.0006791860796511,0.0247809514403343,-0.0282994341105222
2.2918515624999998,-0.0192920719038695,-0.0049970776349306,0.0866337428361177,-0.0027746679261326,0.0297080650925636,-0.0256988573819398
2.301815429687494,0.0045462285948917,0.0262481015868484,0.0219289232134819,-0.0019537908956408,0.0233120340853929,-0.0228680353611707
2.3117805175781143,0.0338577728729695,0.0681866703890264,-0.0612362667292356,0.0082847326993942,0.0085714375600218,-0.0176977757364511
2.3217453613281123,0.0758289287704974,0.0966219067566096,-0.1491349149346351,0.0250084791332483,-0.0092207789421081,-0.014932888559997
2.3317092285156207,0.0887573839265853,0.0724042880840599,-0.1680348457157612,0.0283044073730707,-0.0168275665491819,-0.0155174518004059
2.341674316406241,0.0690593615703284,0.0024392098456621,-0.0622241087228059,0.0312532782554626,-0.0053040441125631,-0.0134284868836402
2.351638427734372,0.0398694709105417,-0.0511380665630102,0.0525754058897495,0.0353444255888462,0.0042372634634375,-0.0078550241887569
2.361603515624978,0.0148951521191745,-0.0860033359780907,0.0510381133198738,0.0382479093968868,0.0036826962605118,-0.0057732248678803
2.3715673828125006,-0.0016997896552085,-0.1049962057396769,0.0067991586208343,0.0371128693222999,0.0022432575933635,-0.0027731740847229
2.381532470703121,-0.0142383687108755,-0.0697835841916501,0.0035334348231554,0.0411463715136051,-0.0008470551110804,5.84791414439e-05
2.391497314453119,0.0076477382741868,-0.0202457924321293,-0.0082709847390651,0.0404941625893116,-0.0048218229785561,0.004988522734493
2.401461425781264,0.0101641415419057,-0.0139566291600465,-0.0391319869488477,0.0355103425681591,-0.0103912139311432,0.0019262344576418
2.411426513671856,0.0068816858051344,-0.060544631203264,-0.0115565822809934,0.0203926432877779,-0.0084361871704459,-0.0016064490191638
2.4213903808593784,-0.0197863582268357,-0.0259312907226383,0.0580617283463478,0.0079658478498458,-0.0033612914849072,-0.0092728706076741
2.4313554687499987,-0.0640462461160495,0.0408824838779866,0.084147186717391,0.0024909204803407,0.0027631798293441,-0.0143451271578669
2.4413161621093735,-0.0866271304322406,0.0796294170320034,0.100005265584588,-0.0029480135999619,0.0047524110414087,-0.0203631669282913
2.4512810058593715,-0.0919770766254514,0.0605763415157794,0.0916758286565542,-0.0045818630605936,0.0094406399875879,-0.0273403842002153
2.4612451171875023,-0.0566712969012558,0.0278987914033234,0.0426882181257009,-0.0059278681874275,0.0066922800615429,-0.03293277323246
2.4712102050781226,-0.0444339658144861,0.0494984826624393,-0.0205593884259462,-0.0013458998873829,0.0063173067755997,-0.0398721694946289
2.4811750488281206,-0.0301218742802739,0.0386667075246572,-0.0644423692941665,0.0032397112809121,-0.004892692901194,-0.0441913232207298
2.491139160156237,-0.0276885461861267,0.0164528298899531,-0.0752922646105289,0.0051364148966968,-0.0094719985499978,-0.0484622344374656
2.5011040039062635,-0.0421048652797937,-0.004300619803369,-0.0402525154113769,0.0101617835462093,-0.0095413262024521,-0.0500325597822666
2.51106811523438,-0.0409208065943792,-0.0051214346669614,-0.0028998130947351,0.0130949895828962,-0.0080488910898566,-0.0554640740156173
2.521032958984378,-0.0586205678055062,-0.024068711721152,0.0207955352693796,0.015504203736782,-0.0078379791229963,-0.0560466423630714
2.5309970703124947,-0.0656491512680426,-0.0340877091713249,0.0601227525293827,0.0170653481036424,-0.003211268922314,-0.0551041513681411
2.5409619140624926,-0.0681327482447028,-0.0242300397627055,0.0608183335781097,0.0166886039078235,-0.0049169408157467,-0.0540805533528327
2.5509272460937353,-0.0392658059289678,-0.0136349959902465,0.0383773691892623,0.0138747077435255,-0.0102014504373073,-0.053486131131649
2.560891357421852,-0.029464835143648,-0.0235129775345325,0.0217149882018566,0.0126609969884157,-0.0171030648052692,-0.0567672625184059
2.5708559570312417,-0.008840016798675,-0.0233913969814777,0.0304179346174001,0.0062872529961168,-0.0236083678901195,-0.0592754259705543
2.5808200683593725,-0.0182333566311746,-0.0212101074196398,0.0640723669379949,-0.0049984212964773,-0.0243366155773401,-0.0671931654214859
2.5907851562499786,-0.0187968722654506,-0.0350780353829264,0.122983990111947,-0.0204604677855968,-0.022779731079936,-0.0729325413703918
2.6007490234375013,-0.0407040220385417,-0.0568884467832744,0.1661573614060878,-0.03353888168931,-0.0122922994196414,-0.0751733183860778
2.6107141113281216,-0.0720131333420053,-0.0587066021211445,0.1791752484112977,-0.042772326618433,-0.0102358050644397,-0.0769118294119834
2.6206789550781195,-0.0865970275549218,-0.0578201746754348,0.1493447582930326,-0.0453480966389179,-0.0018528576474636,-0.0793939903378486
2.6306430664062646,-0.083834942430444,-0.0174365802302956,0.0724538263142108,-0.0468743555247783,-0.0097105149179697,-0.0785029008984565
2.6406081542968565,-0.0602732303833588,0.0179760939344763,-0.0123392570912837,-0.0434594117105007,-0.0228275470435619,-0.0791209563612937
2.650572021484379,-0.0470728994833305,0.0509470740355551,-0.0563005638927221,-0.044165950268507,-0.029964817687869,-0.089243896305561
2.660536865234363,-0.0516954081848263,0.0824948894657194,-0.0571446135014295,-0.0428161546587944,-0.0289214868098497,-0.0916274189949035
2.6705009765624936,-0.0492256570704281,0.143771342074871,-0.0412193146169185,-0.0372970178723335,-0.0289601031690835,-0.0991785451769828
2.680466064453114,-0.07572378789559,0.1612770420186221,-0.097226448521018,-0.037463791668415,-0.0387881621718406,-0.1050105914473533
2.690430175781259,-0.0996013244261965,0.1251635261081159,-0.0971229881465434,-0.0342570804059505,-0.0373034477233886,-0.1157884001731872
2.7003950195312427,-0.1196121390586718,0.0853814046874642,-0.0451893872916698,-0.0342462062835693,-0.0296399127691984,-0.1160009428858757
2.7103598632812407,-0.1233618104483932,0.0440143521629273,-0.0438601845145225,-0.0297774206846952,-0.033677265048027,-0.1302147656679153
2.7203239746093715,-0.147580853893049,0.0402592374131083,-0.0556540826827287,-0.0231694094836711,-0.0408776067197322,-0.137512668967247
2.7302890624999776,-0.1787161064669489,0.0354325479090213,-0.0086474168360233,-0.0142701920121908,-0.0390062034130096,-0.1459586173295974
2.7402529296875002,-0.1828436712583526,0.0642703737281262,0.0368920990675687,-0.0103376638144254,-0.034667745232582,-0.1552309244871139
2.7502180175781206,-0.1904335783980786,0.0879419028252363,0.0233142400920391,-0.0041295695118606,-0.042028721421957,-0.1662689298391342
2.760182128906237,-0.1971106450092047,0.0869217659972608,-0.0136316349893808,0.0026893378235399,-0.0504851788282394,-0.1771295517683029
2.7701472167968575,-0.1916277566187083,0.0899178790733218,-0.0213508310645818,0.0155007410794496,-0.0543749928474426,-0.1881036460399627
2.7801120605468554,-0.1788642827659845,0.0982936393611133,-0.0288724587410688,0.0202124770730733,-0.0648208260536193,-0.2016799449920654
2.790075927734378,-0.1954706957824528,0.118645960907638,-0.0489852724432945,0.0200902372598648,-0.0676126182079315,-0.2166242748498916
2.8000410156249984,-0.2131994273597374,0.1338872230507433,-0.0156511581182479,0.018106110394001,-0.0651690512895584,-0.2317296862602234
2.810005126953115,-0.2260880619620904,0.0964220002703368,0.0179360541850328,0.0086937006562948,-0.0637866035103797,-0.2469198107719421
2.8199702148437353,-0.2169236355146393,0.0479281646057963,0.0064765025377273,0.0035146954469382,-0.0645127296447753,-0.2539242804050445
2.829934082031258,-0.2070931829065084,-0.0318770473845303,0.0003664952248334,-0.0007572816684842,-0.0695684775710105,-0.2661196887493133
2.8398989257812417,-0.1959911394599825,-0.085666212978214,-0.021413959428668,0.0005375617183744,-0.0701769292354583,-0.2681137919425964
2.849864013671862,-0.1735697565544396,-0.1114103105656802,-0.0479927542746067,0.0070378049276769,-0.0839140489697456,-0.2751631736755371
2.8598281249999786,-0.1579125705542042,-0.0840647691309452,-0.0723661480307579,0.006809261161834,-0.0974106565117836,-0.2829159200191498
2.869793212890613,-0.1493608691776171,-0.006896773776412,-0.0598170475810766,0.0122897792607545,-0.096864178776741,-0.2919144928455353
2.8797570800781216,-0.132438814340718,0.0579025922618806,-0.0333721082478761,0.0103845540434122,-0.098224252462387,-0.2976517379283905
2.8897219238281195,-0.0981516370745375,0.0906527692191302,0.014028525352478,0.0085562951862812,-0.0887963995337486,-0.3064074218273163
2.8996860351562646,-0.0652637321470305,0.0710560883454978,0.0229652805238962,0.0088779591023921,-0.0825118422508239,-0.3152270317077636
2.9096511230468565,-0.0343030689550563,0.0305246098622679,0.0236544318318367,0.009022569283843,-0.0889601558446884,-0.319341093301773
2.919614990234379,0.0031959464970976,-0.0615244360208511,0.0078793550729751,0.0111434161663055,-0.0936098173260688,-0.3225620687007904
2.929579833984363,0.0179079240690916,-0.1425714647658169,0.025600889724493,0.0137820765376091,-0.0960769727826118,-0.3186394870281219
2.9395451660156198,0.0318592559995129,-0.1818497283175587,0.0795394006609916,0.0089459139853715,-0.0888917371630668,-0.3154083490371704
2.9495092773437364,0.0445447692451998,-0.1703581740967929,0.1036889225333929,0.0078324470669031,-0.0815661773085594,-0.3154632151126861
2.9594741210937343,0.0511740146592259,-0.1385175131998956,0.0799614254653453,0.0075494716875255,-0.0720071718096733,-0.3120709061622619
2.9694379882812427,0.0752867116525769,-0.0486807365387678,0.0452513466119766,0.0098139587789773,-0.0668574199080467,-0.3108328282833099
2.979403076171863,0.1006004184661433,0.0388381185688078,-0.0228933843314647,0.0109658185392618,-0.0672603845596313,-0.3140911757946014
2.9893669433593715,0.1345994264407083,0.0856954390726983,-0.070295771497488,0.0151453837752342,-0.0609542801976203,-0.3149921000003814
2.999332275390614,0.1643049750050529,0.0610161942377686,-0.0735673405140638,0.0276074111461639,-0.0648330971598625,-0.3100281357765198
3.009297119140612,0.1916034989602863,-0.0179185185283422,-0.0847843155771493,0.0444441810250282,-0.0617683343589305,-0.3097138702869415
3.0192609863281206,0.2046922227120026,-0.0988208781056106,-0.0645814855039119,0.0546353012323379,-0.0588405057787895,-0.3030824065208435
3.029226074218741,0.1996285461142659,-0.1456343594677746,-0.0860609113842248,0.0650447979569435,-0.0714335292577743,-0.2973794937133789
3.0391901855468575,0.1632020552644506,-0.0903289440922439,-0.1265472355514764,0.0766447857022285,-0.0824803933501243,-0.2887412905693054
3.0491550292968554,0.1333401105619966,-0.0284838978148996,-0.0967301894366741,0.0876156762242317,-0.0864839255809784,-0.2748164236545563
3.059118896484378,0.1131758954660966,0.0317491832211613,-0.0212882872223854,0.0858121588826179,-0.0739583075046539,-0.2699117362499237
3.069084228515621,0.1113011511027812,0.0721377461023628,0.0262923791199922,0.0849538221955299,-0.067625842988491,-0.2658078074455261
3.079048095703115,0.1214566709468141,0.1013708548493683,0.0128559744417667,0.0817530155181884,-0.0688248202204704,-0.2624031901359558
3.0890131835937353,0.1371281412007287,0.0789538558579981,0.0286404035508632,0.0789519026875495,-0.0698386877775192,-0.2568369209766388
3.098977783203125,0.1460194132626056,0.0137989543803036,0.0286450797259807,0.0734992697834968,-0.0654544681310653,-0.2516330480575561
3.1089418945312417,0.1395409014308825,-0.0276543151229619,0.0456388846248388,0.0697261020541191,-0.0652257055044174,-0.2450361400842666
3.118906982421862,0.135598483948037,-0.0398950802758336,0.0626040479511022,0.0637027770280838,-0.0700447484850883,-0.2391956597566604
3.1288713378906152,0.1223540216453373,-0.0233352828800678,0.0864355899155139,0.0590896420180797,-0.0713584870100021,-0.2322125881910324
3.138836181640613,0.1322615215450525,0.0059980713710188,0.1522901640951633,0.0489347875118255,-0.0539853759109973,-0.2302644699811935
3.1488000488281216,0.1376835831264033,0.0447258614331483,0.1861526862084865,0.0353840887546539,-0.0418868996202945,-0.2244244217872619
3.158765136718742,0.1614344976026564,0.0729115069538354,0.1377022512942552,0.0320569016039371,-0.0333013050258159,-0.2177630811929702
3.1687290039062646,0.1936654364587739,0.0601328355319797,0.0779302118986845,0.026667995378375,-0.0339958555996418,-0.2100955694913864
3.1786940917968565,0.204499988075532,0.0035635377004742,-0.0176110600143671,0.0245207976549863,-0.0482416078448295,-0.2018774598836898
3.1886589355468544,0.2016074815044179,-0.0243973591536283,-0.0697591804027557,0.0196027383208274,-0.0655952990055084,-0.186361625790596
3.1986230468749994,0.1861175783624872,-0.0443678417757153,-0.0749257693856954,0.0181525126099586,-0.0774365663528442,-0.1717948317527771
3.2085881347656198,0.1728044712703675,-0.0664727060779929,-0.0286754748642444,0.0118472129106521,-0.0795274153351783,-0.1589157879352569
3.2185522460937364,0.1638151456614956,-0.0991458722762763,0.0528179824739694,0.0029070493765175,-0.073392815887928,-0.14899542927742
3.2285170898437343,0.1596223701467737,-0.1089217086203396,0.1275344930231571,-0.0058808494359254,-0.0613771714270114,-0.1360402256250381
3.2384809570312427,0.1563396221490576,-0.121206751306355,0.1656231083989143,-0.0185051783919334,-0.0463666766881942,-0.121730551123619
3.248446044921863,0.1715926477951929,-0.1475162276916205,0.1472393104463815,-0.0239524077624082,-0.0394035764038562,-0.113989807665348
3.2584099121093715,0.200980910571292,-0.1135569672055542,0.0885866304695606,-0.0288676656782627,-0.036680694669485,-0.102403774857521
3.268375244140614,0.2115001856938004,-0.0571294159322977,0.0516793338328599,-0.0336760021746158,-0.0249550621956586,-0.0946454554796218
3.278340087890612,0.2279374161558225,-0.0149397949784994,0.0389583839476108,-0.0390198603272438,-0.0165816564112901,-0.089042492210865
3.2883039550781206,0.2298183710642158,-0.0323402809821069,0.0367623352080583,-0.0423192493617534,-0.0134780090302228,-0.0813523456454277
3.298269042968741,0.227907788202539,-0.0283605636961758,0.0128618196606636,-0.0391217730939388,-0.0092419451102614,-0.0722050741314888
3.3082331542968575,0.2261015790307894,0.0051946460336446,-0.0503244120925664,-0.0380040444433689,-0.0160463228821754,-0.0639482140541076
3.3181977539062615,0.2506341454040259,0.0191400231473147,-0.1072007300466299,-0.0352330282330513,-0.0226973015815019,-0.0560820326209068
3.3281621093750005,0.2614671626508236,-0.0369543506488204,-0.0444049589157104,-0.033553697168827,-0.0162193533033132,-0.0483772307634353
3.338127197265621,0.2125445801801979,-0.0936430370762944,0.0371235697358846,-0.0308972783386707,-0.0079453997313976,-0.0377283506095409
3.348091064453115,0.1722480064313858,-0.0779405871622264,0.070295771497488,-0.0195466205477714,-0.0072548426687717,-0.0250828620046377
3.3580561523437353,0.1718881601430475,-0.0461165851391851,0.034472762966156,-0.0151148540899157,-0.007376548834145,-0.0125478953123092
3.3680209960937333,0.186265827726759,-0.0636145401678979,0.0079717095315456,-0.0100433966144919,-0.0034337388351559,-0.0025554499588906
3.3779848632812417,0.1898401790821924,-0.0906944164037704,0.0171323365867137,-0.0047297775745391,-0.0016556724440306,0.0072121853008866
3.3879501953124986,0.1923311556477099,-0.0726164695300161,0.0131178402483463,0.0011773803271353,-0.0033891240600496,0.016379851847887
3.3979143066406152,0.2132811873590573,-0.017676526466012,-0.0239396785140037,-0.0037600793875753,-0.0120494794100523,0.0256002638489007
3.4078789062499766,0.2154311684671789,-0.0123706751428544,-0.021941782695055,-0.0107010761275887,-0.0092092175036668,0.0307116694748401
3.4178430175781216,0.2006407918967306,-0.0778907566711306,0.0490314496725797,-0.0198965761810541,0.0067346272990107,0.037975076586008
3.427808105468742,0.1775610546803102,-0.0974026818707585,0.1171732580065727,-0.0330270268023014,0.019379848614335,0.0410353168845176
3.437772460937495,0.1466807632481679,-0.0697970281951129,0.0855401023805141,-0.0416763387620449,0.0163862612098455,0.0463095977902412
3.4477375488281155,0.153065349718742,-0.0587082095563411,0.0293716404348611,-0.0491004325449466,0.0191721934825181,0.0503030084073543
3.457701416015624,0.1588594229502603,-0.0726281599678099,0.0130962129384279,-0.0488779693841934,0.0208097416907548,0.0549737364053726
3.467666259765622,0.155297602282837,-0.0685742084018886,0.010753449204564,-0.0500739924609661,0.0257879886776208,0.0616870336234569
3.477631347656242,0.1534204832993447,-0.009097498691082,-0.0041314007163047,-0.0528577268123626,0.0195410549640655,0.0691687539219856
3.487595458984373,0.1708203117158263,0.0067250704713165,-0.0280202258259057,-0.0578748546540737,0.0133393518626689,0.0704239010810852
3.497560546874979,0.1662217318791896,-0.0116308165609836,0.0301291808038949,-0.0624361671507358,0.0238321479409933,0.0762547329068183
3.5075244140625017,0.1397172078458592,-0.0252300105854868,0.1245060851126909,-0.0735569968819618,0.0365191809833049,0.0780595541000366
3.517489501953122,0.1174837121952325,-0.0331312852293252,0.1438502525299787,-0.0751314163208007,0.0430703945457935,0.082204632461071
3.5274533691406162,0.1086058841368183,-0.0422042340010404,0.0998813469439744,-0.0760073363780975,0.0380948074162006,0.0883171185851097
3.5374184570312366,0.1352603015022352,-0.0359105406843125,0.0197562553495168,-0.0644283965229988,0.0355753526091575,0.0964418277144432
3.547382324218745,0.1425959050873294,-0.0223712601535022,-0.038974750560522,-0.0572871305048465,0.0313667580485343,0.1021726876497268
3.5573474121093795,0.154882409078069,-0.0144357909791171,-0.0454775565832853,-0.0497648268938064,0.0293753203004598,0.1079552248120307
3.567311523437496,0.153153356795758,-0.013711422227323,-0.0621948826283216,-0.0388967357575893,0.0313165001571178,0.1144285723567009
3.5772766113281165,0.1384609241744503,-0.0341900005020201,-0.0803799431383609,-0.0272927545011043,0.0322717875242233,0.1206154152750969
3.587241210937492,0.1242664676705375,-0.0596000438295304,-0.0959276408821344,-0.0148318232968449,0.0264471862465143,0.1280051618814468
3.597205322265623,0.1262904477788135,-0.0776191001228988,-0.0953963104844093,-0.0062717907130718,0.0264528281986713,0.1314072459936142
3.607170410156243,0.1129922825274988,-0.0631273411728441,-0.0917646759837865,0.003845824394375,0.0241467971354722,0.1376877725124359
3.6171342773437374,0.0976375866051763,-0.06301847397089,-0.0442576593995094,0.0070577706210315,0.0244585182517766,0.1391797065734863
3.6270996093749943,0.0984493779120966,-0.0579435087941586,-0.0248117851734161,0.0092940274626016,0.0315201543271541,0.1447012424468994
3.6370634765625027,0.1059981493238359,-0.0459869674101471,0.0084638769626617,0.0112289059907197,0.0366737768054008,0.1498395055532455
3.6470283203125007,0.1034864587638527,-0.0323677535109221,0.0445540119975805,0.0075907609425485,0.0416080802679061,0.1538824588060379
3.6569924316406173,0.0995389997797086,-0.0509913515686988,0.0589314969182014,0.001094649080187,0.0443893708288669,0.1530084162950515
3.6669575195312376,0.0744084675133228,-0.0492049065433442,0.0807002611339092,-9.47182998061e-05,0.0538220182061195,0.1609140187501907
3.676921386718732,0.0505783868536353,-0.0616806494958698,0.0786538499981164,-0.0039396514184772,0.0583253093063831,0.1630650758743286
3.686886230468744,0.0444542779501527,-0.110648824673891,0.025845219874382,-0.0086188251152634,0.0597418434917926,0.1651735007762909
3.6968515624999725,0.0392522523276507,-0.0985163422010838,-0.0258458043962717,-0.0095174238085746,0.0585139654576778,0.1646544933319091
3.706815429687495,0.0180416334513574,-0.0324674144931137,-0.0269943899095058,-0.0062611773610115,0.0518400855362415,0.1687712222337722
3.716780273437493,0.0080620181635022,0.0190352475985884,-0.0022340426623821,-0.0106217060238122,0.0547716878354549,0.168702632188797
3.726744384765624,-0.0085101637898012,0.029682459949702,0.0425976172327995,-0.0133256129920482,0.0688345059752464,0.1640128046274185
3.736709228515622,-0.016540836966969,0.033881519074738,0.045772740137577,-0.0091695031151175,0.071703627705574,0.162495955824852
3.7466733398437384,-0.005730579541251,0.0351465705744922,0.029720600003004,-0.0046125678345561,0.0701976045966148,0.1631209999322891
3.7566386718749953,0.0149353014664724,0.0051736032456159,0.0087871175676584,-0.0017109639011323,0.0637331828474998,0.1600511223077774
3.7666025390625038,0.0050899070175364,0.0140102590434253,-0.0070060793697834,-0.0018457197584211,0.06180851906538,0.1573288440704345
3.7765673828125017,0.0165327632583677,0.0376113532528281,0.0371767612278461,-0.0045996652916073,0.0604055076837539,0.155469924211502
3.7865314941406183,0.0350118017463013,0.0761786920562386,0.0569675033688545,-0.0024222647771239,0.0672652795910835,0.1553594022989273
3.7964965820312386,0.0596883066348731,0.074505936538428,0.1045025770038366,-0.0004497435875236,0.0761931538581848,0.1532230973243713
3.8064602050781247,0.0963773208783939,0.0125780342832207,0.054665071645379,0.0066963168792426,0.0751603841781616,0.1567659080028534
3.816425292968745,0.135184350189194,-0.0155339614793658,-0.0106008889913558,0.0151694770902395,0.0688677206635475,0.1627568453550338
3.8263903808593795,0.1701212235357612,-0.0585471737757325,-0.0369651643037796,0.0243896059691905,0.0668162927031517,0.1675324290990829
3.836354492187496,0.1904992640454322,-0.088119597479701,-0.0131990887910127,0.0292418859899044,0.0644138529896736,0.17770916223526
3.8463195800781165,0.1719580470414832,-0.0804446789376437,0.034209728115797,0.0258516818284988,0.0648407563567161,0.1779725551605224
3.856283447265625,0.1504559709379449,-0.0659304158948361,0.1144073004245758,0.0248480681329965,0.0704880654811859,0.1862354874610901
3.866248291015623,0.1074124365685507,-0.0799865599066019,0.1577232950598001,0.0160244815051555,0.072053737938404,0.1922156065702438
3.8762124023437394,0.0892396144855767,-0.0712669546172022,0.1591746629118919,0.0050445357337594,0.0743429884314537,0.1967272758483886
3.886177490234374,0.0785174737347289,-0.0673497811734676,0.1440408066660165,0.001031151972711,0.0767896398901939,0.2068579345941543
3.896141357421854,0.0651233372956514,-0.0573497806847095,0.1116863510280847,-0.0088884495198726,0.0688776150345802,0.2169064134359359
3.9061064453125027,0.0659966860640794,-0.0291125511072576,0.0728542238086462,-0.0191528052091598,0.0618138425052166,0.2191645056009292
3.9160705566406193,0.0283072260737419,-0.008376637070626,0.0893774885863065,-0.0345756113529205,0.0583843253552913,0.2162714451551437
3.9260354003906173,-0.0440514327703043,0.0787026575759053,0.1196323415964841,-0.057865485548973,0.066635861992836,0.2118609845638275
3.9359992675781115,-0.081206201362051,0.1441810919195413,0.1591980437874794,-0.0797678530216217,0.0731119066476821,0.2041224092245102
3.945964355468732,-0.1075700382830575,0.1821384821310639,0.1668289770573377,-0.1015820726752281,0.0861584693193435,0.1988344341516494
3.9559284667968626,-0.1134616901375353,0.1970978585928678,0.1351034669727087,-0.1168379560112953,0.0876327753067016,0.1895456165075302
3.965893554687497,-0.1048858407003805,0.1790961918257176,0.0606885697185993,-0.1287793070077896,0.0805232003331184,0.1824078112840652
3.9758586425781175,-0.0882582752980291,0.1314563426420092,-0.0031967502146959,-0.144460991024971,0.0719705745577812,0.1692602336406707
3.985822265624975,-0.081606489258632,0.0630741496808827,-0.0099473935186862,-0.1544201523065567,0.0681305602192878,0.1587215662002563
3.995787353515624,-0.0710157198024913,0.0489693442218005,0.0561415739387273,-0.1596137881278991,0.0795671641826629,0.1501815915107727
4.0057514648437405,-0.0445069945180788,0.0661230158574879,0.1100993740975856,-0.1633158475160598,0.0936281159520149,0.1391425281763076
4.015716308593738,-0.0124382970189675,0.0273529940888285,0.0733341162800788,-0.161699965596199,0.0980149880051612,0.1346140652894973
4.025680175781261,0.0265558888943865,-0.00946487069875,0.0027794015854597,-0.1554687023162841,0.0917581617832183,0.1340968906879425
4.035645507812504,0.0441651588104665,-0.051018093445152,-0.0614244827777147,-0.1498250365257263,0.0828985720872879,0.1288385838270187
4.04560961914062,0.0671060355454683,-0.0840372966021299,-0.0796755942612886,-0.1396791934967041,0.0779658630490303,0.1344605088233947
4.055574462890618,0.1021095443874597,-0.1313767015345394,-0.0766810886204242,-0.1302108168601989,0.0600630044937133,0.135177731513977
4.0655383300781125,0.1350931282417848,-0.1880496058709919,-0.0797504130631685,-0.1225853934884071,0.0585524588823318,0.1308018863201141
4.075503173828125,0.1152427283354103,-0.2012064629554748,-0.0042927287578582,-0.1187691465020179,0.0506921075284481,0.1342636197805404
4.085467285156241,0.0634547830289229,-0.1362768946662545,0.006260813960433,-0.1119810193777084,0.0655805021524429,0.1351938545703888
4.095432617187498,0.019020196159929,-0.0830542769141495,0.0085743515998125,-0.0951615944504737,0.0789784342050552,0.1427232027053833
4.105396484374978,0.007516805370897,-0.060523150023818,-0.0840267752081155,-0.0668386071920394,0.0790737718343734,0.1540560275316238
4.115361328124976,0.0027435996197164,-0.0135119541324675,-0.2929904281616211,-0.0316626131534576,0.0494030229747295,0.1633096635341644
4.125325439453121,0.0172819011252373,0.0266591666057705,-0.4443272370547056,0.0025760512799024,0.011084396392107,0.1738978624343872
4.1352905273437415,-0.0016549276001751,0.0463905797749757,-0.4345259740084409,0.0313978493213653,-0.00251614023,0.1793485134840011
4.145254150390613,-0.0340573870982974,0.0590130377218127,-0.3018693156659603,0.0522879511117935,0.0008208006620407,0.1819650828838348
4.155219238281262,-0.0850324816519394,0.0379249492466449,-0.1641729095906019,0.0661745071411132,4.02093864977e-05,0.1820569634437561
4.165184326171854,-0.1274140449812635,0.0221494340963661,-0.0971533832848072,0.0749701261520385,6.23136293143e-05,0.1762763112783432
4.175148437499999,-0.1472020837085321,0.0176896782085299,-0.0685983199298381,0.079771801829338,0.0014998880214989,0.1736411154270172
4.185113525390619,-0.1607836324784904,0.0493906383737921,-0.0463619382023811,0.0792687386274337,0.0026652873493731,0.166444182395935
4.1950773925781135,-0.1482128316536545,0.0967164531722664,-0.036419805380702,0.0780644863843917,-0.0003955417778342,0.1565635651350021
4.2050422363281115,-0.1372361316198483,0.1531827290207147,-0.0261526783883571,0.06757403165102,-0.0051215873099863,0.1372673660516739
4.215006347656242,-0.123908301882632,0.1528682562440633,0.0048468555092811,0.0542784295976161,-0.0003323669079691,0.1172569245100021
4.224971679687499,-0.1362140950957313,0.1416359374813735,0.0706470691531896,0.0363478995859622,0.0076326155103743,0.0938014015555381
4.234935302734385,-0.1358857764568179,0.1144397413894534,0.1469242531478405,0.0210880227386951,0.0197036005556583,0.0712161734700203
4.244900390624977,-0.1215536285152658,0.1319013099305331,0.1982645642846822,0.007443050853908,0.0392426811158657,0.0459342561662197
4.254864501953122,-0.0838716211790218,0.1068142149470746,0.1895879213541746,-0.0036330968141555,0.0501140058040618,0.0239953733980655
4.26482934570312,-0.0533041585557162,0.0502709283396601,0.109153033158183,-0.0054549649357795,0.0502450317144393,0.0107677187770605
4.274793212890614,-0.0312617650303989,0.0110834118112921,0.0034562779337167,-0.0029010395519435,0.0378035381436347,0.0047342632897198
4.284758300781263,-0.0068909285575151,-0.0184950032420456,-0.0745844086021184,0.001739252358675,0.031693447381258,0.0012636319734156
4.29472241210938,0.009107216367498,-0.054716363441199,-0.0921527985185384,0.0004829270765185,0.0297145899385213,0.0017837788909673
4.3046875,0.0361089128006249,-0.031841245418787,-0.1051449665606021,-0.0036106184124946,0.0255984086543321,0.0078837489709258
4.314651611328117,0.0501526357222348,-0.0046507484152913,-0.0972223568677902,0.007393610663712,0.0218934640288352,0.0129609042778611
4.324616210937492,0.0504929005272686,-0.0467873240076005,-0.0706412239342927,0.017255563288927,0.0155599331483244,0.024820227175951
4.334580322265623,0.0499194845534861,-0.1102585101820528,-0.0340454774647951,0.0243120826780796,0.0237789787352085,0.0370818860828876
4.344545410156243,0.0642374943718314,-0.1500458922997117,-0.02551321144104,0.0360590182244777,0.0201208610087633,0.0486152358353138
4.354509521484374,0.0897808817554265,-0.1621589394196868,-0.0584708936691284,0.0463161841034889,0.0111705083400011,0.0605496615171432
4.364474365234372,0.0881336260050535,-0.1682866285197436,-0.054946811196208,0.0559805296361446,0.0120416283607482,0.0630578249692916
4.374438476562503,0.0659524815961718,-0.14747998733446,-0.0170300452560186,0.0645977705717086,0.0136745776981115,0.0738073512911796
4.384403564453123,0.0485415472637861,-0.1215044190786778,0.0101262572169303,0.0691805407404899,0.0152783337980508,0.0804218426346778
4.394367431640617,0.0373573784917593,-0.0789892194323241,0.0132587100237607,0.0727009996771812,0.0099706361070275,0.0862621665000915
4.404332275390615,0.0243659411020576,-0.035641076093167,0.0235813665956258,0.0682543218135833,0.0105512049049139,0.0816714093089103
4.414297119140613,-0.0204397075690329,0.0289314954519271,0.0630032764017582,0.062597244977951,0.0214390717446804,0.0814579203724861
4.424261230468744,-0.0369137263774871,0.0740939947366714,0.0993850878596305,0.050060149282217,0.030014980584383,0.0791518837213516
4.434226562499973,-0.0439015394382178,0.0889846898764371,0.0722357996493578,0.0405588075518608,0.0254963152110576,0.0762191414833068
4.444189697265614,-0.0383957816287875,0.0984860931932926,0.0115460608869791,0.0275396779179573,0.0207170061767101,0.0698701590299606
4.454154541015612,-0.0213198514044284,0.1049364383764565,0.0145616093158721,0.0144219174981117,0.0192144773900508,0.059909850358963
4.464118652343743,-0.0246857476409524,0.0852865660108625,0.0435778604418039,0.003043295815587,0.0173103157430887,0.0538468956947326
4.4740839843749995,-0.0417741720207035,0.0429527142807841,0.0689724139392375,-0.0101784765720367,0.0160421691834926,0.0456300787627697
4.484048095703116,-0.0659144876733422,-0.0064573594458401,0.1055582235366106,-0.0223906673491001,0.0261507295072078,0.0421836823225021
4.494012695312492,-0.0781974845327437,-0.0330202260702848,0.1293985333293676,-0.0286078564822673,0.0293753445148468,0.040891271084547
4.5039768066406225,-0.0774404556203633,-0.0385227690093219,0.0689578008919954,-0.0313988476991653,0.0209834575653076,0.0408451966941356
4.513941894531243,-0.0574598899956792,-0.0342909766584634,0.0112099608004093,-0.0268110949546098,0.0199517607688903,0.0459410771727561
4.523905761718737,-0.0359247884053736,-0.0394347692877054,-0.0142903911590576,-0.020961994305253,0.0138003909960389,0.0484694838523864
4.533870605468735,-0.0115030254628509,-0.0196681386746466,-0.0421679936438798,-0.0109939239919185,0.0071516977623105,0.0520890057086944
4.543834716796852,-0.0193848647538572,0.023658377354592,-0.0694528909325599,-0.0035200286656618,0.0003901980817317,0.0536149963736534
4.5537998046875,-0.0415728772949427,0.0469457294397056,-0.0659773237764835,0.0032395711168646,-0.0017027896828949,0.0465423762798309
4.563763916015617,-0.048392128855735,0.0461363127529621,-0.0288970086604356,0.0153505615890026,0.0023569329641759,0.0488683804869651
4.573728759765615,-0.0548022881589829,0.0286710909500718,-0.0194166481316089,0.0220700614154338,-0.0023217590060085,0.0453245528042316
4.583692626953123,-0.0553847642220556,-0.0059755672782659,-0.0586298836231231,0.0261902399361133,-0.0035886249970644,0.0391497500240802
4.593657714843744,-0.0502456477679312,-0.0194103645212948,-0.0849801304101944,0.0289601664990186,-0.0189265515655279,0.0305477250367403
4.603621826171874,-0.063746276788786,0.0190304252929985,-0.0502776503413915,0.0301836226135492,-0.0153187671676278,0.0150180328637361
4.613586914062495,-0.079459832618758,0.0599232844345271,-0.0015688567519187,0.0297943241894245,-0.0120028983801603,0.0018015904352068
4.623550781249975,-0.1048055054731667,0.1151720011867582,0.0500508558481931,0.0215707477182149,-0.001911649480462,-0.0108715947717428
4.6335158691406235,-0.1063702705718576,0.1683897966332733,0.0519704257339239,0.0136179458349943,-0.0005187387578189,-0.0266151279211044
4.64347998046874,-0.0966707873996347,0.1534298356495797,0.0273871886193752,0.0067768171429634,-0.0028306287713348,-0.0422524102032184
4.653444824218738,-0.1041603394374251,0.1200816927991807,0.0373275678753852,0.0010397937148809,-0.0007977786008268,-0.0520277880132198
4.663408691406261,-0.0888748728264123,0.0857739111363887,0.0726841279387474,-0.007158481515944,0.0070918360725045,-0.0582934096455574
4.673373779296853,-0.0587595013521611,0.0236304664343595,0.0699520726263523,-0.0067521929740905,0.0032700025476515,-0.0663511157035827
4.683337646484375,-0.0413501744549721,-0.0014003683172166,0.0329845702350139,-0.00730373384431,0.0054194396361708,-0.0665868073701858
4.693302978515618,-0.0043910015005618,-0.0246622937001287,-0.014009820652008,-0.0050134309567511,-0.0005451990291476,-0.0718755424022674
4.703266845703112,0.0157151632651686,-0.0500051170103251,-0.0415308647841215,-0.0062733725644648,-0.0039444575086236,-0.0671146064996719
4.713231689453124,0.0367148428045213,-0.0885053819268941,-0.0432119497388601,-0.0011894796043634,-0.0074160359799861,-0.0667116269469261
4.723195800781241,0.0530475534461438,-0.1001123792208731,-0.0642886400371789,0.00468385592103,-0.0114374095574021,-0.0638029277324676
4.7331608886718755,0.062413347684592,-0.138732178863883,-0.0594160655647516,0.0095153087750077,-0.0103860553354024,-0.0590474791824817
4.743124511718733,0.0587996872320771,-0.1088946744829416,-0.0196989722043275,0.0163250118494033,-0.0032847363036125,-0.0527983717620372
4.753089843749976,0.0807191850300878,-0.0692601448394358,-0.0474666845738887,0.0245459470897912,-0.0065986942499876,-0.0537710785865783
4.763053955078121,0.087978216247633,-0.0303033683270215,-0.0692658439278602,0.0346526429057121,-0.0104147382080554,-0.0519002079963684
4.773018798828119,0.0913407514832913,0.0025556758321821,-0.0620452450245618,0.0376936495304107,-0.0094391861930489,-0.0501702465116977
4.782982666015613,0.0993466555453836,-0.0102441845081746,-0.0525467643171548,0.0464192293584346,-0.0096772732213139,-0.0517529658973217
4.792947753906262,0.0990945074152201,-0.0226645440116524,0.0028045360267162,0.0502648428082466,-0.0087755965068936,-0.0491221100091934
4.802911865234378,0.0741946055669337,0.0003152034290134,0.0453022000163793,0.0537194982171058,-0.0053891204297542,-0.0464136749505996
4.812876708984362,0.0510320489052683,0.0250803729817271,0.0304945069849491,0.0510621853172779,-0.0035759708844125,-0.0399871170520782
4.822840576171856,0.0532512593246996,0.0212030931569635,0.0424690224170684,0.051111452281475,-0.002558643463999,-0.036524474620819
4.832805664062505,0.0592271188639104,-0.0029943595103919,0.0464636450111866,0.0444191545248031,-0.0065472004935145,-0.0303866658359766
4.842769775390622,0.0530172313731163,-0.0222753985635936,0.0545171876072883,0.0374488644301891,-0.010190138593316,-0.0224882625043392
4.852734863281242,0.0413781584404408,-0.0327872940972447,0.0617155746787786,0.0238155387341976,-0.0084734838455915,-0.0189631581306457
4.862698974609373,0.0369162105955183,-0.0241390004783868,0.0986427450597286,0.0126254698261618,-0.0058057950809597,-0.015323681756854
4.872663574218734,0.0196677002832293,-0.0231231014341115,0.1125491053372621,0.0042031295597553,-0.0027566191274672,-0.0146735627204179
4.882627685546865,0.0046481911320239,-0.0226101834759116,0.0930687443196773,-0.0036958060227334,0.0003843128215521,-0.0120918937027454
4.892593017578122,-0.0108379126176238,0.0010717208847403,0.0678781889617443,-0.0075063295662403,0.0023798968177288,-0.0077802273444831
4.902556884765616,-0.0036679479230195,0.0220686239451169,0.0437596467494964,-0.0087305847555398,0.0037761921994388,-0.0065309382043778
4.912521728515614,0.0122038672085851,0.031131489714235,-0.0035357729107141,-0.0090769371017813,0.0061625391244888,0.0013951784931123
4.922485839843745,0.0276345144439488,0.0346365752257406,-0.037329905962944,-0.0103371450677514,0.0015158560127019,0.0031043952330946
4.932450683593743,0.0424198495130985,-0.0072385729514062,0.0055523734301328,-0.0126584842801094,0.0065186875872313,0.002769305370748
4.9424147949218735,0.0233718154981732,-0.0635258389711379,0.0637836131244897,-0.0121900346130132,0.0133033562451601,0.0068386155180633
4.952379638671857,0.0291224879793822,-0.0655935851559042,0.0576595772862434,-0.0120583735406398,0.0157406143844127,0.0097090220078825
4.962343749999974,0.0354671808309853,-0.0695667265705764,0.0146902041316032,-0.0113180140033364,0.0048416284844279,0.0147919300943613
4.972308837890623,0.0472149017699062,-0.1050216324418783,-0.0229687876552343,-0.0102805886417627,0.0039000895339995,0.0179424677044153
4.982272949218739,0.0563403113812208,-0.0991267291843891,-0.0406155035048723,-0.010588982142508,-5.68351242691e-05,0.0200146734714508
