time,ax,ay,az,gx,gy,gz
0.0,0.0293388341438025,0.0557749325834214,0.0169277539253234,-0.0080933729186654,-0.0053748358041048,-0.0123121859505772
0.009964111328130798,0.0260437381211668,-0.0561572098992764,0.0464502010077238,-0.0092017743736505,0.0047702770680189,-0.0105587989091873
0.01992895507812875,0.0207979829547926,-0.1264449442207813,0.079960256421566,-0.0058035813271999,0.0146583272144198,-0.0056718993000686
0.02989306640625955,0.0231560538556426,-0.1253675242476165,0.0251829565733671,0.0012902785092592,0.0011305160587653,0.0052161789499223
0.0398579101562575,0.0433771502379328,-0.0689329587116837,-0.0761170249968767,0.0042905956506729,-0.0138763971626758,0.0113712772727012
0.04982202148437409,0.0376519044589251,-0.0115216570980846,-0.0286830736488103,0.000305532477796,-0.0077498680911958,0.0105281118303537
0.0597858886718825,0.0329040158120915,-0.0091733404062688,0.0597784691363573,-0.0039637805894017,0.0055345119908452,0.010895362123847
0.06975122070312523,0.035230376400426,-0.0769289259016513,0.0733814625531435,-0.0103835090994834,0.0089264884591102,0.0142618641257286
0.07971508789063364,0.023068485170044,-0.1101401444993913,0.054801265245676,-0.0186257250607013,0.0067128688097,0.0141723826527595
0.08967919921875023,0.0162245375594124,-0.0758767865002155,0.0668202043414115,-0.0194299966096878,0.0095379687845706,0.0186627283692359
0.09964404296874818,0.0195509055031463,-0.0294392988435924,0.07478665317595,-0.0202087052166461,0.009513733908534,0.0149819729849696
0.1096079101562566,0.0197097127940505,-0.0178998138278722,0.0817629219293594,-0.0234863404184579,0.0188847016543149,0.0147201772779226
0.11957299804687693,0.0358457683524116,-0.0059084933914244,0.0714291594415903,-0.0283202454447746,0.0235231276601552,0.0124519634991884
0.12953686523438535,0.0509093723736703,0.0381944138377904,0.0233972422003746,-0.0269119776785373,0.0210998710244894,0.0112000368535518
0.13950097656250193,0.0504849729491397,0.034863369718939,-0.0368622884511947,-0.0264166295528411,0.016326954588294,0.0079496493563056
0.14946630859375887,0.0479910737741738,-0.001382832660526,-0.0185626616507768,-0.0282353796064853,0.0209154523909091,0.0058531807735562
0.15943017578125307,0.0423308560553938,-0.0149931326009333,0.0147515789300203,-0.02114631049335,0.0264359191060066,0.0067991353571414
0.16939404296874727,0.0293911853855475,-0.023712445629388,-0.0134124392807483,-0.0137751242145895,0.021565705537796,0.0061602448113262
0.17935913085938182,0.0308153729697689,-0.0074522157020866,-0.0598421820223331,-0.0063928421586751,0.0137469293549656,0.0109688490629196
0.18932299804687602,0.035279585837014,-0.0048139761529862,-0.0658200873881578,-0.000756976660341,0.0097635388374328,0.0093909325078129
0.19928784179687398,0.0270225930906832,0.0090104049295187,-0.0253916308879852,0.006079358048737,0.0121286921203136,0.0071490835398435
0.20925195312500477,0.0192499497951939,0.0606235416583716,-0.0051946460336446,0.0016480423510074,0.0151387071236968,0.0049892477691173
0.21921606445312136,0.0357015375761315,0.1265286769814789,-0.0054383916616439,0.0001055393368005,0.0185632668435573,0.0002440274693071
0.22918090820313353,0.0513621576424688,0.0936396760754287,0.0279173499733209,-0.0053335251286625,0.0230483785271644,-0.0066788564436137
0.2391450195312501,0.0495540487745776,0.0176033150993287,0.0321434432357549,-0.0053995712660253,0.0272098332643508,-0.0084186997264623
0.24911010742188466,0.0639213410947471,-0.0511386510848999,0.0254798936933279,0.002495183609426,0.0248517505824565,-0.0052250185981392
0.25907421875000125,0.0904606441805139,-0.1385414785973727,-0.0208159935355186,0.0053671365603804,0.0061712739989161,-0.0011085704900324
0.26903808593750966,0.0931666517361998,-0.1847058484010398,-0.0535661704927682,0.0041272556409239,0.0050417259335517,-0.0023330859839916
0.2790029296875076,0.0200812860528007,-0.1494572787567973,0.0922825623780489,-0.0088521931320428,0.0233765244483947,0.0003236839547753
0.2889670410156242,-0.0102695016125217,-0.0966183996252715,0.2141758346438407,-0.0167443752288818,0.0478418581187725,0.007711011916399
0.2989309082031326,0.0013914178257808,-0.0342373467750847,0.143594231942296,-0.0245346538722515,0.0503998212516307,0.0116309188306331
0.30889575195313057,0.045804267787002,0.0269327228501439,-0.0286626153826713,-0.0201514475047588,0.0310310088098049,0.0150525467470288
0.31885986328124716,0.0926356135994195,0.0219971661441028,-0.1303378600060939,-0.0141569375991821,0.0176904369145631,0.0175399389117956
0.3288251953125041,0.0940385026672855,0.0002833469860255,-0.0995534301638603,-0.0034473976120352,0.0158539768308401,0.0223104804754257
0.3387890624999983,0.0827378313761204,-0.0136903794392943,-0.0437076243013143,0.0060156127437949,0.0208910796791315,0.0246716365218162
0.3487529296875067,0.0625789865750819,-0.0473204079709947,-0.0478273345798253,0.0199772547930479,0.0181100144982337,0.0300631653517484
0.35871801757812705,0.0326613661626353,-0.0643463615737855,-0.0784749862998723,0.0245733391493558,0.0113072358071804,0.0326461680233478
0.36868212890625784,0.0320137889740988,-0.0503152058728039,-0.0622340455949306,0.0307062231004238,0.0104454634711146,0.0313050337135791
0.37864599609375205,0.0084610274184495,-0.0507294857621192,-0.0174210904002189,0.0274148248136043,0.0095730125904083,0.0314781367778778
0.38861083984375,0.0028769436758011,0.0030292846933007,0.0425467638283968,0.0263529289513826,0.0168373901396989,0.0288445465266704
0.3985749511718808,0.0129035033779218,0.0342839623957872,0.0538905801415443,0.0229251757264137,0.0202978998422622,0.026060476899147
0.40854003906250114,0.02884929706119,-0.0219980429269373,0.062470192438364,0.0175194926559925,0.025696936994791,0.0193184129893779
0.41850390625000955,0.0223912800282239,-0.0428176897242665,0.0936222865492105,0.0094407945871353,0.0208973865956068,0.0138956848531961
0.4284628906249992,0.0100092432411387,0.0295801686190068,0.0948842693090438,0.0026279985904693,0.0280189104378223,0.0139180263504385
0.43842773437499716,0.006731463679485,0.11539718824476,0.0641074382513761,-0.005768415518105,0.0227881968021392,0.0076904902234673
0.44839184570312796,0.0303082271652296,0.1097422312229871,0.0100900168597698,-0.0183818656951189,0.0217976476997137,0.0024986756034195
0.45835571289062216,0.0619384967144578,0.0043605332970619,0.0632259792417287,-0.0191866718232631,0.0302710272371768,0.0021703075617551
0.4683205566406343,0.0761281674453988,-0.1055111695244908,0.101942955648899,-0.0190308783203363,0.0392930172383785,0.0009769452735781
0.4782846679687509,0.0764315343061462,-0.1509125921316444,0.055888475960493,-0.013199184089899,0.0347451902925968,0.0065312534570693
0.48824975585937125,0.076224248231016,-0.1116274604476988,-0.0255500363200902,-0.0102750295773148,0.0220374055206775,0.0085701588541269
0.49821362304687966,0.0700218499269336,-0.0444078815251588,-0.0602016629844903,-0.0080118747428059,0.0163784548640251,0.0137276360765099
0.5081774902343739,0.0482999570602551,-0.0202365862123668,-0.0585404517740011,-0.0037467340007424,0.0243846233934164,0.0161244831979274
0.5181428222656308,0.0351578956861048,-0.0203413617610931,-0.0368085124373435,0.0061969766393303,0.0239095166325569,0.0205330811440944
0.5281069335937474,0.0393354370990768,0.0195953656993806,-0.0470358919411897,0.0166074596345424,0.0185404457151889,0.0257501900196075
0.538071533203123,0.079419610206224,0.0451193907953798,-0.1157522852927446,0.0246187821030616,0.0075996466912329,0.0326427184045314
0.5480356445312538,0.1032762866118922,-0.0012492694087326,-0.0999538276582956,0.031512551009655,0.001130121643655,0.0291419886052608
0.5579997558593845,0.0800596616754308,-0.0572694089248776,-0.0164741649389266,0.0372668430209159,0.0064236866310238,0.033246986567974
0.5679648437500049,0.0423594245627522,-0.074301792268455,0.052738487496972,0.0345642641186714,0.0148182185366749,0.0373557209968566
0.5779284667968767,0.0283105505419895,-0.0487730909973382,0.0691974548667669,0.0293300841003656,0.0139929046854376,0.0388372391462326
0.5878925781250075,0.0451793408216908,-0.0277837867215275,0.0626437954396009,0.0198682323098182,0.0124234212562441,0.0390124730765819
0.5978579101562502,0.0467339863851666,-0.0164613054573535,0.0683943217903375,0.0105527602136135,0.0160943232476711,0.0428580753505229
0.607822021484381,0.0353217079456895,-0.026676994523406,0.08955752132833,0.0048399157822132,0.0190858952701091,0.0391573719680309
0.6177866210937566,0.0251258560912683,-0.0367146966740489,0.0935498058348894,-0.009914263151586,0.0180137082934379,0.0370044708251953
0.6277507324218732,0.0101132516048848,-0.0383427362672984,0.0853384423285722,-0.0159411653876304,0.0210882816463708,0.0354608781635761
0.637714843750004,-0.0009086392775177,-0.0348315132759511,0.1161930147975683,-0.0264215022325515,0.0291869547218084,0.0335575193166732
0.6476796875000019,-0.0117760337179526,-0.0335081557177007,0.135445996800065,-0.0315027348697185,0.0332944653928279,0.0317703038454055
0.6576435546875103,-0.0149830130657181,-0.0113556528814136,0.0507353309810161,-0.0267434008419513,0.0269753187894821,0.0306792072951793
0.6676076660156269,-0.0116540878387168,0.0223377962753176,-0.0418961909651756,-0.0259723179042339,0.0141502982005476,0.0299465414136648
0.6775727539062473,0.0030212109846994,0.0339011005580425,-0.0856505770176649,-0.017548207193613,0.0077472599223256,0.0269467569887638
0.6875366210937557,0.0006807122731581,0.0251820797905325,-0.06740121909976,-0.0136181861162185,0.0080644143745303,0.0245376788079738
0.697501708984376,-0.0200250623535364,0.0267168881423771,-0.0308610022097826,-0.0107819195836782,0.0074034174904227,0.0232835933566093
0.7074658203125068,-0.0204096777569502,0.032245003914088,-0.0248538707494735,-0.0085538197308778,0.001610197359696,0.0192880295217037
0.7174299316406234,-0.0171924692761152,0.0194826991051435,-0.0114233112901449,-0.0039659915491938,0.0059847058728337,0.0129137532785534
0.727394531249999,-0.0109158366920426,-0.0451221672743558,0.0100151980578899,-0.0029600365087389,0.0080621093511581,0.0173287652432918
0.7373586425781298,-0.0069712272521108,-0.0575242604687809,0.0140951608479022,-0.0038396785967051,0.0027389829047024,0.0128368102014064
0.7473237304687501,0.0032284605272114,-0.0084239833436906,0.0017465514063835,-0.0029689124785363,4.21009026467e-05,0.0136195067316293
0.7572878417968809,-0.0021838103124871,0.0050694122187793,0.0293558583438396,-0.0033297706395387,-0.0008724287617951,0.0094865467399358
0.7672517089843751,-0.0192022016633301,-0.0181434133253991,0.0538192684710025,-0.0071705868467688,0.0034301271662116,0.0093989567831158
0.7772167968750097,0.0018318916022777,-0.0340486923351883,0.0507061048865318,-0.0133275492116808,0.0083298105746507,0.0063776005990803
0.7871806640625039,0.0196219979779794,0.0109790746539831,0.0297229380905628,-0.0149097256362438,0.00469092419371,0.0008483123965561
0.7971447753906347,0.0184977066557854,0.0317125044725835,0.0032610476225614,-0.0174679569900035,0.0030378999654203,-0.0017272303812205
0.8071096191406326,0.0106915629494935,0.0021899112597107,-0.0061117608785629,-0.0180151462554931,0.0033677830360829,-0.0025112684816122
0.8170737304687492,0.0052507966676726,-0.0249061854586005,0.0359650473505258,-0.0160041935741901,0.0069848885759711,-0.0020851632580161
0.8270385742187472,-0.0073759355954825,-0.0512019255794584,0.0331137495726346,-0.0164223127067089,0.0042796400375664,-7.87316821515e-05
0.837002685546878,-0.0194172691861167,-0.0190289639882743,0.0156406367242336,-0.0166452191770076,-0.0021670740097761,0.0046012410894036
0.8469667968750088,-0.0112489045713096,0.0222495334699749,0.0328635742038488,-0.0173676516860723,0.0006304567214101,0.0057938224636018
0.8569316406250067,-0.0088684026429429,0.0030978198848664,0.0569984830290079,-0.0190387852489948,0.0080590778961777,0.007294247392565
0.8668957519531233,0.002996807195805,-0.0284159471452236,0.0521434442132711,-0.0217958651483058,0.0068483231589198,0.0092857554554939
0.8768596191406317,0.0146639737118035,-0.0389043156728148,0.0355704950749874,-0.0259698368608951,-0.0007115923799574,0.0108732655644416
0.886824707031252,0.0180513145951554,-0.0561427429825067,0.0276917245239019,-0.0367083065211772,-0.0056880852207541,0.0030619103927165
0.8967885742187462,0.0080240973059088,-0.0713819592989981,0.062078562772274,-0.063361756503582,-0.0067690620198845,5.83971850574e-05
0.9067536621093808,-0.0012391498735174,-0.0977728303574025,0.2098252382189035,-0.0864448919892311,0.0190512388944625,-0.0082032494246959
0.916717529296875,-0.0621237170882523,-0.0973708254277706,0.3676391341716051,-0.1163543239235878,0.0448532775044441,-0.0165328197181224
0.9266816406250058,-0.0788292430976405,-0.0813112326391041,0.2923550528675318,-0.1423965692520141,0.0518027655780315,-0.0215541925281286
0.9366467285156261,-0.0592545183274894,-0.0741382722698152,0.2057552123010158,-0.1680348217487335,0.0559479780495166,-0.0291175711899995
0.9466108398437569,-0.0833132201112806,-0.0186167299255728,0.2020429137796163,-0.1832059770822525,0.0795469731092453,-0.0320220217108726
0.9565747070312511,-0.0991756828926503,0.1393415429338812,0.1218546938210725,-0.1789009720087051,0.083136111497879,-0.0292659178376197
0.9665395507812491,-0.040901334708929,0.2464415890850126,-0.1349906542479992,-0.1583102941513061,0.0576350800693035,-0.0198878496885299
0.9765036621093799,0.0757028912380337,0.204702049986273,-0.4113806607425213,-0.1166805624961853,0.024533586576581,-0.0183578617870807
0.9864687500000002,0.1490287876790389,0.1188444060891866,-0.5131599502623081,-0.0488161221146583,-0.0220615305006504,-0.0002158726565539
0.9964326171875086,0.2405721125297248,0.0482657259970903,-0.6915747356951236,0.0233334396034479,-0.0831328704953193,0.0082234181463718
1.0063964843750028,0.2544376658728346,-0.0373508026205003,-0.7014239295363426,0.1226523965597152,-0.109064944088459,0.0287497248500585
1.0163618164062598,0.2384482522435486,-0.1209853636406362,-0.6971493209570646,0.1771012544631958,-0.1714851856231689,0.0459979511797428
1.0263259277343764,0.1846386649163439,-0.1290432901509106,-0.6258323897182941,0.2216318696737289,-0.177085742354393,0.0453617349267005
1.036290527343752,0.0333565453525632,-0.0266650118246674,-0.2773901234477758,0.2245717346668243,-0.1515132635831833,0.0431678220629692
1.0462546386718827,-0.0536679138341918,0.0474757446631789,0.0576402880638837,0.217815488576889,-0.0943923369050026,0.0351154692471027
1.0562187499999993,-0.1065189948601648,0.0788340288706123,0.2605377728462219,0.2102648913860321,-0.0472152344882488,0.0346904285252094
1.0661838378906339,-0.0388620474336668,0.0046649230711162,0.2042781254857778,0.2011131197214126,-0.0353470481932163,0.0291294902563095
1.0761474609375057,0.0307743468396365,-0.0813191236846148,0.1061620346486568,0.1982968300580978,-0.0325217023491859,0.0275576934218406
1.0861115722656223,0.0526041205275803,-0.0917810425966978,0.0843020850181579,0.1854738742113113,-0.0303391311317682,0.0264016017317771
1.0960769042968792,0.0544118275366723,-0.0734155109532177,0.139662737712264,0.1733168214559555,-0.0099222715944051,0.0254154335707426
1.10604101562501,0.0383879271158948,-0.0699760380238294,0.192964704310894,0.1589256227016449,-0.0005572757218033,0.0239320583641529
1.1160056152343714,0.0278542581418529,-0.067397419707477,0.1799579232215881,0.1466718912124633,0.0004832213744521,0.0242705456912517
1.1259697265625022,0.0208312641698867,-0.0214490307420492,0.1390109958052635,0.1384010165929794,-0.0059292116202414,0.0231192521750926
1.135933837890633,0.033201902780123,0.0254531518168747,0.0508534044027328,0.1291718333959579,-0.0189483407884836,0.0236417651176452
1.145898681640631,0.0415344084480777,0.015986673682928,0.0307838453203439,0.1134931668639183,-0.0271012596786022,0.0185375548899173
1.1558625488281251,0.0173307817682623,0.010264058252424,0.1134387476533651,0.0935793817043304,-0.0227035824209451,0.0153691917657852
1.165826660156256,-0.0315249094786122,0.0110489250198006,0.2170417454689741,0.0666173696517944,-0.0090770497918128,0.0075338911265134
1.1757917480468763,-0.092788940997608,0.0082081486359238,0.2691378434091806,0.0381636247038841,0.0040557966567575,0.0033990673255175
1.1857556152343847,-0.1177027617733925,-0.0029240707531571,0.3067331223100423,0.0092675993219017,0.0151343801990151,-0.0007668710313737
1.195720703125005,-0.1157508605206385,0.0107715693831443,0.323587810999155,-0.025810495018959,0.0245105717331171,-0.0089158779010176
1.2056848144531216,-0.0965265200907364,0.0587437192611396,0.291727860879898,-0.0548511892557144,0.0235300529748201,-0.0133716445416212
1.2156489257812524,-0.0594012333218008,0.0775377054497599,0.2138485023856162,-0.0833901539444923,0.0248192884027957,-0.019327538087964
1.2256137695312503,-0.023990385787934,0.0984276410043239,0.1673199754446744,-0.1055165007710456,0.0293802004307508,-0.0252519939094781
1.2355776367187588,-0.0044607788011431,0.0680598291389644,0.137706342947483,-0.1163643524050712,0.0306590497493743,-0.0216447431594133
1.2455417480468753,0.0100152711231261,0.0227991301767528,0.0697808077126741,-0.1157747358083725,0.0296467449516057,-0.0233832336962223
1.2555065917968733,0.034686259586364,-0.0145072487801313,-0.0232066880643367,-0.1080316007137298,0.0217265039682388,-0.0187682434916496
1.265470703125004,0.0552890487626194,-0.0398306367374956,-0.1268476798027753,-0.0955263674259185,0.004738125950098,-0.0156997554004192
1.2754357910156244,0.064729479139857,-0.0648398441791534,-0.1599491544157266,-0.0827607661485672,-0.0070112077519297,-0.0136203607544302
1.2853996582031328,0.0623372137084603,-0.0799586489863693,-0.1087561427950859,-0.0703956261277198,-0.0092997541651129,-0.00704634655267
1.2953637695312494,0.0366294660760089,-0.0406900300458073,-0.0495300468444824,-0.0646573156118393,-0.0034197608474642,-0.0074548749253153
1.3053286132812474,0.0503781881064176,-0.0339013928189873,-0.0285170694321393,-0.0523595102131366,0.0051596304401755,-0.002866574563086
1.3152927246093782,0.0679770462263375,-0.0400954251535236,-0.0166869309067726,-0.0454302318394184,0.0043702693656086,-0.0013554967008531
1.325256835937509,0.0696547336475923,-0.0402655210234224,-0.0159878427267074,-0.036370538175106,0.0084385341033339,0.0024797599762678
1.335221679687507,0.073382704662159,-0.031373043385148,-0.0262795196384191,-0.0256039109081029,0.0050230296328663,0.0059213628992438
1.3451855468750011,0.0786371545916423,-0.0294493818461894,-0.0784948600441217,-0.0151526806876063,-0.0052707679569721,0.0112966708838939
1.3551506347656215,0.0875739828282967,-0.0221155318267643,-0.1045294650107622,-0.0064225727692246,-0.015281056985259,0.0109925381839275
1.3651147460937523,0.0721552817590534,-0.0103998134613037,-0.0700946959674358,-0.0017830897122621,-0.0128602711483836,0.0099075809121131
1.375078857421883,0.0568596590802073,-0.0090304248042404,0.0027934301108121,0.0024177804589271,-0.0018483668100088,0.0091682877391576
1.385043701171881,0.0358806570027023,-0.023207126455754,0.0442816247969865,0.0064909141510725,0.0070619639009237,0.0085392398759722
1.3950075683593752,0.035666027871333,-0.0374703373469412,0.0243126034796237,0.0104797957465052,0.0051588690839707,0.0108194388449192
1.4049726562500098,0.0583409106139093,0.0227748725183308,-0.0266805016547441,0.0138718467205762,0.0009155797306448,0.0085054598748683
1.4149367675781264,0.0596097980385646,0.0586025572247803,-0.0401297658145427,0.0251253005117177,-0.0074059991165995,0.0097840437665581
1.4249050292968803,0.0656385933414101,0.0390688585847616,-0.019418401697278,0.0268715508282184,-0.0072703794576227,0.010777099058032
1.4348701171875007,0.0627541970115155,0.0227547065131366,0.0455067826777696,0.0313248895108699,0.0014839635696262,0.0142932701855897
1.4448342285156315,0.0742799092302098,0.0004417524181306,0.0889993029236793,0.0277383178472518,0.0106605011969804,0.0129699502140283
1.4547980957031257,0.0634623452808707,-0.036799306217581,0.1063297924309968,0.0242690183222293,0.0160225089639425,0.0132493153214454
1.4647629394531236,0.0351592473929747,-0.0437668071426451,0.1258311962366104,0.0180585347115993,0.0190239194780588,0.0172323249280452
1.4747270507812544,0.0340746670266613,-0.0496321920447051,0.1144032087713479,0.0181900952011346,0.015990313142538,0.0186834800988435
1.4846921386718748,0.0138834543259814,-0.03560746608451,0.0840934107035398,0.0124334869906306,0.0144202690571546,0.0180701650679111
1.4946560058593832,0.0159808284640312,-0.0120464116245508,0.0841875187277793,0.0018458245322108,0.0153063014149665,0.0192755125463008
1.5046201171874998,0.0105108726203441,-0.0184082017414271,0.1296954704493284,-0.0086866319179534,0.0214839093387126,0.0199362654238939
1.5145852050781343,0.0117553197234868,-0.0218096807479858,0.1312871235549449,-0.0220740772783756,0.0218130759894847,0.020697396248579
1.524549316406251,0.005585362384282,0.0076984455481171,0.1254471653550863,-0.0324449501931667,0.0205686073750257,0.0190361011773347
1.5345129394531227,0.0127913847729563,0.020910393820703,0.0949760392457246,-0.0365392938256263,0.0203422401100397,0.0183713771402835
1.5444780273437573,0.0138983231015503,0.0310785904832184,0.0746282477438449,-0.0411795787513256,0.0246893428266048,0.0151084549725055
1.5544421386718739,0.0052552171144634,0.0281030818037688,0.0548965423136949,-0.0424725450575351,0.0188034921884536,0.0113014671951532
1.5644072265625084,-0.0208534029364585,0.0285543327026069,0.0189969614148139,-0.0383000820875167,0.0129598919302225,0.0103312795981764
1.5743710937500026,-0.0259202578719705,0.0422010191306471,-0.0019172317981719,-0.0393861159682273,0.0064713666215538,0.005441715940833
1.5843352050781334,-0.0393499040158465,0.0371152402989566,0.0289823488563299,-0.0432843789458274,0.0148745765909552,0.0030811121687293
1.5943000488281314,-0.0455796287182718,0.0437251599580049,0.0576654225051403,-0.0447533763945102,0.0159193351864814,-0.0008166902698576
1.6042639160156256,-0.0336313437059521,0.0264880478225648,0.0279120892763137,-0.0534453839063644,0.0134746078401803,-0.0087273744866251
1.6142280273437564,-0.016258366763778,0.0004436521142721,0.0251128139466047,-0.0587093867361545,0.0127313192933797,-0.0081068575382232
1.6241931152343767,-0.0044995033763349,-0.031801059538871,0.0388315426975488,-0.0570901185274124,0.0181794576346874,-0.0124760018661618
1.6341572265625075,0.0054548313397914,-0.0146219612009823,0.0266647195637226,-0.0627011358737945,0.0159144401550292,-0.0159618146717548
1.6441223144531278,0.0328679215854033,-0.0264903859101235,0.0133721072703599,-0.0603798329830169,0.0160043612122535,-0.0186563991010189
1.654086181640622,0.0465472316414117,-0.0194106567822396,-0.0091875150620937,-0.0654225274920463,0.0152978263795375,-0.0205925181508064
1.6640502929687528,0.0531206552149727,0.0065054363712668,-0.0128898767113685,-0.0618513002991676,0.0139578711241483,-0.0226786043494939
1.6740151367187508,0.0584367722038179,-0.0359236924268305,-0.0137210668385028,-0.0513733588159084,0.0098486132919788,-0.017665734514594
1.6839790039062592,0.0583289644477888,-0.053127340684086,-0.0317652575731277,-0.046380378305912,0.0120845111086964,-0.0121689699590206
1.6939440917968795,0.0786244412405416,-0.0751299136556685,-0.0720902536988258,-0.0369008556008338,0.0035229809582233,-0.0098424311727285
1.7039079589843737,0.0816904412150383,-0.0796747174784541,-0.0872229409009218,-0.0309345740824937,-0.0070982286706566,-0.0031264773570001
1.7138720703125045,0.0807394971657544,-0.0482956827439367,-0.024683190357685,-0.0234276540577411,-0.0045911287888884,-0.0013160603120923
1.7238369140625025,0.0685607278658077,-0.0371104179933667,0.0154284552782773,-0.0206171348690986,0.0025396503042429,0.0033900178968906
1.7338012695312557,0.0647593262888491,-0.0246700386151671,0.0007628010660409,-0.0142327398061752,0.003538868157193,0.0067554544657468
1.7437651367187499,0.0574377146964892,-0.0115644733265042,-0.0037292496562004,-0.0130466567352414,0.0026308221276849,0.0061125662177801
1.7537302246093844,0.0587509527195245,-0.0141642805613577,-0.0071171385288238,-0.0112218586727976,0.0010720738209784,0.0078518763184547
1.7636940917968786,0.0459358582774177,-0.0380517904967069,0.0035258360385894,-0.0092331087216734,0.0051947021856904,0.0051890006288886
1.7736589355468766,0.0322857377832755,-0.0487505869045853,0.0204039056032896,-0.0065142875537276,0.0079337637871503,0.0085147563368082
1.7836230468750074,0.0254565858829766,-0.0551850038662552,0.0174929865926504,-0.0081892097368836,0.010464197024703,0.0046081230975687
1.7935869140625016,0.0194497101509943,-0.0487972025252878,-0.0030763387054204,-0.00320297293365,-0.0018324165139347,0.0019486905075609
1.803552001953122,0.0124073538914322,-0.0068304305419325,-0.0198959560811519,-0.0046351393684744,-0.0038067181594669,0.0029511111788451
1.8135158691406303,0.0029890988133847,0.0363633990183472,-0.0284416661083698,-0.0055680442601442,-0.0066232774406671,0.0046289027668535
1.823479980468747,0.0177202925425022,0.0315776260465383,0.001467734465003,-0.0061906985938549,0.0015094659756869,0.0015870500355958
1.8334453125000039,0.0055783115889877,0.027263416109234,0.0065185881137847,-0.0087593179196119,0.0113655589520931,0.0012890421785414
1.843409179687498,-0.0097817180955782,0.0166122582353651,0.0045347208201885,-0.0079339332878589,0.0117867235094308,-0.0018321508541703
1.8533740234375102,-0.0216431650746613,-0.0169954123340547,0.0110474637150764,-0.006406876258552,0.0134730376303195,-0.001178344246
1.8633381347656268,-0.0055989525182172,-0.0594422229193151,0.004492635244131,-0.0029758312739431,0.0045362040400505,-0.000206836964935
1.8733020019531352,-0.0051523047292605,-0.0627240210689604,-0.0181985045135021,-0.0042030159384012,-0.0022378128487616,-0.0001788735389709
1.8832668457031332,-0.0125884460793808,-0.0497799299523234,-0.0152560213208198,-0.0045891804620623,-0.0064520267769694,-0.0019706329330801
1.8932309570312498,-0.007123093345575,-0.0455472608186304,0.0050491000831127,-0.0136702936142683,-0.0068283313885331,-0.0036508217453956
1.9031950683593806,-0.0066082391586154,-0.0501475942209362,0.0601408727079629,-0.0175552144646644,0.0008266132790595,-0.0030785324051976
1.913160156250001,-0.0175751849833875,-0.0509134640268981,0.0859556974440813,-0.0213049445301294,0.0106776459142565,-0.0068860538303852
1.9231240234375093,-0.0107673315994441,-0.031954934926331,0.0758598353654146,-0.0236355755478143,0.0145584587007761,-0.0093904715031385
1.9330891113281297,-0.0142435928752645,-0.0299888955503702,0.0377840794712305,-0.0217143706977367,0.0159294549375772,-0.0113963633775711
1.9430532226562462,-0.0186554179681465,-0.021124913354218,0.0075526073366403,-0.0161094851791858,0.0195563938468694,-0.0133750820532441
1.9530170898437547,-0.0084340298136696,0.0046507484152913,-0.0224421334326267,-0.0066446103155612,0.0225018505007028,-0.0081845810636878
1.9629819335937526,0.0049538230150938,0.0342396848626434,-0.108116091325879,0.0052582966163754,0.0043532606214284,-0.008589094504714
1.9729460449218834,0.0106420612519606,0.0315330562524497,-0.1593885979235172,0.0181554518640041,-0.0016566948033869,-0.0118695758283138
1.98291015625,0.0119010483371093,0.0118627256207168,-0.1320727209746837,0.0353114604949951,-0.003362814662978,-0.007816556841135
1.992874999999998,0.0118812111254781,0.0053343467652797,-0.1092097317814826,0.0457915365695953,-0.0108279213309288,-0.007115879561752
2.0028391113281288,0.0067730012662708,0.0048819268226623,-0.0985696798235177,0.0620096512138843,-0.0152466464787721,-0.0092645119875669
2.012804199218749,-0.0056604003818705,0.0149671213768422,-0.0803735133975744,0.0674821808934211,-0.0175297744572162,-0.0105976909399032
2.02276831054688,0.002427738603577,-0.0041999359078705,-0.0584890138477087,0.0681385621428489,-0.0135879199951887,-0.0149924522265791
2.0327319335937517,0.0063351578382775,-0.0166634039007127,-0.0047299511313438,0.0655547678470611,-0.0088514881208539,-0.0164153799414634
2.042697021484372,-0.0014163330713286,-0.0104591424331068,0.0238338800519704,0.0582512095570564,-0.0110339131206274,-0.0166696794331073
2.052661132812503,-0.0109547439303249,-0.0163387019909918,0.0664595543354749,0.0625458285212516,0.0015684313839301,-0.01520227920264
2.062624999999997,0.0036867987539619,-0.0130419985331594,0.0855266583770513,0.0680961161851883,0.0100814923644065,-0.0113233840093016
2.0725900878906316,0.0439253587052226,-0.0093777769371867,-0.0235229144066572,0.0708863139152526,-0.0027509497012943,-0.0084775304421782
2.082554199218748,0.0808486200960353,-0.0163283267274498,-0.1090776298344135,0.0752704069018364,-0.0139993419870734,-0.0104980701580643
2.0925192871093827,0.0655266573995351,-0.0292982829377055,-0.0782949535578489,0.079370878636837,-0.0059898858889937,-0.0071153240278363
2.1024829101562545,0.0327312895936891,-0.0160226217791438,0.0005786766707897,0.0790656208992004,-0.0010450026020407,-0.0042852405458688
2.1124470214843853,0.0170731902780011,0.0013052373796701,0.0127916770339012,0.0808163881301879,0.0024959363508969,-0.0038793748244643
2.1224121093750057,0.0045804596580564,0.0174264972276985,-0.0163058226346969,0.0802745968103408,-0.0097311045974493,-0.0050586084835231
2.1323762207031223,0.0081774612367153,0.0018184475988149,-0.0278548061311244,0.0818993896245956,-0.0119969211518764,-0.0050484887324273
2.1423410644531344,0.0069217986198142,-0.0196288295775651,0.0271755916953086,0.0799759626388549,-0.0067682722583413,-0.0030351257883012
2.152305175781251,-0.0057467634910717,-0.0155878836236894,0.0660194093525409,0.0693683251738548,-0.0079395305365324,-0.003456971142441
2.162269287109382,0.0027330051604658,0.0084850658811628,0.0881114141732454,0.0517731569707393,-0.006865101866424,-0.008529189042747
2.1722341308593798,0.0102465225957334,0.0205408298559486,0.1455705004513263,0.0360882021486759,-0.000839433632791,-0.0149500695988535
2.182197998046874,0.0153508599974215,0.0271567408643662,0.1691939526230096,0.0204329919070005,0.0049208188429474,-0.0197520218789577
2.1921621093750048,0.0073037106094881,0.0485761071205139,0.1260381169855594,0.0072873625904321,0.0052382675930857,-0.0189434885978698
2.202127197265625,0.0153154964230954,0.0570382305175065,0.0531166731595993,-0.0018935250118374,-0.0041803317144513,-0.0243566427379846
2.2120910644531335,0.0060453080462291,0.0497444202475249,0.0403361020416021,-0.0182935371994972,-0.0080320620909333,-0.0258890241384506
2.2220559082031315,-0.0065260773004963,-0.0099983930535614,0.0890378813683986,-0.0238991342484951,-0.001849615946412,-0.0229563564062118
2.232020019531248,-0.0222786134339869,-0.0337799583964049,0.1332148767471313,-0.0366487503051757,0.004823200404644,-0.0214780364185571
2.241984130859379,-0.0344907004816457,-0.025193331836909,0.1145405714154243,-0.0402757003903389,0.0059425551444292,-0.0192572399973869
2.251949218749999,-0.0095828710552304,0.0010623685345053,0.043972997239232,-0.0381028279662132,0.0035606236197054,-0.016958400607109
2.2619130859375076,0.015955474827066,-0.0085955405183136,-0.0228881236344575,-0.0318301171064376,-0.0030042703729122,-0.0123532488942146
2.271877197265624,0.0193608262911438,0.0003586041793227,-0.051897360497713,-0.0263461340218782,-0.0039134733378887,-0.010784912854433
2.281842041015622,0.0291005318759009,0.0182081491246819,-0.0756336253941059,-0.0185216665267944,-0.0051084887236356,-0.0137511603534221
2.291806152343753,0.0422322179865092,0.0105782387681305,-0.0834136117458343,-0.0053973430767655,-0.0096747446805238,-0.0125676523894071
2.301770996093751,0.0322426658265292,-0.0003846154034137,-0.0831266114979982,0.0001559546217322,-0.0156222442165017,-0.014659808948636
2.3117351074218817,0.0265034645874053,-0.0344379839137196,-0.0389928707391023,0.0042361840605735,-0.0131532279774546,-0.0129971969872713
2.321698974609376,0.0124489280108362,-0.051705345056951,0.0041167876690626,0.002426921389997,-0.0181163866072893,-0.0120379254221916
2.331664306640633,-0.0036395255461335,-0.0264667127735912,-0.0095592709839344,0.0011544628068804,-0.0174782946705818,-0.0164342708885669
2.341628173828127,-0.0064325537981465,0.025779022770375,0.0158615859985351,-0.0025981948710978,-0.0183318275958299,-0.0194995757192373
2.3515920410156212,-0.0070024626405909,0.0493472376234829,0.0422930813282728,-0.0093080289661884,-0.0161850545555353,-0.0236309375613927
2.361557128906256,-0.0056357043320313,0.0629514000840485,0.0534153638452291,-0.0169969331473112,-0.0105792833492159,-0.0271473694592714
2.37152099609375,-0.0043146848613396,0.0576934795558452,0.0619523060441017,-0.0210422743111848,-0.0091651445254683,-0.0323160365223884
2.381485839843748,0.0003089563513174,0.0223952255509793,0.080116908288002,-0.0239316057413816,0.0013446343364194,-0.0315570645034313
2.3914499511718788,0.0051329789742827,-0.0173828042164444,0.0777484255909919,-0.0222700592130422,0.005635785870254,-0.0307882092893123
2.4014140625000095,0.0079601286916062,-0.0179085816562175,0.0186363114088773,-0.0197951905429363,-0.0064155682921409,-0.0328907631337642
2.4113793945312523,0.0249883107841014,-0.0176750651612877,-0.046291211053729,-0.019471351057291,-0.0141467256471514,-0.0344947874546051
2.421343017578124,0.0206787404892966,0.037236674721539,0.0156885675191879,-0.0198452677577734,-0.0064741857349872,-0.0389379896223545
2.4313027343750093,0.0086328768540173,0.0544523056775331,0.0410071331709623,-0.0236234944313764,-0.0007111052982509,-0.0394200198352336
2.4412678222656297,0.0025087314179167,0.0107118020199239,0.0321159707069396,-0.0229002647101879,-0.0030234267469495,-0.041629921644926
2.4512319335937462,-0.0095966073196381,-0.0124801268666982,0.0051981531649827,-0.0205854438245296,-0.004898558370769,-0.0388410575687885
2.4611958007812547,0.0046574704170227,-0.036322774747014,-0.0241670575290918,-0.0143935158848762,-0.0122870858758687,-0.0350391119718551
2.4711606445312526,0.0104440179292112,-0.0329927535414695,-0.014069441884756,-0.0143349263817071,-0.0077117751352488,-0.0295197125524282
2.4811247558593834,0.018849698431231,-0.0206257316604256,0.0028612346500158,-0.0150901172310113,-0.0075063183903694,-0.0303479246795177
2.4910898437500038,0.0111103728834539,-0.0238996387645602,0.009841595056653,-0.0195423904806375,-0.006345447152853,-0.028679721057415
2.501053710937498,0.0099290176117792,-0.0340644744262099,0.0289344180613756,-0.0196195058524608,-0.0043464582413434,-0.0314673110842704
2.5110175781250064,0.0034583237603306,-0.0232813607357442,0.0353133054435253,-0.0169124025851488,0.0033018738031387,-0.028406273573637
2.520982910156249,0.0133524161892011,-0.0221318984396755,0.0175654673069715,-0.0157192200422287,0.0012317069340497,-0.0242845006287097
2.5309467773437575,0.0359635129805654,-0.0240776256799697,-0.0541863482177257,-0.0052782958373427,-0.0069513879716396,-0.0218844600021839
2.5409116210937555,0.056927134825848,-0.0360755219876766,-0.1123380929350852,0.0057792998850345,-0.0202605538070201,-0.018955186009407
2.550875732421872,0.0525906399914994,-0.045267420963943,-0.1091220534980297,0.0126678328961133,-0.0285381935536861,-0.0153300911188125
2.560839843750003,0.0407752606438472,-0.0450124232895672,-0.0389963778704404,0.0187948346138,-0.0238493755459785,-0.0184956062585115
2.5708044433593784,0.0195446949580684,-0.042121962545067,0.0257049346208572,0.0166517868638038,-0.0234307274222373,-0.0144028607755899
2.580768554687509,-0.0154098967082798,-0.0232876443460583,0.0573620556443929,0.0116306338459253,-0.0125837437808513,-0.0161535833030939
2.590732666015626,-0.0332135201526805,0.0240235574051737,0.0684130264908075,0.0101549755781888,-0.010335236787796,-0.0188670773059129
2.6006977539062603,-0.0393189974209293,0.0350957171700894,0.0566021771878004,0.0064323246479034,-0.0108091784641146,-0.0235337428748607
2.6106616210937545,-0.0259263588191941,0.0420927364505827,0.0267617501974105,0.0059952996671199,-0.0118693821132183,-0.025021381676197
2.620626708984375,-0.038520394389145,0.0553182748571038,-0.0029389760613441,0.0088223172351717,-0.0163084864616394,-0.0283769331872463
2.6305908203125057,-0.0365903031093999,0.0615010551452636,-0.018429975181818,0.0083642536774277,-0.0199777893722057,-0.0311295762658119
2.6405549316406223,-0.0191174825219437,0.0566986232995986,-0.0251385329097509,0.0135421752929687,-0.0209222398698329,-0.0360056050121784
2.650519531249998,0.0004951265731826,0.0526075545936822,-0.0165565825253725,0.0216339249163866,-0.0204447358846664,-0.035729169845581
2.6604836425781286,0.0077753832418471,0.0280671337075531,-0.023411270725727,0.0285250302404165,-0.022034291177988,-0.0347187630832195
2.6704477539062594,0.0066522609634324,0.0071355509683489,-0.0451613302409648,0.0296097341924905,-0.019222792237997,-0.0376202762126922
2.6804125976562574,0.0028847616560757,0.0151522686854004,-0.0494499673455953,0.0325191542506217,-0.0242251735180616,-0.0381598398089408
2.6903764648437516,-0.0198179224088788,0.0355061976671218,-0.0507084429740905,0.04238723218441,-0.0204272400587797,-0.0391606576740741
2.7003417968750085,-0.0310781520918011,0.0404215883679687,-0.0337368499070405,0.0473691150546073,-0.018596502020955,-0.0409556217491626
2.710305908203125,-0.0099219668164849,0.0137964701622724,-0.0055061962008476,0.0524560213088989,-0.0202932003885507,-0.0389675721526145
2.720269531249997,0.0253777484931051,-0.0054337154865264,-0.0260948107212781,0.0509111993014812,-0.0251565091311931,-0.0365787073969841
2.7302346191406315,0.056191367897205,-0.028485066858679,-0.0507844308197498,0.0483457744121551,-0.0317297242581844,-0.0385941863059997
2.740198730468748,0.0567703733615577,-0.0864295985661447,0.0124678519070148,0.0379888191819191,-0.0288986358791589,-0.0376980155706405
2.750162841796879,0.0246124997416511,-0.1176316692985594,0.106392920795083,0.0340878218412399,-0.0198252461850643,-0.0346231311559677
2.760127685546877,-0.0010879413671791,-0.1006204748734831,0.1070411555707454,0.02378361672163,-0.022245068103075,-0.0306403823196887
2.7700915527343852,0.0029507760969921,-0.1013970122039318,0.079950904071331,0.0166213102638721,-0.0288108251988887,-0.0319762229919433
2.780056884765628,-0.0036832185573875,-0.1045771035447716,0.1023749173253774,0.0079157073050737,-0.0218532979488372,-0.0289540793746709
2.790020751953122,-0.0339240795748308,-0.0658650955736637,0.1323328332155942,-0.0043729161843657,-0.0111359395086765,-0.0321280360221862
2.7999846191406306,-0.0370500295756384,-0.0143713474407792,0.1403062963128089,-0.0114035876467823,-0.0022781370207667,-0.0357610881328582
2.809949707031251,-0.0297928615216165,0.0190590668655931,0.1193318973451852,-0.0148654300719499,0.0026135572697967,-0.0398003049194812
2.8199138183593817,-0.0134454647675156,0.0415931163653731,0.0534913516908884,-0.013231573626399,-0.0028932995628565,-0.044868316501379
2.829877685546876,-0.0058554114973172,0.0664214142821729,-0.0501017092525959,-0.0094972886145114,-0.0126346098259091,-0.0472326725721359
2.839842529296874,-0.0138099872309714,0.0781998226203024,-0.119873164615035,-0.0032123224809765,-0.0260771084576845,-0.0527579225599765
2.8498066406250047,-0.0277522956047207,0.0482782932177186,-0.1140279457181692,0.0027033574879169,-0.0345560796558856,-0.0544224008917808
2.859771728515625,-0.0570690640471875,0.0074488547012209,-0.0372825596898794,0.0012051509693264,-0.0323476158082485,-0.0547592863440513
2.869735839843756,-0.0846461126828566,0.0011009469792246,0.0171755912065505,0.0017558932304382,-0.0292492900043725,-0.0606778934597969
2.87969970703125,-0.0933399624764919,-0.0149829034678637,0.0267220027089118,-0.0005354015156626,-0.0275662578642368,-0.0641109868884086
2.8896647949218845,-0.091597100864537,-0.0194965815000236,0.0315115750730037,-0.0008158325217664,-0.0207597501575946,-0.065258540213108
2.8996286621093788,-0.0688910923313349,-0.0055021045476198,0.0412011944383382,-0.0012492071837186,-0.0217247605323791,-0.0666950643062591
2.9095927734375095,-0.0354971375778317,-0.0352270884647965,-0.0114917003512382,0.001483729109168,-0.0266414880752563,-0.0738174244761467
2.9195576171875075,-0.0130346920095384,-0.0357639718204736,-0.0399976638674736,0.0054428000003099,-0.0288513414561748,-0.0776641145348548
2.929521728515624,0.0022747399989515,-0.0045258068613708,-0.0306897372961044,0.0035042846575379,-0.0269469153136014,-0.0798875838518142
2.9394855957031325,0.0170687698312103,0.0048882104329764,-0.0309668006718158,0.0083605628460645,-0.0319065116345882,-0.0835169404745101
2.9494509277343752,0.0105203345684334,0.0019143091887235,-0.0016278934627771,0.0034060189500451,-0.0270025674253702,-0.0850104466080665
2.9594147949218836,-0.008995609219186,-0.0227700502127408,0.0269634102493524,0.0039686197414994,-0.0184405222535133,-0.0896695852279663
2.9693796386718816,0.0186221367530524,-0.0181637254610657,0.0035562311768531,0.0098336981609463,-0.0235487315803766,-0.0870594233274459
2.979343749999998,0.0274406358396634,-0.0060199909418821,-0.0441799179881811,0.0141223799437284,-0.0227930452674627,-0.0890504345297813
2.9893076171875066,0.0175427074858918,0.0167687639713287,-0.0505997219026088,0.0231832526624202,-0.0261955000460147,-0.0861334726214408
2.999272705078127,0.0176125578517094,0.0008076631210744,-0.0344487975686788,0.0286319106817245,-0.023123349994421,-0.0870482772588729
3.0092365722656353,0.0177339922742918,0.00129135498479,-0.041007717692852,0.0358354933559894,-0.030357826501131,-0.0864820927381515
3.019200683593752,0.0207146155202761,0.0120195236176252,-0.031706805384159,0.043480098247528,-0.0279298238456249,-0.0799658671021461
3.029166015625009,0.0357598071020096,0.0181561266764998,-0.0077092592030763,0.0468628220260143,-0.0295453704893589,-0.0794704779982566
3.039129882812503,0.0433529291121289,-0.0047626843571662,-0.0448293218076229,0.0507042706012725,-0.0377386137843132,-0.0802657306194305
3.049094726562501,0.0456556165639311,-0.0359434200406074,-0.0306529124170541,0.0495165027678012,-0.0419927462935447,-0.0743364691734314
3.059058837890632,0.0374795800993218,-0.0222013104140758,0.0512450340688228,0.0441161394119262,-0.037347137928009,-0.0795956775546073
3.069022705078126,0.014848865292035,-0.0141699796497821,0.1051519808232784,0.0358792468905448,-0.0326583757996559,-0.0843978896737098
3.078987548828124,-0.0018712006993591,-0.0250889946795999,0.1005249055445194,0.0277173705399036,-0.0209193360060453,-0.0867001935839653
3.0889516601562548,-0.01279266341459,-0.0233282686173915,0.0898421834886074,0.0268401280045509,-0.0166162010282278,-0.0882163345813751
3.0989157714843714,0.0025600962789729,-0.0249650760389864,0.0419207408845424,0.0247631389647722,-0.0211025364696979,-0.0842594280838966
3.1088806152343835,0.0113001598345115,-0.0124167062416672,-0.0080687401652336,0.0277027357369661,-0.0271385908126831,-0.0867561399936676
3.1188447265625,0.033127741565369,0.021959464482218,-0.0273871886193752,0.02826689183712,-0.0302952993661165,-0.0891729667782783
3.1288098144531347,0.0285012508084997,0.0538474716521799,-0.0426268433272838,0.0256697796285152,-0.0338037461042404,-0.0911881774663925
3.1387739257812513,0.0298322802165523,0.0704505236677825,-0.0080149641513824,0.0245533715933561,-0.0258283969014883,-0.0897500663995742
3.1487377929687597,0.0313935381839051,0.0600694149069488,0.0323678996413946,0.0269856359809637,-0.0185214821249246,-0.0918611511588096
3.1587026367187576,0.0351512102169916,0.0190296946406364,0.0056499885857105,0.0307179540395736,-0.0161874406039714,-0.0898768082261085
3.168666748046874,0.0370747986907139,-0.0326465704523026,-0.027361469656229,0.0386608317494392,-0.0231657214462757,-0.087319903075695
3.178630859375005,0.0392789576714858,-0.0645239100977778,-0.0332528657823801,0.0445579588413238,-0.0276082325726747,-0.0820095613598823
3.1885954589843806,0.0355902226887643,-0.0660280310504138,-0.0175251352965831,0.0498888045549392,-0.0327790267765522,-0.0793743655085563
3.198559570312497,0.0282453398186713,-0.0332101956844329,-0.0008954875349998,0.0455429852008819,-0.03306545317173,-0.076357290148735
3.208524902343754,0.0249745745196938,-0.0109521866470575,0.0336380657076835,0.0409250631928443,-0.0330225750803947,-0.0733556449413299
3.2184887695312483,0.0300427080968394,0.0381036668144166,0.060358899372816,0.0302069038152694,-0.0334348417818546,-0.0741841495037078
3.2284526367187567,0.0542122498439624,0.0551230445459485,0.0335492183804512,0.0240853615105152,-0.0361038632690906,-0.0736424624919891
3.238417724609377,0.0567019112352281,0.0178814013883471,0.043562662872672,0.0157998129725456,-0.0328019224107265,-0.0711100473999977
3.248381835937508,0.0508432118022814,-0.0227494458161294,0.1040589248895645,0.0071117831394076,-0.0233418382704257,-0.0707888677716255
3.258345703125002,0.0357657253861427,-0.063365387712419,0.129194535189867,0.0028753178194165,-0.0153798703104257,-0.0672591179609298
3.268310546875,0.0247307192938402,-0.0587380201727151,0.0884182881653308,-0.0035077463835477,-0.0180171988904476,-0.0641211196780204
3.278274658203131,0.0252405319795012,-0.0324263518303632,0.0317687647044658,-0.005455675534904,-0.0256066005676984,-0.0637847557663917
3.288239746093751,0.0250176830090582,-0.0102039986282587,0.0117003746658563,-0.0099548194557428,-0.0275264736264944,-0.0618843175470829
3.2982036132812595,0.0288142622804269,0.0201734578482806,0.035932898646593,-0.0071456343866884,-0.0205379165709018,-0.0625809878110885
3.308167724609376,0.0386261928511783,0.0135046476088464,-0.0020762217521667,-0.0116093587130308,-0.0240793898701667,-0.0618321076035499
3.3181328124999965,0.0435762530066072,0.011697159795463,-0.0451233363181352,-0.0058220461942255,-0.0310307834297418,-0.0640119016170501
3.328096679687505,0.0287228576699271,0.0337542394332587,-0.0182294841736555,-0.0028962977230548,-0.0265556052327156,-0.0589343197643756
3.338060546874999,0.0231850972870364,0.0214577985703945,-0.0036088381469249,0.0043460978195071,-0.0307126529514789,-0.0595894865691661
3.3480256347656336,0.0258984113663434,-0.013772066373378,-0.0012315876215696,0.0098790805786848,-0.02860689163208,-0.0629123151302337
3.3579897460937502,0.0423120782896876,-0.0269264392398297,0.0137508774548768,0.0117237661033868,-0.0202085208147764,-0.060894176363945
3.3679548339843848,0.0645450259510427,-0.0140758716255426,-0.0032855975419282,0.0187334716320037,-0.0228234771639108,-0.0597604662179946
3.377918701171879,0.0711302495602518,-0.0100016079239547,-0.0636269612580537,0.0219543855637311,-0.0298031829297542,-0.060182835906744
3.3878828125000098,0.0535032247917726,-0.0176316644109785,-0.0482633879095315,0.0229426845908164,-0.0315534137189388,-0.063693955540657
3.3978476562500077,0.0330059418166056,-0.0049117374390363,0.0055623103022575,0.0181518271565437,-0.0321323201060295,-0.0568514764308929
3.4078117675781243,0.0196541466819122,0.0034096623130142,0.0562415271818637,0.0113546410575509,-0.0264531280845403,-0.0581644177436828
3.4177756347656327,0.0161755838511511,-0.0242637959018349,0.0994546459645032,0.0008754590526223,-0.0193686690181493,-0.0574006251990795
3.427744140625009,0.0006072817107662,-0.0697553810104727,0.1261953533738851,-0.0059329122304916,-0.0067058717831969,-0.0564083345234394
3.437707763671881,0.0080272391110658,-0.0350474941141903,0.0897948372155428,-0.0016443389467895,-0.0066090328618884,-0.0522258318960666
3.4476718749999975,0.0646070948692038,0.0124584995567798,0.0140530752718448,-0.003512280061841,-0.0131960967555642,-0.0473804771900177
3.457636962890632,0.1065327311245724,0.0168878603063523,-0.0282744928479194,-0.0021147346124053,-0.0133821414783597,-0.0474856831133365
3.4676010742187486,0.0984040774656459,-0.0186240364491939,-0.0250035083532333,-0.0035326015204191,-0.0128505742177367,-0.038887932896614
3.477565673828124,0.1024137880310416,-0.0436138085380196,-0.0364361719936132,0.0004894873127341,-0.0191043727099895,-0.034467626363039
3.4875300292968774,0.0898590615581721,-0.0163948160924017,-0.0520879146337509,0.0009137280285358,-0.0223369188606739,-0.0302377268671989
3.497494140625008,0.0923374709030613,-0.0384814140856266,-0.0422808063685894,0.0003941459581255,-0.0165442768484354,-0.029007613658905
3.507458984375006,0.0846880886610597,-0.0410801984071731,0.0295054959475994,-0.0049830428324639,-0.0068138856440782,-0.0240344256162643
3.5174228515625003,0.0741684847449883,-0.0632331396348774,0.0615811346441507,-0.0100991576910018,0.000281207030639,-0.0173890329897403
3.527386962890631,0.0797768261460587,-0.062873950933665,0.0655564680159092,-0.0114488471299409,0.0064299134537577,-0.0106935799121856
3.5373520507812515,0.099938045567274,-0.0526771126985549,0.0632861849963665,-0.0135049968957901,0.0054694488644599,-0.0085260104387998
3.5473156738281233,0.1211552403148263,-0.0435837056607007,0.0419897144675254,-0.0100498115643858,0.008486277423799,0.0021319598890841
3.557280761718758,0.1434930731227621,-0.0386569167830049,0.0053577276408672,-0.0081069273874163,0.0070601268671453,0.0038976019714027
3.5672448730468744,0.1714244516214355,-0.0066993515081703,-0.0304582666277885,-0.0040464056655764,0.0062521239742636,0.0120492717251181
3.5772092285156276,0.1779442087789997,-0.0324044322595,-0.0360129781454801,0.0030302572995424,0.0036320583894848,0.0156272053718566
3.5871740722656256,0.151603497005254,-0.095263477884978,-0.0208072257071733,0.0120679596439003,0.0064265131950378,0.0212382208555936
3.597137939453134,0.1387009434754028,-0.1145375026755034,-0.0050461774736642,0.017569325864315,0.0084978016093373,0.0321313627064228
3.6071020507812506,0.1461988249501213,-0.0783038675166666,-0.0338151758402585,0.0207504704594612,-0.0017415198963135,0.0345726832747459
3.6170668945312485,0.1320176297865808,-0.0679651365928351,-0.0178752639085054,0.0244481079280376,-0.0019788725767284,0.0420404411852359
3.627030761718757,0.0894421513203531,-0.0169151867046952,0.0484708931803703,0.0207207463681697,0.0081789568066596,0.0442825555801391
3.6369958496093773,0.0592624824382364,0.0377529536806046,0.0805693282306194,0.0178187750279903,0.0155701842159032,0.0481079332530498
3.646959960937508,0.072797342522256,0.0523122249089181,0.0537760138511657,0.0171220935881137,0.0134798688814044,0.0510880090296268
3.6569238281250023,0.0933893180435523,0.0047040860377252,0.012648469170928,0.0174506492912769,0.0136411003768444,0.0532243885099887
3.666889160156259,0.0962376566793769,-0.0262684137225151,0.0388192677378654,0.0189878270030021,0.0156983919441699,0.061341967433691
3.6768530273437534,0.0790579007543623,-0.0400132998280227,0.0856283651858568,0.0148763367906212,0.0186878535896539,0.0645628049969673
3.686817138671884,0.054400283229351,-0.0569856235474348,0.0817009626090526,0.0051739076152443,0.0122147761285305,0.0698925927281379
3.696781982421882,0.0221311312546953,-0.0351167599581182,0.1022492451190948,-0.0005405093543231,0.0141169242560863,0.07362712174654
3.7067458496093764,0.0144652728019282,-0.0203358088031411,0.1261889236330985,-0.020002357661724,0.0201615002006292,0.0767584666609764
3.716709960937507,0.032329248131439,-0.0329179347395896,0.1321107148975134,-0.0341550298035144,0.0292594563215971,0.0789135098457336
3.726674804687505,0.0481912359887734,-0.0500409189760684,0.134183429518342,-0.0437871515750885,0.0342510193586349,0.0811156779527664
3.7366389160156217,0.0475972156183794,-0.0577807194478809,0.068926821231842,-0.0487450808286666,0.0285466853529214,0.0855807512998581
3.7466040039062563,0.0565111744360998,-0.042046413090825,0.01710194144845,-0.0415779799222946,0.0240645855665206,0.0926762074232101
3.756568115234373,0.0747073773946613,-0.0435746455714106,-0.0134486796379089,-0.0438945740461349,0.0252360273152589,0.098944753408432
3.7665319824218813,0.0933123803498223,-0.0371010656431317,-0.006046294426918,-0.0407917238771915,0.0273503102362155,0.1020622476935386
3.7764970703125016,0.0883509585501626,-0.0205199331983923,0.0052671267479658,-0.0330444946885108,0.0272546205669641,0.1104030013084411
3.78646093750001,0.0969227893993258,-0.0115462070174515,-0.0179781397610902,-0.0261120200157165,0.0302725136280059,0.1135687008500099
3.7964250488281266,0.0954665261764079,-0.0046847968153655,-0.0301098915815353,-0.0238154083490371,0.0324601083993911,0.1169440001249313
3.8063898925781245,0.1389677411854267,-0.002103694280982,-0.019026772031188,-0.0179852154105901,0.0348047539591789,0.1193440407514572
3.816353759765633,0.1565347793949768,-0.0059960255444049,-0.0225426711976528,-0.0177203863859176,0.0276850126683712,0.120838314294815
3.8263190917968757,0.1608503410391509,-0.028209903179109,-0.0276397020757198,-0.0092217065393924,0.020660925656557,0.1247819289565086
3.836282958984384,0.1628633978946134,-0.04560395944193,-0.0042523967474699,-0.0138476276770234,0.0169647075235843,0.125989943742752
3.8462470703125007,0.1669645130705088,-0.04611687740013,0.058685997724533,-0.0202757008373737,0.0311308596283197,0.1259667724370956
3.8562121582031352,0.1816132892131805,-0.0668862553149461,0.1242524026125669,-0.0218386948108673,0.0456115566194057,0.1248346492648124
3.8661760253906294,0.1606535763580352,-0.0907085910595953,0.0959814168959855,-0.0250544603914022,0.0473761670291423,0.1265457272529602
3.8761398925781236,0.1601363110182806,-0.1036947677522897,0.0339092838644981,-0.0226645600050687,0.0473670810461044,0.1314853876829147
3.886104980468758,0.1514987214565277,-0.0749275229513645,0.0028062895923852,-0.0148348659276962,0.0418154560029506,0.1324792802333831
3.8960688476562524,0.1320806850854307,-0.0452637677021324,-0.0253933844536542,-0.0073851193301379,0.0432894229888916,0.1380559355020523
3.906032958984383,0.1126139142017811,-0.0038122517645359,-0.0176104754924774,-0.0001538377255201,0.0427099168300628,0.1445657610893249
3.9159980468750035,0.090640201998502,0.0288508314311504,-0.0129050742805004,0.0042484747245907,0.0461101867258548,0.1474254578351974
3.9259621582031343,0.0879530087411403,0.0140811323225498,0.006202946293354,0.0073720961809158,0.0462191104888916,0.1501940786838531
3.9359270019531323,0.0710452016253024,0.0088880937241017,-0.0143564421325922,0.0047916658222675,0.0357135534286499,0.1545941531658172
3.9458908691406265,0.0734307450549677,0.0279116508848965,-0.0141629653871059,0.0032970998436212,0.0396587625145912,0.1583265662193298
3.9558549804687573,0.0667314300794154,0.0375371189728379,0.0318283859372139,0.0029658777639269,0.0449053347110748,0.1548602133989334
3.9658200683593776,0.0307183423360809,0.0176813487716019,0.0959597895860672,-0.0055812718346714,0.0558261573314666,0.1530814915895462
3.975783935546872,0.0238631426790729,-0.0103735099762678,0.0972808090567588,-0.0065883789211511,0.0666576996445655,0.1567971110343933
3.9857478027343802,0.0378327409185469,-0.0202972303584218,0.0463935023844242,-0.0073604290373623,0.0637817531824112,0.1613916009664535
3.995713134765623,0.052232145410031,-0.020304244621098,-0.001176642563939,-0.0070069362409412,0.0548960380256176,0.1624771058559417
4.005677246093754,0.0515144621273502,-0.0294127030976116,-0.0002063362270593,-0.0109545402228832,0.0566137768328189,0.1653469353914261
4.015641845703129,0.0406294954976066,-0.0437124466069042,0.0480482838541269,-0.019726313650608,0.0592532530426979,0.165249764919281
4.02560595703126,0.0309247516283765,-0.0576075548380613,0.1024134957700967,-0.0263778232038021,0.063821904361248,0.1704876720905304
4.035570068359377,0.0218492821060121,-0.077766107378155,0.1252028352051973,-0.0329107157886028,0.0670171305537223,0.1700676679611206
4.045535156249997,0.0019539105467498,-0.0878087779648602,0.1459884336024522,-0.038640771061182,0.0727208256721496,0.173025906085968
4.055498779296883,-0.0135776032472029,-0.0944433936737477,0.107655488076806,-0.0463736243546009,0.0731898695230484,0.1760209053754806
4.065462890625,-0.011030695243366,-0.0975624024771153,0.0594295095682144,-0.0461624376475811,0.0706566646695137,0.1759988069534301
4.075427978515634,0.0036962972346693,-0.0416189814589917,0.0303916311323642,-0.0478858165442943,0.0629962533712387,0.1804177463054657
4.085391845703128,0.0325955343848094,0.0051100364901125,-0.0315659356087446,-0.0467302724719047,0.0493675209581851,0.1787018626928329
4.095355957031259,0.0273887595219537,0.0432983128480613,-0.0436386507183313,-0.0473979488015174,0.0403771810233593,0.1730932593345642
4.1053210449218795,0.0153734736880287,0.0718153822802007,0.0035877953588962,-0.0482983663678169,0.0516884252429008,0.1714559495449066
4.11528515625001,-0.0100958620786666,0.0986690485447645,0.0540899021059274,-0.0526869036257267,0.0603862144052982,0.1611082553863525
4.125249755859372,-0.0238302267901599,0.1156543778762221,0.0522054035335779,-0.0528189949691295,0.0625822618603706,0.1579500138759613
4.1352138671875025,-0.0039778541224077,0.0749348294749856,0.0188350488513708,-0.0448126383125782,0.0650317594408989,0.1518865078687667
4.145177978515633,0.0157583813523873,0.027146950122714,-0.0108428810536861,-0.0244346633553504,0.0661566853523254,0.1525933146476745
4.155142822265631,0.0443496850645169,0.0096245913051068,-0.0822381382256746,-0.0135383335873484,0.0467140153050422,0.1506161838769912
4.1651066894531255,0.0595139729812741,-0.0173060857184231,-0.1135924769103527,0.0002256818115711,0.0399892665445804,0.1554010957479477
4.175071044921879,0.0503075705556198,-0.0349018020331859,-0.0538864884883165,0.0084045892581343,0.0347541719675064,0.1549145430326461
4.185036132812499,0.0523065623531118,-0.0026924539543688,-0.0081862290650606,0.0074948528781533,0.0382517017424106,0.1522971838712692
4.195000000000007,0.0518965933127328,0.046942076177895,0.0145475807905197,0.0043689366430044,0.0376492291688919,0.1521573513746261
4.204963867187502,0.0536759144775569,0.0178939686089754,0.0560632480055093,-0.0028820517472922,0.0434855483472347,0.1513615995645523
4.214928955078122,0.0624837460396811,-0.0399132004544138,0.0869160669088363,-0.0088770082220435,0.0493276342749595,0.1527746766805648
4.224893066406253,0.0740684949692338,-0.0666818187840282,0.0957160439580678,-0.0142004005610942,0.0546739287674427,0.1541946828365326
4.234857910156251,0.0832113671720027,-0.0822471983149647,0.062637950220704,-0.0130632314831018,0.0558249466121196,0.1603713482618332
4.244821777343759,0.0965344476688653,-0.0763173698745667,0.0325450097739696,-0.01222406886518,0.0529652461409568,0.1646393239498138
4.254785888671876,0.099117011507973,-0.0527772120721638,0.0124906482607126,-0.0147322341799736,0.0586937069892883,0.1663152575492859
4.26475097656251,0.1134749514779075,-0.0296320449367165,0.0155985511481761,-0.0136946663260459,0.0635771453380584,0.1675546914339065
4.274714843750004,0.1133601294592022,-0.0031255846746265,0.0257598796784877,-0.0153181506320834,0.0681388229131698,0.1754062473773956
4.284678955078135,0.1213141206709668,0.0032001112155616,0.0160322663903236,-0.0201075784862041,0.0719596594572067,0.1752483248710632
4.294644042968756,0.1013525520076975,0.0209600781813263,-0.0024842180311679,-0.0199054256081581,0.0757232904434204,0.1749846488237381
4.30460791015625,0.0892506108036264,0.0224488554343581,-0.0050374096453189,-0.0181866213679313,0.0767613872885704,0.1784912347793579
4.314572998046884,0.0927240590678527,-0.0017447978407144,-0.0086515084892511,-0.0142851704731583,0.0699648335576057,0.1761545687913894
4.3245368652343785,0.0798668790496885,-0.0060638300836086,-0.0276999078303575,-0.0135104563087224,0.0613308660686016,0.1752738654613495
4.334500976562509,0.0495348326174542,0.0384333371601998,-0.0244335995107889,-0.012971980497241,0.060355320572853,0.1777926981449127
4.34446606445313,0.0458932612447068,0.0462254523411393,0.0107096100628376,-0.0140628106892108,0.0653442218899726,0.1733982115983963
4.354429931640624,0.0377082742886617,0.0009605155952274,0.0217938986569643,-0.0164609178900718,0.0683129876852035,0.1761561930179596
4.364394042968755,0.0325826749032363,-0.0340957463473081,0.01312953068614,-0.0192029066383838,0.0637427419424057,0.1776811182498932
4.374358886718753,0.0246835922164842,-0.0079334233477711,0.0077998600959777,-0.0189272500574588,0.0609302185475826,0.1794638186693191
4.384322998046883,0.040754035192728,0.0118766080155968,0.0119137251555919,-0.0195280592888593,0.062776856124401,0.1768842786550521
4.394287841796881,0.0518267429469153,-0.0491772878840565,0.0174181677907705,-0.0218775756657123,0.059524443000555,0.1749891638755798
4.404251953124998,0.0312911007227376,-0.1014136710777878,0.0335889658689498,-0.0234693475067615,0.0609111525118351,0.1738378852605819
4.414215820312506,0.0113341717019677,-0.0661801528722047,0.043629882889986,-0.0253260098397731,0.0591483227908611,0.1722346544265747
4.424181152343749,0.0049728199765086,0.0142383687108755,0.0020575170516967,-0.034383688122034,0.056369312107563,0.1666092574596405
4.434142333984383,0.002854037724249,0.0109931031793355,0.0104968440949916,-0.0422963015735149,0.0640680566430091,0.1623924225568771
4.444105957031255,-0.0016492650443688,-0.0178486681625247,0.0543985296636819,-0.0433620996773242,0.0776773393154144,0.1588759869337082
4.454071289062497,-0.0008412000644952,-0.033492665887624,0.0590858106970787,-0.030162701383233,0.0768248066306114,0.1586104929447174
4.464035400390628,0.0160547704830765,0.0001401391230523,-0.0729226128697395,-0.0189585164189338,0.0700443983078002,0.1589071750640869
4.473999511718759,0.0244076978845521,0.0088239424467086,-0.1841390082985162,-0.0097018852829933,0.0490861572325229,0.1569135189056396
4.483964355468757,0.0045494799979031,-0.0024118834473192,-0.1677308943331241,-2.66209244728e-05,0.0440541133284568,0.1551981717348098
4.493928222656251,-0.0186003998452797,-0.0394995050869882,-0.1079208610147237,0.008077654056251,0.0488195940852165,0.1531416624784469
4.5038933105468715,-0.0533149722106754,-0.0789307672433555,-0.0676151541113853,0.0156412981450557,0.0470611080527305,0.1516758650541305
4.51385717773438,-0.06221303933952,-0.1073117892056703,-0.0675116937369108,0.0202125124633312,0.0393515862524509,0.1523187607526779
4.523821044921874,-0.0610456029953435,-0.1013048038758337,-0.0635498043686151,0.020717978477478,0.0356284901499748,0.1513885259628296
4.533786132812509,-0.0533683098331093,-0.1095082763366401,-0.0492079752832651,0.0170055218040943,0.0355762615799903,0.1529267728328704
4.543750488281248,-0.0517675235729664,-0.1461655437350273,-0.0331698636740446,0.0169210992753505,0.0287974532693624,0.147749587893486
4.553714355468756,-0.0577375013606622,-0.159600633239001,-0.0169148944437503,0.0159746091812849,0.0247411839663982,0.1487416177988052
4.563679199218754,-0.0804857416003942,-0.1050708784110844,0.0231423906564712,0.0182968843728303,0.0245225392282009,0.1456542164087295
4.573643310546885,-0.0714518096648156,-0.0284527720242738,0.0709977822870016,0.0268086325377225,0.0324468202888965,0.1371528357267379
4.583607421875001,-0.050654886155948,-0.0205642107315361,0.0625824206411838,0.0298742000013589,0.0331509597599506,0.1303740292787552
4.593572265624999,-0.0327497750984504,0.0195718386933207,0.013109072420001,0.0280243717133998,0.0412879921495914,0.1205248609185218
4.603536132812508,-0.0248032365407794,0.0677602616705,-0.0225531925916671,0.0358058623969554,0.0408267304301261,0.1143985316157341
4.613501220703128,-0.0097109909469261,0.0526372190795838,-0.0645487522780895,0.0483478531241416,0.0353131145238876,0.1059163510799408
4.623465087890622,-0.0024345702031627,0.0519376925081014,-0.1104290444433689,0.0529979988932609,0.0257361214607954,0.0984054431319236
4.6334294433593755,-0.029393779201433,0.0801386817283928,-0.077311787739396,0.0650602504611015,0.0233414061367511,0.0900148823857307
4.643394287109373,-0.0475912242690101,0.0998245021902024,-0.026149171257019,0.0714078992605209,0.023573100566864,0.0830115675926208
4.653358398437504,-0.0588517096802592,0.1312245797127485,0.0151695120811462,0.0753018110990524,0.0328312590718269,0.0738071352243423
4.663322265624998,-0.0587909559363499,0.1549177361197769,0.0399988329112529,0.0725888460874557,0.0298463851213455,0.0708464980125427
4.673287353515633,-0.0367123951191082,0.1538869317673146,0.0394628263384103,0.068442203104496,0.0289572142064571,0.0610301047563552
4.683251220703127,-0.0295084550896659,0.1549542687378823,0.0395154333084821,0.0597555041313171,0.0291263256222009,0.0540624782443046
4.693215332031258,-0.0269277544140815,0.147459529068321,0.0586187777072191,0.0497961416840553,0.0270563885569572,0.0457563661038875
4.703180175781256,-0.0285612373674288,0.1058788337931036,0.0739870272308588,0.0362971127033233,0.0269456021487712,0.040926456451416
4.71314404296875,-0.0478946641949936,0.0820288793891668,0.0689040248781442,0.0297831110656261,0.0243196338415145,0.0374350547790527
4.723109130859385,-0.0463959500698372,0.0526961096599698,0.0592331102132797,0.0193115621805191,0.0219065435230731,0.0367695279419422
4.733073242187501,-0.0455398081645369,0.0365999842531979,0.0498427660554647,0.0165449082851409,0.025589371100068,0.0376440957188606
4.743037353515632,-0.040450083810091,0.0291807940378785,0.0576461332827806,0.0086409142240881,0.0234282165765762,0.0398926027119159
4.753002441406252,-0.0430425479887053,0.0301465703301131,0.0271387668162584,0.0022759633138775,0.0247576758265495,0.0415477529168129
4.762966308593747,-0.0274093273859471,0.0520493361890316,0.0310240838170051,-0.0021273074671626,0.0204201843589544,0.0459467619657516
4.772930175781255,-0.0019080986436456,0.0600135930664837,0.0055009355038404,-0.0095276990905404,0.015018762089312,0.044463112950325
4.782895263671875,0.0108131435025483,0.0623626404106616,0.0290296951293945,-0.0190394446253776,0.0166523456573486,0.0440066456794738
4.792859130859384,0.0169809454172849,0.0428039534598588,0.0750555332452058,-0.0245229005813598,0.0247747097164392,0.0410108640789985
4.8028232421875,0.0290592865500599,0.0385508260600268,0.0688753833055496,-0.0271884575486183,0.0287822354584932,0.0427704155445098
4.812788330078135,0.0308568740239366,-0.0013629589162766,0.0723643944650888,-0.0275181457400321,0.0254620909690856,0.048610184341669
4.8227524414062515,0.0160181282671168,-0.0161649528592824,0.041740708142519,-0.034262865781784,0.0262176301330328,0.0484948679804801
4.832717041015627,0.0045382644841447,-0.014670038126409,-0.0050239656418561,-0.039593182504177,0.0121305715292692,0.052711185067892
4.842681152343758,-0.0035892931962385,-0.0437429878756403,-0.0225941091239452,-0.0408544540405273,0.0096538327634334,0.0575639978051185
4.852645263671874,-0.0049136371351778,-0.0412784974582493,0.0236287128686904,-0.0434287749230861,0.0111077176406979,0.0615656748414039
4.862610351562509,-0.0058721069037914,-0.0302238733500242,0.0498772528469562,-0.0473835691809654,0.0046333065256476,0.0632346794009208
4.872574218750003,-0.0183235191326588,-0.013654577473551,0.0726098936587572,-0.0530630089342594,0.0073510888032615,0.0630852580070495
4.882538085937497,-0.0362807257035747,-0.0021598083823919,0.0949924058586359,-0.0570915713906288,0.0146532105281949,0.0617563463747501
4.892503417968754,-0.0326714126326143,-0.0006141863755881,0.0782259799748659,-0.0566111654043197,0.0194013081490993,0.0645417720079422
4.902467529296885,-0.0215929327247664,-0.0263530232660472,0.0574368744462728,-0.0580729767680168,0.0125005235895514,0.065135657787323
4.9124321289062465,0.0030297961499541,-0.0687177085258066,0.017952420797944,-0.0553688593208789,0.0091051384806633,0.0645705014467239
4.922396240234377,-0.0075287150043994,-0.0666387102946639,-0.0192173261672258,-0.0517221912741661,-0.0007978260982781,0.0627539604902267
4.932360351562508,-0.0209323499241843,-0.0720344318583607,-0.0405085359990596,-0.0516482591629028,-0.0061813406646251,0.0606628619134426
4.942325195312506,-0.0356052010621875,-0.0837009042546153,-0.0013403086930513,-0.0543705411255359,0.0001969300210475,0.0567328333854675
4.9522890625,-0.0561180469326674,-0.0625036563165485,0.0379407313376665,-0.0521518737077713,0.0105392979457974,0.0563179217278957
4.962253173828131,-0.0678977704450488,-0.022672727318108,0.0165542444378137,-0.0507079064846038,0.0109640723094344,0.0491542853415012
4.972218505859374,-0.0743428183985874,-0.0149162679724395,-0.0460690927356481,-0.0423046611249446,0.0072652911767363,0.0450940318405628
4.98218212890626,-0.0648424379950389,-0.0016156185030937,-0.0910702639788389,-0.0318791829049587,0.0005804903339594,0.0440223775804042
4.992146240234376,-0.0553979159645736,0.0408883290968835,-0.12010638884902,-0.0234727188944816,-0.0049004345200955,0.0350227393209934
