time,ax,ay,az,gx,gy,gz
0.0,2.238990347917378,-1.8860685981452463,-1.9812188249140976,0.1826885640621185,-0.2120920568704605,0.1203344166278839
0.009964355468746078,2.363455078106373,-2.121892493234575,-2.156400035253167,0.1055208072066307,-0.1453042328357696,0.1610362976789474
0.01992919921874403,2.351958117058128,-2.142355143287778,-2.256867657652497,-0.0744889453053474,-0.1211297065019607,0.1996513605117797
0.029894287109371476,2.280169622784853,-1.810414222224057,-2.3448189128279684,-0.3086335361003876,-0.0953167527914047,0.2537508010864258
0.03985913085936943,2.281039829748124,-1.4555509829953313,-2.3892250407874585,-0.5034078359603882,-0.0260673146694898,0.3623944818973541
0.04982299804686363,2.4343968924224377,-1.1225155446931718,-2.5409260068178177,-0.6032670736312866,0.0595905967056751,0.5524400472640991
0.05978833007812767,2.539364164328575,-0.6108133920237422,-2.640845932206511,-0.6059837937355042,0.1213413253426551,0.7860437035560608
0.06975317382811852,2.333449815943092,0.055030690087378,-2.8673002336651083,-0.5006576776504517,0.1309398859739303,0.9923319220542908
0.07971826171874596,1.818671762959659,0.7097329081982374,-3.2295407236635683,-0.2970651090145111,0.0970426648855209,1.0888787508010864
0.08968310546874392,1.1726954337485134,1.3199974341675638,-3.5024025560319423,-0.0228655152022838,0.0438073985278606,1.0723402500152588
0.09964721679687472,0.5476935035049915,1.6191542760044335,-3.720907944312692,0.3011327683925628,-0.0115995043888688,0.9700739979743958
0.10961230468749505,0.1669849348040297,1.7635761909425258,-3.691508246827125,0.6160858869552612,-0.0297489482909441,0.801644504070282
0.11957714843750011,0.1009543099377304,1.6403721283391115,-3.499416818219423,0.8671067953109741,-0.0149286799132823,0.6375442743301392
0.12954223632812045,0.3126308751117438,1.3816010729044674,-3.1368349674373865,1.024813890457153,0.0642497614026069,0.5215734243392944
0.1395070800781255,0.6905685543272644,1.0126078937754035,-2.640173732033372,1.0953503847122192,0.205145314335823,0.4822446703910827
0.1494711914062492,1.0529776788908989,0.6182780288159847,-2.0881436606287958,1.0946226119995115,0.4196498990058899,0.5122315883636475
0.15943652343749903,1.405691411935538,0.3509808448374271,-1.6459388225555418,1.049479603767395,0.6595025658607483,0.615675687789917
0.1694011230468746,1.7162953843295574,0.1794260083019733,-1.2697826199293136,0.979337215423584,0.8972885012626648,0.7833536863327026
0.17936621093749494,1.8427032114103437,0.2015145059913396,-0.893988820874691,0.8917469382286072,1.0974154472351074,0.9704628586769104
0.1893310546875,1.8146235104821624,0.3483285767629742,-0.5912953293442725,0.7979791760444641,1.2407459020614624,1.1362295150756836
0.1992951660156237,1.6526510335452853,0.5834677044585347,-0.3348018634527921,0.7220524549484253,1.3285657167434692,1.258146047592163
0.20926049804687352,1.4142346377447246,0.7920672002747654,-0.2434954526305198,0.6839937567710876,1.328269362449646,1.3124359846115112
0.2192250976562491,1.1969513386048376,1.047100238224864,-0.1896814448565244,0.6726284027099609,1.2835090160369873,1.275729060173035
0.22919018554686943,0.9840638632711024,1.1462260906264186,-0.0403051223814487,0.6663281917572021,1.2195513248443604,1.1874079704284668
0.23915429687500023,0.877931858434528,1.049340126106143,0.3268798382818699,0.6434686779975891,1.1239629983901978,1.1381189823150637
0.24911914062499818,0.9206905845131724,0.7772893178597092,0.5582131439536809,0.5799983739852905,0.9845495223999025,1.122833490371704
0.259084472656248,0.9234105840615928,0.7118944701462984,0.9547720831394196,0.4708713293075561,0.8462133407592773,1.1126713752746582
0.26904931640624596,0.8174372769180684,0.8402496319025754,1.2046101827949285,0.3236890733242035,0.6958004236221313,1.089269995689392
0.2790141601562439,0.6304811653722078,0.9843164497926832,1.188350537389517,0.2059199810028076,0.5528359413146973,1.0510525703430176
0.2889782714843747,0.3824266977304592,1.239886371098459,0.9763894561856984,0.1588510125875473,0.4413608014583587,0.9935979843139648
0.29894311523437267,0.0997442491613794,1.4868170588746663,0.8545850312471389,0.1964155435562133,0.3895182907581329,0.9342259764671326
0.30890380859374744,-0.1423500953664071,1.6511451590269803,0.6233586930811404,0.3038051128387451,0.3662100434303283,0.8841859698295593
0.3188686523437454,-0.3616169878052547,1.74620536942482,0.4460141672283411,0.4451753497123718,0.389169842004776,0.8152269124984741
0.3288325195312467,-0.5990027984490618,1.8596148909837007,0.3396826212316751,0.6157140135765076,0.4716969430446625,0.7343770861625671
0.33879785156249653,-0.7644497100308537,1.8629183164432643,0.2133762086987495,0.7915454506874084,0.5681696534156799,0.6578191518783569
0.3487626953124945,-0.9017942339286208,1.8466577942550184,0.0837789379268884,0.960737943649292,0.6721173524856567,0.6110956072807312
0.35872778320312904,-0.8544945034194737,1.7572855663657188,0.1336661276459693,1.104771852493286,0.7692762017250061,0.5809515714645386
0.3686926269531199,-0.756874087144807,1.625496338507533,0.1541068581283092,1.211292386054993,0.8231399655342102,0.561957597732544
0.3786567382812436,-0.7482607917740941,1.5232991158366205,0.053090954196453,1.2685812711715698,0.8181248307228088,0.5257125496864319
0.388621826171871,-0.6747897512413561,1.4740642525464296,0.1077180319190025,1.2957584857940674,0.804514467716217,0.4752922356128692
0.398586669921869,-0.5833044036556035,1.3646312334030866,0.1386421624928712,1.297199845314026,0.7925737500190735,0.3996318280696869
0.4085517578124964,-0.4545717138238251,1.185560029888153,0.2566302440136671,1.265405535697937,0.7963263988494873,0.3175409436225891
0.4185166015624944,-0.4325445544002577,1.0532897405147552,0.3756184424877166,1.1871975660324097,0.7817777991294861,0.2613584101200104
0.42848071289062517,-0.4836618704361841,0.9857418064206838,0.3551502394765615,1.092788815498352,0.7606504559516907,0.2375894337892532
0.438446044921875,-0.5739692237511277,0.8861059586703777,0.4143219748914241,1.0000180006027222,0.7380020618438721,0.2364775240421295
0.44841064453124346,-0.6028610813124105,0.8496434831917286,0.4518541254281997,0.8979007601737976,0.6998405456542969,0.2410909235477447
0.4583757324218709,-0.6242215204555541,0.8902262534707784,0.4548194049745798,0.8067938089370728,0.6431043148040771,0.2270571142435073
0.46834057617186886,-0.7084821774847805,0.907420549377799,0.469765045171976,0.7326061129570007,0.566312849521637,0.2229111045598983
0.47830468749999966,-0.8572454095628113,0.8990881898403167,0.4391279148459434,0.6626148223876953,0.4820367395877838,0.2131216078996658
0.4882700195312495,-1.01833759653382,0.9783218855530024,0.3858797242611646,0.5867733359336853,0.3904493153095245,0.1971354484558105
0.49823486328124744,-1.2922723918959498,1.0013859502762557,0.3437468019306659,0.5150060653686523,0.357083648443222,0.1742407828569412
0.5081997070312454,-1.445366565850377,1.0072364298701286,0.3540016539633274,0.439267635345459,0.3800813853740692,0.1386582851409912
0.5181638183593691,-1.3538606869332492,0.9145213212937116,0.2710509835541248,0.3770425915718078,0.4064520597457886,0.1144187375903129
0.5281286621093741,-1.155543881004676,0.8179553825080395,0.1085550672650337,0.3290095627307892,0.3741167485713959,0.1006054580211639
0.538093994140624,-0.8864116636186837,0.6779916160225867,-0.0548141247272491,0.3012968003749847,0.2685330212116241,0.0946951061487197
0.5480588378906219,-0.4880015436083078,0.4693400977581739,-0.087707509547472,0.2924069166183471,0.1300877928733825,0.0778466239571571
0.5580236816406199,-0.0596333615772426,0.1190770458012819,-0.0641261429518461,0.3227195739746094,-0.0086288480088114,0.0671417713165283
0.5679877929687436,0.3839393307831138,-0.4190414046287536,-0.1839917087823152,0.3921716213226318,-0.1614767163991928,0.0753789320588111
0.5779526367187486,0.7359094789188355,-0.8340513617843389,-0.1202004968732595,0.4251388609409332,-0.354041188955307,0.0754135623574256
0.5879179687499985,0.7813318712487817,-0.811671187672019,0.0553460396468639,0.3455609381198883,-0.6066878437995911,0.0338259078562259
0.5978828124999964,0.478463972999528,-0.6417693790405988,0.1547802273452282,0.180338829755783,-0.8821985721588135,-0.0245151687413454
0.6078466796874977,-0.0431913818748667,-0.5038122762024402,0.17855565520823,-0.0227692760527133,-1.1221094131469729,-0.0691745206713676
0.6178117675781252,-0.7308870476469397,-0.1279576868712902,-0.0171738376408815,-0.2252811789512634,-1.306179761886597,-0.1160080879926681
0.6277766113281302,-1.4093205622181295,0.3577016775250434,-0.2757341729342937,-0.3592525422573089,-1.370489239692688,-0.1713738739490509
0.637741943359373,-1.9596831388019025,0.7182219196021556,-0.4512286870062351,-0.4066163897514343,-1.3265053033828735,-0.2066282629966735
0.647706787109378,-2.3014780760124323,1.0329998166799546,-0.7068740116357803,-0.3951256573200226,-1.184887409210205,-0.232448935508728
0.6576708984374946,-2.421575550902635,1.2454700164496897,-0.6378104122817516,-0.3221435546875,-0.9204012751579284,-0.2459605038166046
0.6676357421874997,-2.300813913015276,1.2140642398387194,-0.6350193202584982,-0.2412313967943191,-0.6435267925262451,-0.204075887799263
0.6776005859374976,-1.952449680417031,1.1469348234176635,-0.5792921723395585,-0.1715921759605407,-0.3739758431911468,-0.1394540071487426
0.6875659179687474,-1.4420733695238828,1.015814288601279,-0.3266998055398464,-0.1096151024103164,-0.1288771331310272,-0.0601578429341316
0.6975307617187454,-0.9033002545773984,0.7967132725149393,-0.1557891121268272,-0.0603035911917686,0.0330528393387794,0.0229463502764701
0.7074948730468691,-0.372145213419199,0.5833791493922472,0.0085445409834384,-0.0204706899821758,0.1117726787924766,0.0865716710686683
0.7174597167968741,0.038882300203829,0.4077081097096204,0.1226771161198616,0.0105578368529677,0.0726187825202941,0.1007947921752929
0.7274245605468721,0.2434037009601481,0.3369090648651123,0.1914239046096801,0.0075607150793075,-0.0751600190997123,0.0952730029821395
0.737389892578129,0.2705595650416799,0.3091016050070524,0.3436877652198076,-0.0392104908823967,-0.2835675477981567,0.0703849494457244
0.7473540039062456,0.0852586459574755,0.3227291483432054,0.4479682239055633,-0.168904036283493,-0.5098110437393188,0.029752567410469
0.7573188476562436,-0.2155103346506133,0.3823123871684074,0.5861106201827526,-0.3520440459251404,-0.6483461260795593,-0.0250494200736284
0.7672839355468639,-0.5852358466422185,0.4735796350240707,0.7227753451228142,-0.546700119972229,-0.6799301505088806,-0.062320627272129
0.777248779296869,-0.9741534407619388,0.6030407121956348,0.5690285524785519,-0.7159379124641418,-0.6371765732765198,-0.0742710158228874
0.7872138671874964,-1.284750179697573,0.7217506782501936,0.4071826245307922,-0.8363673686981201,-0.51515132188797,-0.0677582547068595
0.7971779785156201,-1.4475924252063035,0.8518629128068685,0.3071528090268373,-0.8919156193733215,-0.3364836275577545,-0.0497898906469345
0.8071428222656252,-1.5135918146841227,1.0218132367551327,0.0891886880159378,-0.881560742855072,-0.1777555048465728,-0.029013505205512
0.8171079101562455,-1.4344691781304777,1.1179951446592806,-0.0548567948251962,-0.8222379088401794,-0.0437797084450721,-0.0022319979034364
0.827072998046873,-1.2874709829635915,1.2027455579668282,-0.0090425536334514,-0.7156014442443848,0.0672802329063415,0.0107538420706987
0.8370368652343743,-1.1732863123137502,1.1762801603674888,-0.0147007255256176,-0.6036410331726074,0.1407754719257354,0.0252531822770833
0.8470019531249946,-0.9835877701919524,1.1612433347553015,0.1263157648831606,-0.49664106965065,0.15904101729393,0.0297789592295885
0.8569667968749997,-0.7590755427118391,1.0544885949105025,0.2465320438474416,-0.3904995620250702,0.1174834594130516,0.0269458722323179
0.86693188476562,-0.5092548325825482,0.9100877227604388,0.467955949923396,-0.288893848657608,0.0351382568478584,0.0058312648907303
0.8768969726562474,-0.243529829824157,0.7049602869689464,0.6801631148427725,-0.2069401443004608,-0.0730033293366432,-0.0266563668847084
0.8868608398437487,-0.064065115213301,0.5114794498294591,0.7996148391753435,-0.1405536532402038,-0.2215312868356704,-0.0681055411696434
0.8968259277343691,0.0599712334957905,0.3173626528739929,0.8854518786758184,-0.0935816541314125,-0.3687246143817901,-0.1104071736335754
0.9067907714843741,0.0709786757277324,0.2114770970791578,0.9709235919952393,-0.0659835860133171,-0.5150887370109558,-0.1515029519796371
0.9167558593749945,-0.0709146340481936,0.1937532243400812,0.9786591546833514,-0.0434549003839492,-0.6136507987976074,-0.1893430352210998
0.9267209472656219,-0.2209875970179215,0.1926478934466838,1.1456418609976768,-0.0331804230809211,-0.623992919921875,-0.2202740460634231
0.9366848144531303,-0.3251530144892632,0.1062497129321098,1.2216764684081076,-0.0502307265996933,-0.5799431204795837,-0.219615951180458
0.9466499023437436,-0.4544138198483735,0.0494195722073316,1.1791454866707325,-0.0865847393870353,-0.477723479270935,-0.2041222155094146
0.9566147460937486,-0.5538584558755159,0.004511339944601,1.2441817302048206,-0.1187339946627616,-0.3349771201610565,-0.1804904043674469
0.966579833984369,-0.5784689463231713,-0.062666007271409,1.0913023680448533,-0.1394184976816177,-0.2058537602424621,-0.1652866899967193
0.9765439453124998,-0.5102641192229465,-0.1313029056459665,0.9630091656088828,-0.1327192783355713,-0.0905964598059654,-0.1537573337554931
0.9865090332031201,-0.3469991913227364,-0.2370283024430274,0.8470014442503452,-0.1030894890427589,0.0065330183133482,-0.149101048707962
0.9964738769531252,-0.16345486098174,-0.3795201261013746,0.6654980451524257,-0.0413061119616031,0.0451100282371044,-0.1432985812425613
1.0064387207031302,0.0624457886494696,-0.5360936666041612,0.4909446113228797,0.0329486802220344,0.0316173881292343,-0.1312501728534698
1.0164038085937435,0.279533382554166,-0.6911836905509233,0.4815402386397123,0.1007713600993156,-0.0169100910425186,-0.1150256544351577
1.0263679199218743,0.4027819418864324,-0.7961006935745477,0.4596200832545757,0.1496992260217666,-0.090748094022274,-0.1013417989015579
1.0363330078124946,0.4357791524073108,-0.8907423862993716,0.4949900873214006,0.1765645146369934,-0.1628341674804687,-0.0764172747731208
1.0462980957031291,0.4141567378597334,-0.999068905505538,0.5179524452358484,0.1769783794879913,-0.1977852284908294,-0.0498953834176063
1.0562626953124976,0.3823849409479647,-1.130797927609086,0.5073252527594566,0.1582882851362228,-0.2190668433904647,-0.0238097105175256
1.0662268066406213,0.3279254748772829,-1.2621587009221316,0.3271808670550584,0.1225723773241043,-0.226895198225975,0.0153866931796073
1.0761918945312487,0.2379946632571518,-1.3389444189608095,0.2041390092760324,0.0723759829998016,-0.2126458883285522,0.0531111434102058
1.086156982421869,0.0482129728965461,-1.3396540285348892,0.000529576832056,0.014386179856956,-0.1837814748287201,0.0749085843563079
1.0961220703124965,-0.1940442431759089,-1.2340537194222212,-0.3059919485539197,-0.0392264984548091,-0.1221333965659141,0.0649968534708023
1.1060866699218792,-0.2778688834080472,-1.260962184613943,-0.6230488964796066,-0.0657907277345657,-0.0418175123631954,0.0558784529566764
1.1160507812499958,-0.1761769799107685,-1.393819333964586,-0.8716349502474069,-0.0675941854715347,0.0617826059460639,0.054848063737154
1.1260158691406232,-0.0794836518857628,-1.4088561595767737,-1.1362906798064707,-0.0668628811836242,0.1405818164348602,0.0580478534102439
1.1359809570312436,-0.086161120355688,-1.266247431540489,-1.32152449760437,-0.070310391485691,0.1841925680637359,0.0623456761240959
1.145946044921871,0.000750014649704,-1.2350351316750048,-1.4623556945741176,-0.0671675950288772,0.2299973517656326,0.0721463784575462
1.155910888671869,0.2395681231189519,-1.380332075881958,-1.6129647737145425,-0.0425176322460174,0.2836295664310455,0.0843732059001922
1.1658747558593703,0.5807887310402468,-1.5512328324228524,-1.7078408597171306,-0.0042267022654414,0.3234938979148865,0.1004677563905716
1.1758395996093753,1.035924764215946,-1.7629069133788349,-1.7366157033026215,0.0226926952600479,0.3291870653629303,0.1181862875819206
1.1858049316406252,1.3847504768460988,-1.8352350674867628,-1.6934867556720972,0.0146989505738019,0.3033434748649597,0.1209152340888977
1.1957700195312455,1.3754102554403245,-1.5095874013483523,-1.513733999633789,-0.05233845859766,0.2102899253368377,0.1179788559675216
1.2057336425781244,1.088689482132718,-0.9746768070489168,-1.3562199634104966,-0.1819300055503845,0.0754154548048973,0.1093174517154693
1.2156987304687448,0.6658442282415926,-0.3251379630506038,-1.2741805626273155,-0.3400879502296448,-0.058623306453228,0.093924380838871
1.2256635742187498,0.2034946834905072,0.2908832267493009,-1.2007160979658364,-0.4559186995029449,-0.1068539544939994,0.0838419198989868
1.2356289062499997,-0.145670197966136,0.7169745498895644,-1.127049388730526,-0.5052700042724609,-0.0619668401777744,0.0791219994425773
1.24559399414062,-0.3107126204002648,1.073305523583293,-1.1612415811896324,-0.4874909818172455,0.0356561206281185,0.0934668555855751
1.2555578613281284,-0.3510934748990461,1.3312082717508076,-1.163206159260869,-0.4105793237686157,0.1453626602888107,0.1345746219158172
1.2655227050781193,-0.1856236208330839,1.4570815535634756,-1.1395932284832,-0.2847755849361419,0.2435981482267379,0.191307932138443
1.2754875488281243,0.0855846356419846,1.4444868604063987,-1.191641980150342,-0.1238364353775978,0.2770260572433471,0.2599612772464752
1.2854528808593741,0.3572211274664849,1.346530344045162,-1.2986083169192075,0.0496237650513649,0.2397615164518356,0.311564564704895
1.2954169921874978,0.5336542375627905,1.1622077958732844,-1.1808552131980656,0.2078084796667099,0.1721376329660415,0.3378574252128601
1.3053818359374958,0.6237450620502233,0.9761994865715504,-0.9640274027407169,0.3235358595848083,0.0790079534053802,0.3272750675678253
1.3153469238281303,0.6651377604726701,0.7728074962705374,-0.7216209143906831,0.3968546986579895,-0.0310835782438516,0.2788982093334198
1.3253115234374988,0.6617595892764627,0.5856383264958858,-0.4387795397996902,0.4116421639919281,-0.1414271295070648,0.2102935910224914
1.3352766113281191,0.6118401777882129,0.4347288031041622,-0.1330243226110935,0.3572477996349334,-0.2423975467681884,0.1403544247150421
1.34524072265625,0.536600264419429,0.3710732002735137,0.1634241370499134,0.2455819994211197,-0.3196366727352142,0.0759344324469566
1.3552058105468703,0.4437136717336252,0.4087684324175119,0.4164285917818546,0.1198041960597038,-0.3493497967720032,0.0190700925886631
1.3651708984374977,0.3489318033531308,0.5206155269652605,0.5919634378641844,0.0104023432359099,-0.3325468599796295,-0.0176788680255413
1.3751354980468733,0.2790028193414211,0.6072036770939827,0.6744388919770717,-0.0604962483048439,-0.255568116903305,-0.014097960665822
1.385099609374997,0.2180286376144737,0.7162631867498159,0.7669622773736715,-0.0908264517784118,-0.1352345198392868,0.0189529322087764
1.3950646972656244,0.1917686263941228,0.779842801734805,0.8561287535578012,-0.1039389297366142,-0.0024624622892588,0.0696214437484741
1.4050297851562448,0.2400287994332611,0.7592050873756409,0.956315220928192,-0.114634983241558,0.1160543337464332,0.1444314867258072
1.4149948730468722,0.2703301219336688,0.7223340310961007,1.0665040268748998,-0.137398213148117,0.2256562262773513,0.2173147499561309
1.4249597167968702,0.3011769494876265,0.6833312234848737,1.2626374243497849,-0.1690312325954437,0.3385297954082489,0.2806511223316192
1.4349235839843644,0.3165920338276773,0.6515414159923791,1.288746848118305,-0.2132310420274734,0.3932458162307739,0.3250835537910461
1.444888671874999,0.3116168392309918,0.6064782854288816,1.1648299610704185,-0.2420075684785843,0.390555202960968,0.3504994511604309
1.4548537597656193,0.2929177647842094,0.5459305854856967,1.0921247903436422,-0.2512860000133514,0.3600217401981354,0.3446910977363586
1.4648188476562467,0.2994364990284666,0.491636100718379,0.9891530761688948,-0.2441109269857406,0.3075684010982513,0.3150050938129425
1.4747829589843704,0.3040919966841116,0.4413204564541578,0.823334737458825,-0.2296639382839203,0.2359067648649215,0.2756358385086059
1.484747558593746,0.2627571659287437,0.3865776433974504,0.7551730553805828,-0.2078997790813446,0.1801018118858337,0.2373092174530029
1.4947126464843734,0.2892193851903081,0.3439467084169387,0.7448579975932836,-0.1921484172344207,0.1461213529109954,0.2105710953474044
1.5046777343749937,0.2806381289256736,0.3549351354211568,0.7495382643640041,-0.1893840432167053,0.1286273151636123,0.1896900534629821
1.514642822265614,0.2379902793429791,0.4030132298916578,0.7535685427933931,-0.1959123611450195,0.1377389132976532,0.1792533695697784
1.5246069335937449,0.203350416181609,0.4493360051274299,0.7208084289640188,-0.2062422335147857,0.1369690001010894,0.1747837960720062
1.5345715332031205,0.1825878698663786,0.568321280992031,0.7263175477743148,-0.2116588801145553,0.1570145636796951,0.1757486760616302
1.544536621093748,0.1584966540524736,0.6599129384964704,0.7226046647310257,-0.2054398655891418,0.1774452775716781,0.1814323961734771
1.5545017089843753,0.0590076674269512,0.7643009492099284,0.6062520754575729,-0.182222843170166,0.1923557370901107,0.1925255358219146
1.564465820312499,4.47524571791e-05,0.7988590523719787,0.5087509016484022,-0.1360228508710861,0.2211586236953735,0.1973384022712707
1.5744309082031194,0.0463299356289207,0.7525999900221825,0.4337228409320116,-0.077882207930088,0.2565498948097229,0.1988363862037658
1.5843957519531244,0.1275451605476439,0.587639144924283,0.3814788589537143,-0.0405468195676803,0.2766032516956329,0.2031488418579101
1.5943605957031295,0.193961460263282,0.4147369854331016,0.3290449073612689,-0.0257982797920703,0.2745980024337768,0.1979349106550216
1.6043256835937498,0.2856712642546743,0.2680722600042819,0.2581663675397634,-0.0222059413790702,0.2416954338550567,0.1870183497667312
1.6142897949218735,0.3458322664352133,0.1212947218507528,0.2075935336440801,-0.0213755387812852,0.203227162361145,0.1683085709810257
1.6242548828124939,0.3148477839762345,0.0341875162839889,0.0769417853832244,-0.0227033905684947,0.1243091747164726,0.1350305080413818
1.634219726562499,0.2471874390162527,0.0086246204823255,-0.0677735595434904,-0.0284209586679935,0.0347180292010307,0.0794657915830612
1.6441848144531193,0.1724539773322641,0.0150613755315542,-0.2265454868733882,-0.0321134328842163,-0.0747948810458183,0.002324937377125
1.65414892578125,0.0823240264108404,0.0494926374435424,-0.4437088128954172,-0.0323276817798614,-0.1926513761281967,-0.0661569163203239
1.664113769531248,0.0227314717680215,0.0605588058590889,-0.551084899508953,-0.0272516962140798,-0.2709256708621979,-0.1240971833467483
1.6740788574218755,-0.0611163666766136,0.0409463428944349,-0.54646542301476,-0.018256738781929,-0.2883601784706116,-0.1641266196966171
1.6840437011718805,-0.1317008919876068,0.0447083257764577,-0.5079670577943325,-0.0207023210823535,-0.2759871184825897,-0.1782051622867584
1.6940087890624937,-0.1914404173530638,0.1251893912017345,-0.5193354240268468,-0.0379466973245143,-0.2608476281166076,-0.1782629489898681
1.7039729003906245,-0.2530896853299811,0.1617348687887191,-0.48680385825634,-0.0495399720966815,-0.2238099724054336,-0.1617678701877594
1.7139377441406225,-0.252974936376512,0.0794926389098167,-0.498924504160881,-0.0547128356993198,-0.1724394261837005,-0.1295457631349563
1.72390283203125,-0.1801603139258921,-0.0864244839996099,-0.5763654712378978,-0.0519279688596725,-0.1186185404658317,-0.1045115143060684
1.733867675781248,-0.1250496904700994,-0.1855991439789533,-0.6754074447482824,-0.037034448236227,-0.0960874110460281,-0.1008818596601486
1.7438317871093716,-0.142942672698386,-0.1078945575296878,-0.7594757210105657,-0.0252528898417949,-0.1290914267301559,-0.1026243716478347
1.753796874999999,-0.1499551087437197,-0.1129173541277647,-0.7506471023887396,-0.0232843123376369,-0.1838228106498718,-0.1064159050583839
1.763761718749997,-0.0635482699986547,-0.2183195103198289,-0.6874871741205454,-0.0296716392040252,-0.23528653383255,-0.1075429543852806
1.7737268066406244,0.0658307183800265,-0.383838573822379,-0.6400298418968916,-0.0289433356374502,-0.2840393483638763,-0.1048209592700004
1.7836916503906224,0.1588230729952454,-0.5092763868272304,-0.6394622711420059,-0.0309207327663898,-0.341375857591629,-0.0943794995546341
1.793655761718746,0.2475828680746257,-0.593810527035594,-0.6995832701057195,-0.0299320295453071,-0.387016236782074,-0.0861045271158218
1.803621093749996,0.332191096432507,-0.6903250278949737,-0.5968991407006978,-0.0375132523477077,-0.3898751437664032,-0.0858696401119232
1.8135856933593715,0.3694854926906525,-0.6071142452448606,-0.4425140501528978,-0.0830491930246353,-0.3953631520271301,-0.0944460779428482
1.823550781249999,0.3082484222438186,-0.4234516222864389,-0.1793400835841894,-0.1741977334022522,-0.4113133549690246,-0.0920353904366493
1.8335148925781297,0.1341756846033036,-0.137891051864624,0.1175228020966052,-0.3178682029247284,-0.4361733198165893,-0.0840871930122375
1.8434797363281277,-0.1000417982026934,0.198180977654457,0.387191975903511,-0.5038692355155945,-0.473104178905487,-0.0709737837314605
1.8534450683593704,-0.522728062139824,0.4989028768509626,0.4313993664205074,-0.7071477174758911,-0.505514919757843,-0.049325194209814
1.863409667968746,-0.9378506128244102,0.8286755139648914,0.4329787445664405,-0.8783324956893921,-0.4845414459705353,-0.0320394150912761
1.8733747558593734,-1.3394232885189354,1.0469114376544952,0.2517746206760406,-0.9921947717666626,-0.4273802042007446,-0.0143853165209293
1.883338867187497,-1.5686244044676425,1.2205185305446389,0.0878840351581573,-1.0405611991882324,-0.3239081501960754,0.0066981320269405
1.893303710937495,-1.71279380594939,1.3693547547936438,-0.1972200236678123,-1.0162270069122314,-0.202684223651886,0.0279064886271953
1.9032690429687449,-1.7391216947741803,1.4074001155495643,-0.4971130708247422,-0.9006210565567017,-0.0622645244002342,0.0558491721749305
1.91323388671875,-1.5437097434416411,1.3168886544972658,-0.7642471731960773,-0.722550094127655,0.0443056151270866,0.1010059863328933
1.9231977539062441,-1.2332216525122524,1.117145834353566,-0.9970330157637596,-0.5217615962028503,0.0851273462176323,0.1417459547519683
1.9331628417968716,-0.8708329862147569,0.7875818715542554,-0.9730173494040966,-0.3357588350772857,0.0764803513884544,0.1947207599878311
1.9431276855468695,-0.6079778763368725,0.466818470326066,-0.8019652016937733,-0.2062448114156723,-0.002284501446411,0.2336359322071075
1.9530930175781194,-0.4575858740132302,0.3478939847379922,-0.6358446651667357,-0.1525345593690872,-0.1575360298156738,0.2307597249746322
1.9630578613281244,-0.4293411917816847,0.2434811318442225,-0.4518634777784347,-0.1533236652612686,-0.3535673320293426,0.202233538031578
1.9730217285156186,-0.5098973682697862,0.2055024065837264,-0.3102385000824928,-0.1859869807958603,-0.5536788105964661,0.1573456674814224
1.982986816406246,-0.6372270594358443,0.2010796217054128,-0.2076847190588712,-0.2344242930412292,-0.7042901515960693,0.1043010950088501
1.992951660156244,-0.8040032103274017,0.1931383073121309,-0.1050502740144729,-0.2701351642608642,-0.7786943912506104,0.045995183289051
2.002916992187494,-0.9599003859385848,0.1795706774696707,-0.1036123501658439,-0.2833982408046722,-0.7848166823387146,0.0075918696820735
2.012880859374995,-1.0828658174805343,0.2124053178399801,-0.1354699621975421,-0.2643018960952759,-0.720151424407959,-0.0083386339247226
2.0228457031250002,-1.1814360818259415,0.2564496267497539,-0.1560731897652149,-0.2176571637392044,-0.6119322776794434,-0.0161012150347232
2.0328107910156135,-1.2065633626893162,0.3106976420268416,-0.1351660108149051,-0.160746768116951,-0.4843137562274933,-0.0175385177135467
2.0427756347656185,-1.1812281381636858,0.2852829225242138,-0.1048608889222145,-0.0940023586153984,-0.3694015443325043,-0.0158716440200805
2.0527397460937493,-1.123824581465125,0.2559782098457217,-0.0375064315736293,-0.0255995988845825,-0.2791161239147186,-0.0226432643830776
2.0627048339843697,-1.0377576787315308,0.2053001620098948,0.083766662967205,0.0456985458731651,-0.2232134491205215,-0.046475626528263
2.072669921874997,-0.9523740820869804,0.1551204190850257,0.2069283477336168,0.1110260188579559,-0.1995140761137008,-0.0886084288358688
2.082634765624995,-0.8858420470371842,0.1082078612625598,0.3831313023358583,0.1717255860567093,-0.1990027576684951,-0.1456823647022247
2.092599609375,-0.8110190073736011,0.0341232188761234,0.584645808327198,0.2167829573154449,-0.2178578227758407,-0.2060341238975525
2.102563720703124,-0.7048186865411699,-0.0231114109963178,0.7768249152183532,0.2307634800672531,-0.2540880143642425,-0.2754888534545898
2.112528808593744,-0.5950954522795975,-0.0713043640181422,0.9625199207872152,0.2353293895721435,-0.28927943110466,-0.3460333347320556
2.1224938964843716,-0.5035711609229445,-0.1384016317352652,1.1281488744050263,0.2199048995971679,-0.3159514963626861,-0.4066668450832367
2.132458984374999,-0.4387421303987502,-0.1686275509119033,1.2513497221380472,0.1767995357513427,-0.3356572687625885,-0.4473655223846435
2.142422607421871,-0.3055919894509017,-0.1825809652015566,1.326767074432969,0.1239871755242347,-0.3412163555622101,-0.4777764081954956
2.1523876953124983,-0.2361858602695166,-0.2298456974625587,1.349917648395896,0.0836941674351692,-0.3123428523540497,-0.4857885539531708
2.1623527832031186,-0.1889743195004761,-0.2313014492288231,1.3937094438493252,0.0542782247066497,-0.2788615822792053,-0.4764557778835296
2.172317871093746,-0.1938001322217285,-0.1864782649010419,1.344423142632842,0.0249729380011558,-0.2561686635017395,-0.4578823745250702
2.1822829589843735,-0.2447811085268855,-0.1423012695223093,1.3294827631324528,0.0141554437577724,-0.2189382165670395,-0.4345016777515411
2.1922465820312453,-0.2800890071429312,-0.1769406212270259,1.3257143505096434,0.0195461492985487,-0.1880788058042526,-0.4026662111282348
2.20221166992188,-0.3016452976517379,-0.2154346025332808,1.2445844657868146,0.0232559330761432,-0.1597768664360046,-0.3727373480796814
2.2121767578125002,-0.2936027148410677,-0.340052039065957,1.2372323494583368,0.0299056209623813,-0.1181104853749275,-0.3435030579566955
2.2221418457031206,-0.2626034732043742,-0.5130591202363372,1.2324708341449495,0.0390876680612564,-0.0694516077637672,-0.3143893778324127
2.2321059570312443,-0.262220757497102,-0.6289408771276473,1.1862509347617625,0.0421307235956192,-0.0357129164040088,-0.2836831212043762
2.24207055664062,-0.2757968629069626,-0.7470049464941024,1.0956786834329366,0.0294285118579864,-0.0306997839361429,-0.2505033314228058
2.2520356445312473,-0.2878898901522159,-0.8877335598722099,0.9300964915663004,0.0112505601719021,-0.0597124025225639,-0.2080932855606079
2.2620007324218747,-0.3376310955293476,-1.0909738667428492,0.6578951689332724,0.0059133190661668,-0.1100064665079116,-0.1685133874416351
2.271965820312495,-0.4249706485472619,-1.230269816969335,0.3782429457724094,0.024312837049365,-0.1870219409465789,-0.1506073474884033
2.2819299316406187,-0.4797862345792353,-1.3465522636160254,0.0380231489241123,0.0559850111603736,-0.2776993811130523,-0.1549009084701538
2.2918945312499943,-0.5148641238316893,-1.433447579997778,-0.2427607086151838,0.0997320711612701,-0.3564734756946563,-0.172689214348793
2.3018596191406218,-0.502303917466104,-1.5598206280261278,-0.3993932858288287,0.1556640416383743,-0.3873525559902191,-0.1898463666439056
2.311832031249999,-0.3950814139790832,-1.8069883394286037,-0.5311538721144199,0.2163884192705154,-0.3741394579410553,-0.2003227323293686
2.3217958984375002,-0.3951449807345867,-1.8207906548097728,-0.5893184763133525,0.2688614726066589,-0.3236666917800903,-0.2269761711359024
2.3317609863281277,-0.4123882303498685,-1.715594834844768,-0.5502040250211954,0.2839883267879486,-0.2807376682758331,-0.2583412528038025
2.341726074218748,-0.2143153892450034,-1.7219465419590472,-0.4332891256898641,0.2424342334270477,-0.206607773900032,-0.2926939129829407
2.3516911621093755,0.2983252133183181,-2.0032950476437805,-0.2705430340319871,0.1756729483604431,-0.1241894215345382,-0.3016522824764251
2.361655273437499,0.8326857725195587,-2.5527991077020764,-0.4984422736018896,0.0682532787322998,-0.0774799734354019,-0.2857955396175384
2.3716198730468747,1.2550162818215786,-2.7063649908214806,-0.5195522816479206,-0.0654147192835807,-0.0301704015582799,-0.2740539014339447
2.381584960937495,1.520195158471912,-2.684718976202607,-0.5579699828475714,-0.2641928195953369,-0.0210301652550697,-0.2469543665647506
2.3915500488281296,1.573100673098862,-2.252968896648288,-0.8077630743175744,-0.5303510427474976,-0.0847836881875991,-0.2591690123081207
2.40151513671875,1.5086368226252496,-1.5554787994295358,-1.0800421383619307,-0.8023319244384766,-0.1875425577163696,-0.2697675824165344
2.4114792480468736,1.4081962343633174,-0.9471440724790096,-1.0572276644855738,-1.0088073015213013,-0.2159627974033355,-0.2808753550052643
2.421443847656249,1.3065566455751656,-0.0672056965276598,-0.7211801848858594,-1.1529053449630735,-0.1109570190310478,-0.3604181110858917
2.4314089355468695,0.9031780895024536,0.76008303925395,-0.9279238237023352,-1.165997862815857,0.0698893442749977,-0.4860743284225464
2.441374023437497,0.6469879904717206,1.32469494433403,-1.2067360889077186,-1.042920470237732,0.4135708212852478,-0.654967725276947
2.4513381347656136,0.6677119218096137,1.805957827337086,-0.580751723498106,-0.7474885582923889,1.0194357633590698,-0.8822317719459534
2.461303222656248,0.9406703464202584,2.505490244038403,0.5239876337468624,-0.1770998984575271,1.8431648015975952,-1.1778043508529663
2.471268066406246,1.2811463099867104,2.5284698453485963,-0.0128133043438196,0.4046584367752075,2.140094995498657,-1.407719612121582
2.481232910156244,1.5150839529380202,1.9387211609244344,-2.983056026089191,0.7109387516975403,1.6535921096801758,-1.5200953483581543
2.4911979980468644,1.005207042934373,3.051552346949279,-2.962083965209126,1.0258725881576538,0.944342851638794,-1.6329433917999268
2.501162109374995,0.2631397355055436,3.550393264479935,-2.3493173932909963,1.436177372932434,0.3214883208274841,-1.6908122301101685
2.5111271972656226,0.1316903705935925,2.5940359579756853,-1.888827541464567,1.8931711912155151,-0.1174448207020759,-1.597688913345337
2.5210920410156135,-0.1310186088118702,1.5811717513516543,-1.511309402835369,2.262661933898926,-0.3047931492328644,-1.3051053285598757
2.531057128906248,-0.4529669820409268,1.1453069299548864,-1.0592290674358606,2.43902850151062,-0.2594602406024933,-0.8897725343704224
2.5410212402343717,-0.4430543310420587,0.9114350457161664,-0.8173276059985161,2.3625028133392334,-0.1403876394033432,-0.4887326955795288
2.5509860839843697,-0.2571035971464589,1.1148936715126037,-0.3522434121191501,2.06811785697937,0.0776986479759216,-0.2291192263364792
2.560951171874997,-0.1176639641329646,1.5332061773449182,0.7540969505816698,1.638546586036682,0.5060436129570007,-0.1382071524858474
2.570916015624995,0.1134253767151385,1.4490098907887934,2.2135861498087643,1.1192082166671753,1.035551905632019,-0.0558859296143054
2.5808798828124964,0.9025199178546668,-0.4950239895910024,0.8537894969552755,0.5175926685333252,1.049085021018982,0.2105777114629745
2.590845214843746,1.0941991854649036,-1.8296897083193064,-1.127110763528943,-0.074285939335823,0.7586919665336609,0.5446896553039551
2.600810058593744,0.7168564764678478,-1.607066363325715,-0.1058645130068063,-0.4970150887966156,0.7536072134971619,0.8239111304283142
2.6107751464843716,0.4025586910571903,-0.5920283197939396,1.4190584046393633,-0.724629819393158,0.986789882183075,0.9526315927505492
2.6207399902343695,0.0512612819507252,0.5151122533738612,1.350121062013507,-0.8241894245147705,1.1358970403671265,0.9401312470436096
2.6307041015625003,-0.1300607326983008,1.1659423062264918,0.5379448474287987,-0.8340846300125122,1.101334810256958,0.840564489364624
2.6406691894531207,0.0943392209132202,1.556302975293994,-0.0548638090878725,-0.7526595592498779,0.9810696244239808,0.685222327709198
2.6506340332031186,0.2504046840297058,1.7132026790112256,0.086653616580367,-0.5964643359184265,0.9683398008346558,0.5635185241699219
2.660599121093746,0.2328496650515124,1.700819582778215,0.5727426045656204,-0.4482074379920959,0.970040202140808,0.515701174736023
2.6705629882812474,0.6297058701507747,1.5831711084753275,0.3192611799716949,-0.3788573145866394,0.8236710429191589,0.5212743282318115
2.680528076171875,0.9812059896219522,1.1790876190036534,0.0010825345396995,-0.3295592665672302,0.6329343914985657,0.5603538155555725
2.6904934082031247,0.955372167924419,0.919284005650878,0.058783028358221,-0.2611817121505737,0.5235833525657654,0.6024448275566101
2.7004580078125002,0.6484964222732931,0.972294880348444,0.4028109853178262,-0.1867056041955948,0.5420228242874146,0.6435935497283936
2.710422119140624,0.4676087073883041,1.0404618231236935,0.269776725834608,-0.1090146303176879,0.5508302450180054,0.6582502722740173
2.720386962890622,0.266439927828405,0.9477712644666432,0.0955839420109987,0.0195862203836441,0.6603295803070068,0.6474253535270691
2.7303520507812493,-0.0042230975877493,0.8815624700218438,0.315674553656578,0.1242936626076698,0.8223894834518433,0.6210944652557373
2.740317382812499,0.0505931277650408,0.8524047645986079,0.3129167793810367,0.1743040829896927,0.9406487345695496,0.5645456910133362
2.750282226562497,0.2313152950910851,0.7247399231940508,0.31018764667809,0.1960158050060272,1.0039818286895752,0.5141903162002563
2.7602460937499984,0.4491375964784994,0.5517442402005195,0.5509715022623539,0.1848217397928238,1.0536527633666992,0.4936935901641845
2.7702109374999964,0.3301205372361466,0.223213127580285,2.0005530554592608,0.0225242748856544,1.1397254467010498,0.4949828088283539
2.780176025390624,0.9867992065191268,-0.050692660883069,0.0818657977819442,-0.303178995847702,0.6828699111938477,0.4867829382419586
2.7901413574218736,1.1365201046481728,0.0578220743715763,0.6534621549218893,-0.3677722513675689,0.4691762924194336,0.5230786800384521
2.8001049804687455,0.4689208494327962,0.33458208322227,0.3975461966574192,-0.3619167506694793,0.2088520526885986,0.5066394805908203
2.810070068359373,0.065143649431318,0.3473632388621568,-0.0828647456914186,-0.2792462110519409,0.002875298494473,0.4551890790462494
2.820034912109378,-0.2157376771330833,0.4394628458887338,-0.1078022030711173,-0.1520208865404129,-0.1388141959905624,0.3846744298934936
2.8299999999999983,-0.1874236925249919,0.5135457347095013,-0.1439472831636667,0.017677703872323,-0.2286134362220764,0.332864761352539
2.839964111328129,-0.0783221703583374,-0.288499546483159,-0.287988674351573,0.1101410612463951,-0.3216706812381744,0.3080148100852966
2.8499291992187494,0.0058131067255511,-0.7075298451960086,-0.4412631733089685,0.1344059556722641,-0.3647286891937256,0.2549630105495453
2.8598940429687474,-0.0058478127127513,-0.3035486470550299,-0.5129430926412344,0.1658818572759628,-0.4110061824321747,0.1632142066955566
2.8698588867187453,-0.157700717901811,-0.2613140179157256,-0.4968704942405224,0.2042485475540161,-0.422974020242691,0.107476107776165
2.879823974609373,-0.215331379620824,-0.4661491927623749,-0.6229220552295446,0.1840090602636337,-0.4540933072566986,0.0817246735095977
2.8897880859374965,-0.2563308957409113,-0.4618915353178978,-0.6626192748457193,0.119038425385952,-0.4839512705802917,0.0555828288197517
2.899753173828124,-0.3855544743621721,-0.3642810559153556,-0.6778560069441795,0.0428051687777042,-0.5080398321151733,0.0291381683200597
2.909718017578129,-0.5308943078627809,-0.2425795068293809,-0.6937690308690071,-0.0280515272170305,-0.4926788508892059,-0.0100803505629301
2.91968286132812,-0.6029389323215931,-0.0786859987020492,-0.6906897695541382,-0.0892594903707504,-0.4469190835952759,-0.0457310229539871
2.9296469726562435,-0.4739011220633983,-0.0490986696898937,-0.6961515420913695,-0.1366583108901977,-0.3749350011348724,-0.0669196993112564
2.939612060546864,-0.2768049622372724,-0.0643172816097736,-0.7058715565949678,-0.1497189700603485,-0.3254998028278351,-0.0775350630283355
2.9495771484374984,-0.2103558379642665,-0.0162678287118673,-0.7191998247236013,-0.1250184029340744,-0.2713275849819183,-0.0781385004520416
2.9595422363281187,-0.2481018504474312,0.0347410585135221,-0.5299947652071714,-0.0901000946760177,-0.2055336534976959,-0.0570148453116416
2.96950610351562,-0.1418407210721634,-0.1002203696399927,-0.4217179303616285,-0.0240116640925407,-0.1206834241747856,-0.020927932113409
2.979470947265625,0.0697296255147084,-0.5096066416949033,-0.2920014171242713,0.0320465452969074,-0.0535904131829738,0.0048930118791759
2.9894360351562455,0.283594841573108,-0.8148854735434055,-0.2262935579389333,0.022823104634881,-0.0745612308382988,0.0074280686676502
2.999401123046873,0.4012226932130753,-0.9012573505729436,-0.1880494597405195,-0.0646867677569389,-0.1821193844079971,-0.0128516368567943
3.0093662109375003,0.1605730219351127,-0.818636935031414,-0.1292974110424518,-0.207336351275444,-0.3120832443237304,-0.0417735576629638
3.0193300781249945,-0.2774896930984221,-0.5629980401426553,-0.238836228647828,-0.3976439833641052,-0.4349423348903656,-0.0927874743938446
3.0292949218749996,-0.664000938462466,-0.2137263373106717,-0.5533364778280258,-0.5737568140029907,-0.5010918378829956,-0.162493348121643
3.03926000976562,-1.0607835303362458,0.0822948368489742,-0.8143295932263136,-0.7227111458778381,-0.4869275391101837,-0.2261061519384384
3.0492250976562474,-1.2976691363729536,0.4317337129414081,-1.0945558168828486,-0.8198586106300354,-0.410958468914032,-0.2768787443637848
3.059189208984364,-1.4142778923645616,0.6620329993903636,-1.2913386181771755,-0.8425188660621643,-0.2556647658348083,-0.294636458158493
3.069154052734369,-1.4898567188315093,0.7529828518599271,-1.3543641064107417,-0.7722174525260925,-0.0421338230371475,-0.2869702577590942
3.079118896484374,-1.4952484948724507,0.9144456257089972,-1.5009616118222475,-0.6313604712486267,0.1595963537693023,-0.2741604745388031
3.0890839843749944,-1.4141343922406435,1.0140049010917545,-1.5526596503555774,-0.4606106281280517,0.2973684072494507,-0.2558735907077789
3.0990480957031252,-1.2148833742018788,0.9815233119428156,-1.6155232260257004,-0.2603707313537597,0.3455199301242828,-0.2458540052175521
3.1090131835937456,-0.9491809851340948,0.8571338389471173,-1.5451356845915316,-0.0497262775897979,0.3134285509586334,-0.2285080403089523
3.118978271484373,-0.7441965380098671,0.737514649093151,-1.2829331934034824,0.1296637207269668,0.20559823513031,-0.1978902071714401
3.1289428710937486,-0.5380166705559939,0.6136009769156575,-1.0726455983698366,0.2562358677387237,0.0338084585964679,-0.1565520912408828
3.1389069824218794,-0.4171552255559712,0.4494041019275784,-0.8073533244729042,0.3164416849613189,-0.1633117944002151,-0.1157450005412101
3.1488720703124997,-0.4371780594198033,0.3709817225977778,-0.5294365468025207,0.3175331652164459,-0.3348633050918579,-0.0786242485046386
3.15883715820312,-0.6171471981551497,0.3644067281216382,-0.2121744316935539,0.2764387130737304,-0.4482178390026092,-0.0502453371882438
3.1688022460937475,-0.8091364084973931,0.4518126243740319,-0.1075420908302068,0.20940463244915,-0.5439625382423401,-0.0473220124840736
3.1787670898437455,-0.9530994006868452,0.4977455235093831,-0.1476262639373541,0.1618877053260803,-0.610318660736084,-0.0695333033800125
3.1887309570312468,-1.249445934343338,0.491069114485383,-0.0700087712496519,0.1280003935098648,-0.6003276109695435,-0.1074580401182174
3.198696044921874,-1.4467502752937376,0.5676373903810977,0.1053150624305009,0.0915947183966636,-0.5386306643486023,-0.1494502276182174
3.2086611328124945,-1.4450811730377375,0.519376340559125,0.1807131255030632,0.0652811303734779,-0.4600781500339508,-0.1789370328187942
3.218626220703129,-1.3525078110195696,0.3977700685411691,0.1376332777112722,0.0495711453258991,-0.3940072357654571,-0.1910325735807418
3.2285900878906233,-1.254558162790537,0.4036959514588117,0.2212386126369237,0.0476097911596298,-0.3222697973251343,-0.1815240085124969
3.2385549316406212,-1.172831481218338,0.4160965833485126,0.3760451434671878,0.0447554141283035,-0.2628954350948334,-0.1483069360256195
3.2485200195312487,-1.0104475008711218,0.351331557971239,0.485395745024085,0.0493343919515609,-0.2248701602220535,-0.1104628965258598
3.258485107421869,-0.8496065121822058,0.2990986819088458,0.5392015694916248,0.0974116399884224,-0.2137070000171661,-0.0810775756835937
3.26844921875,-0.7684162755742668,0.2917220156610012,0.6365741484850644,0.1636721193790435,-0.2231668084859848,-0.0679207518696785
3.27841430664062,-0.705189565680176,0.3196680072069168,0.7183025836229324,0.2275022268295288,-0.2614646553993225,-0.0734297707676887
3.2883789062499957,-0.6031584568237885,0.2703454656332731,0.768613551712036,0.2772847712039947,-0.3132740557193756,-0.0906588435173034
3.298343994140623,-0.6113159712510183,0.1593938586205244,0.9358873499274252,0.3140840828418731,-0.3562912940979004,-0.1286514997482299
3.3083078613281245,-0.5294609505914152,0.1678273404449224,0.9999059408515693,0.3188903629779815,-0.412869781255722,-0.1763947755098343
3.318266601562499,-0.4549671428821981,0.0617974077433347,1.1795984911352395,0.3122290074825287,-0.4528006911277771,-0.2129767537117004
3.3282312011718744,-0.299186396724917,-0.0892541544675827,1.3540250837147234,0.2968865633010864,-0.4949283003807068,-0.2269495725631714
3.3381965332031243,-0.1325116238486021,-0.2032704097479581,1.4543179340690373,0.2591226696968078,-0.5438899993896484,-0.2312135547399521
3.3481616210937446,0.0117803445668891,-0.2746814490109682,1.5016723904401064,0.2035505175590515,-0.5897101759910583,-0.2402272969484329
3.358125488281246,0.0401530005596578,-0.3501736201077699,1.5155103616565464,0.1540023982524871,-0.598938524723053,-0.2485475540161132
3.3680905761718805,0.0126773299392312,-0.3196083859741687,1.4784130954056978,0.1106182560324668,-0.5935690999031067,-0.2741676867008209
3.378055175781249,0.0004617722928524,-0.2523638187408447,1.4149860406339168,0.0787146538496017,-0.5661923289299011,-0.2895346581935882
3.3880205078124987,0.0424353393431752,-0.2267085684806108,1.3961036455094813,0.0430590286850929,-0.5152322053909302,-0.3022506833076477
3.3979846191406224,0.1552360813539475,-0.2370744796723127,1.257332888200879,0.0069223316386342,-0.4693368673324585,-0.3167806267738342
3.4079494628906204,0.247463406413421,-0.3164484606385231,1.129001107320189,-0.0254058074206113,-0.4275916516780853,-0.3374651372432709
3.417914550781248,0.2544633483033627,-0.4337304397165775,1.0070832851350306,-0.0549652948975563,-0.3694100975990295,-0.366930603981018
3.427879394531246,0.2457788873925805,-0.4951163440495729,0.7748989155918359,-0.0725778639316558,-0.3125665783882141,-0.4054178297519684
3.4378435058593695,0.1839214200250804,-0.4673509697675704,0.594770896500349,-0.0683714002370834,-0.2498169243335724,-0.44953653216362
3.447808593749997,0.2438845250133424,-0.4044628441780805,0.4312017980217933,-0.0512088984251022,-0.1970314532518386,-0.4890503883361816
3.457773437499995,0.4145844252198934,-0.4195318184942007,0.306232187050581,-0.0194578934460878,-0.1585439890623092,-0.5112084746360779
3.4677385253906223,0.674120839003846,-0.4850029463142156,0.1247889937072992,0.0142908180132508,-0.1544886529445648,-0.5031930804252625
3.477702636718746,0.8927345099646598,-0.613495470714569,-0.0020978490620851,0.0452284924685955,-0.1406106501817703,-0.4526838362216949
3.487667480468744,0.9830440187040717,-0.73994099945724,0.022139351093769,0.0765330046415329,-0.0952843353152275,-0.3908349275588989
3.4976325683593785,0.997783176543936,-0.787793468478322,-0.0440612600445747,0.0912336558103561,-0.0395100191235542,-0.3419414162635803
3.5075974121093694,0.8939142943337559,-0.8058002498120069,-0.1391828452408313,0.1129346713423729,0.027639852836728,-0.3148908913135528
3.5175615234375,0.7963643129467963,-0.769139621412754,-0.1696095476865768,0.1304904818534851,0.1065607666969299,-0.305090993642807
3.5275266113281205,0.8231362922772765,-0.856229875844717,-0.1623719976484775,0.12925586104393,0.1932754069566726,-0.2931302189826965
3.537491699218748,1.0012177541024982,-1.04496264167428,-0.2677671395778656,0.0984425619244575,0.2575094997882843,-0.2844653725624084
3.547456542968746,1.1127278717808424,-1.2289461671501398,-0.4084633119910955,0.0492439456284046,0.3057906031608581,-0.2768673002719879
3.5574206542968696,1.0722335104376075,-1.2276274857670069,-0.5008651168346405,-0.0124625600874423,0.3577970862388611,-0.2719431221485138
3.5673854980468747,1.1062428936757147,-1.240156127950549,-0.5285480735301971,-0.0779841840267181,0.4407355487346649,-0.2475259751081466
3.577350585937495,1.3575219859197736,-1.5621166300088167,-0.6588380027413367,-0.1260752826929092,0.5117825269699097,-0.1984681487083435
3.5873156738281295,1.6772801556281745,-1.891672409501672,-0.8804045321583748,-0.1896480023860931,0.5487120151519775,-0.1527938246726989
3.5972805175781204,1.7551260502442716,-1.871414634370804,-1.1124328343570231,-0.2579626142978668,0.5582165718078613,-0.1431001871824264
3.607244628906244,1.5804849381312729,-1.5561808102190493,-1.2440917138338088,-0.3309533894062042,0.5399023294448853,-0.1542928963899612
3.617209472656249,1.3466897723905742,-1.157017826014757,-1.4165852925240994,-0.4069869220256805,0.4717970192432403,-0.1735816448926925
3.6271745605468695,1.1951865208894017,-0.7735159368008375,-1.6558932303369045,-0.4893873929977417,0.36562579870224,-0.1949338316917419
3.637139648437497,1.062562230446562,-0.3453513145178556,-1.8779571878820656,-0.5525011420249939,0.2611454725265503,-0.2289120405912399
3.6471035156249982,0.9141359752379358,0.2472814009100198,-2.019385181701183,-0.5696288347244263,0.1863634884357452,-0.2564408779144287
3.6570686035156186,0.7733269170347601,0.740263655540347,-1.952926796409488,-0.5256919860839844,0.1975088268518448,-0.2483294159173965
3.6670334472656236,0.7744152237281203,1.1425199295848607,-1.6495856546252965,-0.4267446994781494,0.2919217944145202,-0.1975828856229782
3.676998535156244,0.8544175657257437,1.386477154508233,-1.430069043475389,-0.31235471367836,0.4237171411514282,-0.0990107730031013
3.6869626464843748,1.0303484984535722,1.406864693498611,-1.1335855125010013,-0.2026553750038147,0.5780014395713806,0.0312295258045196
3.6969274902343727,1.2176852068148554,1.3475830679684877,-0.8933867633283138,-0.1206265538930893,0.709629476070404,0.1761582195758819
3.706892578125,1.36518419111073,1.2796329828143118,-0.7571002240508794,-0.0564457960426807,0.7983629107475281,0.3013771176338196
3.716857421874998,1.3918889504238965,1.1785294005990028,-0.5975976443588733,-0.0248838774859905,0.8575705885887146,0.3848631978034973
3.726821533203129,1.428314601023495,1.0615642323851584,-0.4964373635202646,-0.0232230611145496,0.8936319947242737,0.4381174147129059
3.7367866210937493,1.4571984579414128,0.9125368694782257,-0.3834533738970756,-0.0426726602017879,0.9273841381072998,0.477294385433197
3.7467517089843696,1.564463631526381,0.7311351771891117,-0.296520940375328,-0.0830474719405174,0.9474387168884276,0.5172020792961121
3.7567165527343747,1.71394034563601,0.566941224810481,-0.2896843723535537,-0.1372308135032653,0.9622485637664796,0.5602267980575562
3.766680419921869,1.7874333057396112,0.5488359515383839,-0.2687327697396278,-0.2170717120170593,0.9530096650123596,0.6050634980201721
3.7766455078124963,1.7502543525546788,0.6412713663905859,-0.3140653648942709,-0.3131031692028045,0.9089497923851012,0.658504068851471
3.7866105957031237,1.6333634186208248,0.8097562939614057,-0.4697913486570119,-0.41150763630867,0.8233461976051331,0.6981050372123718
3.796575683593744,1.463364725486189,1.0619520626589656,-0.7035755546122789,-0.4751052558422088,0.7278273701667786,0.7078779935836792
3.8065395507812454,1.249812283437699,1.2358365111857652,-0.9492091883152722,-0.4709101915359497,0.6391653418540955,0.6982150077819824
3.8165043945312505,0.9755243637889623,1.3554901878312229,-1.11622462785542,-0.3924140334129333,0.5893709063529968,0.6579136252403259
3.826469482421871,0.741087100752443,1.5380995023444295,-1.147097905024886,-0.2687502205371856,0.5447803139686584,0.6004000306129456
3.8364345703124982,0.6225526373952627,1.677872714693844,-1.0575222635179755,-0.1514648497104644,0.5163174867630005,0.5641610622406006
3.8463984374999995,0.5476653003238141,1.73063253723979,-0.70847852422297,-0.0594349838793277,0.5347614884376526,0.550452470779419
3.85636352539062,0.4956128953948617,1.7317817072749138,-0.2972492546498775,-0.0077901650220155,0.5773957967758179,0.5556299090385437
3.866328369140625,0.4503652020446956,1.7184017089590429,0.0875333220243454,0.0129134310409426,0.6479389667510986,0.5846753716468811
3.8762934570312453,0.434180813832581,1.7126435838237404,0.5040957693189382,0.0100031299516558,0.7426625490188599,0.619499146938324
3.88625854492188,0.4459904940918087,1.6762874913290142,0.8121639396250248,-0.0066882143728435,0.8293805122375488,0.665151834487915
3.896222412109374,0.4389973472688346,1.6489222222805022,1.044082351708412,-0.0377470627427101,0.8909072875976562,0.7147151231765747
3.906187744140624,0.5051691707041114,1.5826087984174488,1.2224246564269066,-0.0731217265129089,0.9176095128059388,0.7589441537857056
3.9161523437499994,0.5587606948338448,1.4334388121694326,1.3408955530285835,-0.0995796993374824,0.9164949655532836,0.7899872660636902
3.9261174316406198,0.5803999874509871,1.305174251306057,1.3987550368010997,-0.1287573724985122,0.8923130035400391,0.7996968626976013
3.9360815429687435,0.606879048249498,1.197023965449631,1.3968296216964722,-0.1396696865558624,0.8326044082641602,0.7915710210800171
3.9460463867187485,0.5751908014353364,1.0975436005219816,1.3149568096518516,-0.141311913728714,0.7439109086990356,0.7738924622535706
3.9560117187499984,0.5005602156039327,0.9919403687998652,1.2132967625975608,-0.1257630586624145,0.624718189239502,0.7431957721710205
3.9659765624999963,0.4426009977839887,0.8907605064779519,1.0615081182837485,-0.1019850894808769,0.4956712424755096,0.707205593585968
3.9759404296874976,0.3807457223735749,0.7984078014731407,0.9842115281134844,-0.0617276802659034,0.390551745891571,0.6656972765922546
3.985905517578125,0.3399582233026623,0.6689487701281904,0.9634849664270876,-0.0251153856515884,0.31260746717453,0.6358962655067444
3.99587036132813,0.3400769543115049,0.5253384638339281,0.9755226102232932,-0.0157517101615667,0.2502452731132507,0.620609700679779
4.005835693359373,0.3436643843442201,0.3999962201580405,1.0474673179715872,-0.0475982800126075,0.2048527151346206,0.6083535552024841
4.015799560546874,0.2772477923676371,0.2983975479021668,1.0704355211049317,-0.1129871383309364,0.1731190085411071,0.5807788968086243
4.025764404296872,0.1905826314799487,0.1771323444068431,1.0934709442555903,-0.1984795928001403,0.1601805984973907,0.556882381439209
4.0357294921874995,0.1976405871674418,0.0848731629043817,1.0107973372220993,-0.2909674644470215,0.1454551815986633,0.5297136306762695
4.0456943359374975,0.1942172616552561,0.0192354463458061,0.753378573179245,-0.3635104298591614,0.1331309378147125,0.491089791059494
4.055658447265614,0.1099034131340682,-0.0330345468565821,0.4855284314930438,-0.3948547542095184,0.1160227879881858,0.44249427318573
4.065623779296864,0.0126188777502626,-0.0064440615728497,0.1652811630934476,-0.4011158645153045,0.0789702162146568,0.3803374767303467
4.075588378906247,-0.0359694312646985,-0.0182213008671998,-0.098214875036478,-0.3900634944438934,0.0364877358078956,0.2995148003101349
4.085553466796874,-0.0378965999349951,-0.0348240606218576,-0.3321750220805406,-0.3728544116020202,-0.0164708197116851,0.2294299602508545
4.095517578124998,0.0062728697244077,-0.0547708701074123,-0.5413754063993692,-0.3642849028110504,-0.0578595399856567,0.1741826832294464
4.105482421874996,0.0214217043437063,-0.1067830891564488,-0.7731137857407331,-0.3575445115566253,-0.1075706630945205,0.1344112902879715
4.1154477539062455,-0.0448783485811203,-0.0978659154683351,-1.0395885474205016,-0.3411540687084198,-0.1354198604822158,0.0927834212779998
4.125412353515614,-0.1238841538220643,-0.0797948367267847,-1.2565823620945211,-0.3211073279380798,-0.1421892791986465,0.0537510439753532
4.135376464843745,-0.2245154423505067,-0.048588966602087,-1.5110031133651731,-0.2963119447231293,-0.1262443959712982,0.0180883891880512
4.145341552734372,-0.3648721536763012,-0.0364428939953446,-1.5717349377036094,-0.2496000528335571,-0.0355713255703449,-0.0238324180245399
4.15530639648437,-0.4382851073462516,-0.0544072974920272,-1.5841110196739434,-0.1888690590858459,0.1016531065106391,-0.0480064637959003
4.16527172851562,-0.3836182821352034,-0.1706865292683243,-1.5583832886993885,-0.1241897642612457,0.2494207620620727,-0.0515825599431991
4.175235595703121,-0.1908919166248291,-0.3184872729897499,-1.528840383350849,-0.0734839886426925,0.3616458475589752,-0.035887487232685
4.185200439453119,-0.0075683894276618,-0.4334054455459117,-1.4142372680932285,-0.0337869226932525,0.4232352972030639,-0.0163398794829845
4.195165527343747,0.1430604903917759,-0.5242202734589576,-1.2147551447123288,-0.0139682125300168,0.442281424999237,0.0069763623178005
4.205130371093745,0.2193711382646113,-0.6014186639517546,-1.0366665224939584,-0.0084145739674568,0.4127565920352936,0.0220559760928154
4.215094726562498,0.2995722907699644,-0.7378767604038119,-0.7967313926935196,-0.0235178917646408,0.3871699869632721,0.0257947873324155
4.225059814453125,0.4293265056692064,-1.0094427077427506,-0.6168611477553844,-0.0512101612985134,0.3354476392269134,0.006573702674359
4.235024414062494,0.4401274472773074,-1.1586609170466662,-0.5777572178572415,-0.1069469302892685,0.2535476982593536,-0.0384092181921005
4.244989501953121,0.2534204881869256,-1.1551803814545274,-0.4413736479461193,-0.1754611283540725,0.1776705682277679,-0.1166611537337303
4.2549533691406225,0.0288690246749669,-1.0719035478308796,-0.3477612982690334,-0.2814498841762543,0.0859017670154571,-0.1997144967317581
4.264918701171879,-0.1052801372475922,-0.9214961287423968,-0.3646931438475847,-0.4113297164440155,-0.0122857484966516,-0.2802279889583587
4.2748837890625,-0.1820093027934431,-0.7906596715644002,-0.3670698098510503,-0.5488750338554382,-0.0898409932851791,-0.3527186810970306
4.284848388671875,-0.2392835340239107,-0.6053504504427314,-0.5201280357092619,-0.6890369057655334,-0.1630420088768005,-0.4065225422382355
4.294812499999999,-0.2888767822977155,-0.3431152260288596,-0.7706576247602701,-0.8228921294212341,-0.2075106799602508,-0.4381981790065765
4.304777343749997,-0.4910387924123555,-0.0253159353032708,-1.0527934814304112,-0.9407793283462524,-0.2234644591808319,-0.4362407326698303
4.314746337890625,-0.7345387750875204,0.3726861884281039,-1.4170119935035703,-1.0140082836151123,-0.2017056345939636,-0.4310465157032013
4.324710937499994,-0.8840784714307636,0.7354103702902793,-1.892190295895934,-1.00983726978302,-0.1540038734674453,-0.4087782204151153
4.334676025390621,-1.037178271408379,1.0255635291993617,-2.32997030326426,-0.9059264063835144,-0.079028695821762,-0.3599917888641357
4.344640136718745,-1.1937853488545864,1.270268649880588,-2.650725521185994,-0.7181892991065979,0.0231165643781423,-0.2830881774425506
4.35460498046875,-1.3735279488250614,1.4520914901912212,-2.669157834455371,-0.4682846665382385,0.1694570034742355,-0.189434677362442
4.3645703125,-1.5141075091212988,1.5659452483862637,-2.593611887344718,-0.1916832476854324,0.3071175813674927,-0.0895360559225082
4.374534912109375,-1.4944202273547649,1.5487369239538906,-2.465709730052948,0.0788150876760482,0.3733951449394226,0.0103133115917444
4.384499023437499,-1.4215528518036007,1.4649103474929928,-2.308351761174202,0.3182440400123596,0.3491112887859344,0.0882887691259384
4.394464111328119,-1.3969728295594452,1.3979191704988478,-2.029706669229269,0.5160924792289734,0.2479356825351715,0.136207565665245
4.404428955078124,-1.4315651272520422,1.3796186669155954,-1.720471793231368,0.6732787489891052,0.0891632065176963,0.1542534381151199
4.414394287109374,-1.5745628546059132,1.3722516452789306,-1.429631821101904,0.7943846583366394,-0.104137010872364,0.1351460516452789
4.4243581542968755,-1.7794358772449197,1.3613739851728082,-1.0667372511088848,0.866404116153717,-0.2799490094184875,0.0850008651614189
4.4343229980468735,-1.9387046481810508,1.3337284378781913,-0.6785019036322831,0.9027456045150756,-0.4230273365974426,0.0140478610992431
4.444288085937494,-2.0594804607242345,1.2590230332449075,-0.3495733161270618,0.8976221680641174,-0.5328879356384277,-0.0760098844766616
4.454252929687499,-2.202057478448004,1.2223334710121154,-0.0766319887816906,0.8540225028991699,-0.5931717753410339,-0.1868506371974945
4.464217285156245,-2.2790344812750813,1.1761761154711246,0.234423672902584,0.7714556455612183,-0.577366292476654,-0.314768373966217
4.474182373046872,-2.242472052553296,1.124523961906135,0.5582645818799734,0.6522411108016968,-0.5230439305305481,-0.4274195432662964
4.484146972656248,-2.094554696714878,1.098081945182383,0.8032949889928102,0.4954387247562408,-0.4453683793544769,-0.4960579872131347
4.494112060546875,-1.9108520340070128,1.0736062600955367,0.9819365689188242,0.3376243114471435,-0.3478380739688873,-0.5127691030502319
4.504076171874999,-1.7655657573245465,1.094480413559079,1.0794453415125609,0.1824715882539749,-0.2301182150840759,-0.4935365319252014
4.514041259765619,-1.7524167912855744,1.1202563675895332,1.1565472858935597,0.0510035865008831,-0.1015948578715324,-0.4668676257133484
4.524006347656247,-1.737488394483924,1.140825985148549,1.1385516104757785,-0.0576662346720695,-0.0058691576123237,-0.4465983510017395
4.533970947265622,-1.676285737763345,1.1373162234619258,1.0553402433037755,-0.1229498982429504,0.038745179772377,-0.4323272705078125
4.543935058593746,-1.5664786246106028,1.129147237792611,0.9255489112645388,-0.15335114300251,0.0194188505411148,-0.4244626462459564
4.553900146484374,-1.4594434603892266,1.085784481406212,0.8435755614548921,-0.1322000473737716,-0.0135039445012807,-0.4229180216789245
4.563865234374994,-1.4062752031728625,1.0366074857831,0.8267880927830934,-0.085388645529747,-0.0590071864426136,-0.414373517036438
4.573830322265614,-1.3411859142772853,0.9705021517127752,0.7926034991085529,-0.0283330827951431,-0.1137987971305847,-0.4081537127494812
4.58379418945313,-1.2656418668627738,0.9223141671270132,0.8556272337764501,0.0269989892840385,-0.1682228147983551,-0.4150329530239105
4.593759033203121,-1.129749952926114,0.8532070208922028,0.9197720814287662,0.0979690328240394,-0.2518665790557861,-0.4208745956420898
4.603724121093748,-0.9509071513395756,0.7626981901884079,0.9639613517671825,0.16122967004776,-0.3526428639888763,-0.4214809834957123
4.6136892089843755,-0.7868101565293967,0.6891109759300946,1.0946972711801528,0.2170745581388473,-0.443187415599823,-0.4104528129100799
4.623653320312499,-0.6848985458668321,0.5793026937335729,1.282301909762621,0.2561588287353515,-0.5135681629180908,-0.3999975323677063
4.6336184082031195,-0.6113428227253258,0.4783855740010738,1.468326585677266,0.270140677690506,-0.5651362538337708,-0.4022753238677978
4.643583007812495,-0.5004512753367424,0.3958963836237787,1.5739444304466246,0.2380413264036178,-0.603965163230896,-0.4130049347877502
4.65354809570313,-0.3941719709839671,0.2442036008998751,1.7036404854178429,0.1891635358333587,-0.6305379271507263,-0.4244248270988464
4.663512207031246,-0.3042293227955698,0.1054892499536275,1.8366665615946052,0.1202606186270713,-0.6353756785392761,-0.4300651848316192
4.673477294921874,-0.2010389243688434,-0.0550102318212389,1.9245885906755924,0.0337337180972099,-0.6163505911827087,-0.4328955709934234
4.683442382812494,-0.1730816807765513,-0.2243123209938406,1.9936755709052083,-0.0687194690108299,-0.5755216479301453,-0.4497384428977966
4.69340698242187,-0.1448898247107863,-0.3032134237512946,2.0192600940167904,-0.1780233085155487,-0.5267636775970459,-0.4796838164329529
4.70337109375,-0.107453097372502,-0.3561901039183139,1.9450433496832849,-0.2943385243415832,-0.4771371781826019,-0.5166003108024597
4.713336181640621,-0.071806468321383,-0.3610819676131009,1.86431561602056,-0.3865462243556976,-0.4218776226043701,-0.5465598106384277
4.723301269531248,0.0039698534790426,-0.3908779709398746,1.7704735492408274,-0.454591691493988,-0.3525487184524536,-0.5557117462158203
4.7332663574218685,0.110352837402001,-0.4366574330791831,1.6686317158788442,-0.4995850026607513,-0.2926832437515259,-0.5567876696586609
4.743229980468747,0.2252927833985537,-0.4561570833191275,1.5384873326182364,-0.5150420069694519,-0.254229873418808,-0.5545503497123718
4.753195068359375,0.3409130398094654,-0.5038324422076345,1.4148060078918934,-0.5023890733718872,-0.2296315878629684,-0.5412678122520447
4.763160156249995,0.4173071281820535,-0.587969399791956,1.3798644583702089,-0.4767939150333404,-0.1996428668498993,-0.5165891051292419
4.773125244140623,0.4770758796419948,-0.66118193551898,1.38127900134325,-0.4554747939109802,-0.1809504032135009,-0.4869851469993591
4.783089355468746,0.5200838312413543,-0.7156079377114772,1.33745213457644,-0.4337527453899383,-0.1848793625831604,-0.4597074687480926
4.793053955078129,0.556533301107958,-0.7823135757625103,1.2825748814851046,-0.4149364531040191,-0.2005989402532577,-0.4334641396999359
4.803019042968749,0.6051262132328004,-0.8561670397415757,1.2017337505757808,-0.3908222019672394,-0.2242491692304611,-0.4067342579364776
4.81298413085937,0.6016307723324745,-0.9256684459909796,1.1618863088339566,-0.3629689812660217,-0.2594830691814422,-0.3759262859821319
4.822947998046864,0.5902113334998488,-0.9081053167715668,1.0645067155778407,-0.3340307772159576,-0.301448792219162,-0.3579081296920776
4.832913330078128,0.5917466533083469,-0.9080833972007036,0.983015011805296,-0.284769207239151,-0.3311513066291809,-0.3411981165409088
4.842878173828119,0.6133217946480959,-0.9303446211084724,0.9258014247208832,-0.221300795674324,-0.3478416204452514,-0.3135159015655517
4.852843017578124,0.6216271931134164,-0.967902782869339,0.8889841444551945,-0.1520612686872482,-0.3522230386734009,-0.2767650783061981
4.8628071289062476,0.6457234504286199,-0.9782935362413524,0.8847031061351299,-0.0905841588973999,-0.3391643464565277,-0.2386214137077331
4.8727719726562455,0.6484424270637333,-1.0178834960907697,0.9150853849172592,-0.0317717120051384,-0.3054409921169281,-0.1884130984544754
4.882737304687495,0.6619736704185605,-1.05652565369606,0.9446019867807626,0.013504359871149,-0.2578234374523163,-0.140412300825119
4.8927021484375,0.6660528294909746,-1.0856401044994592,0.9055506638526916,0.0525359138846397,-0.2010070234537124,-0.0971244871616363
4.902666015624995,0.6447369236093015,-1.1422831982195376,0.9241928204804658,0.0954249948263168,-0.1251704543828964,-0.0614405125379562
4.912631103515622,0.6637623804662376,-1.1987798692062497,0.8919038312941789,0.1289896070957183,-0.0655310899019241,-0.0345343314111232
4.92259594726562,0.7322077748566865,-1.2381325131684542,0.7670353426098823,0.1632846295833587,-0.0396083816885948,-0.007867569103837
4.93256127929687,0.7985106773257256,-1.2595549481645223,0.7032868007987737,0.1971824020147323,-0.0167105216532945,0.0238027423620224
4.9425253906249935,0.7920254069596528,-1.2441668248966335,0.6803548380225897,0.2303482443094253,-0.0095278089866042,0.0583932027220726
4.952489990234369,0.7561310867577791,-1.2054752751916646,0.624713614821434,0.2667397856712341,0.0021775835193693,0.0949562713503837
4.9624550781249965,0.7360439920186996,-1.1606669961720704,0.5827203932225704,0.3017506003379822,0.0125180035829544,0.1251038014888763
4.9724199218749945,0.6891353066537529,-1.1270876749143004,0.5009563022494316,0.3485242426395416,0.009328069165349,0.1666626930236816
4.982384033203125,0.6841670167218893,-1.06757574775964,0.4246902241706848,0.4050682485103607,-0.0218885727226734,0.1994515210390091
4.992349365234375,0.6762866387356072,-1.017898109138012,0.3291816854834556,0.4661257266998291,-0.0633787587285041,0.2315615266561508
