time,ax,ay,az,gx,gy,gz
0.0,-0.5123823169533163,-0.4017506626099348,-0.6781564511954784,0.3112480640411377,-0.1313795149326324,0.3307565748691559
0.009964843749997954,-0.4098996284045278,-0.4938374101549386,-0.6934042892098427,0.2962699234485626,-0.1524094343185424,0.314385324716568
0.019930175781240678,-0.2298990533513016,-0.7782680997639894,-0.7016957322150469,0.2683486640453338,-0.1735085248947143,0.3207936882972717
0.02989501953123863,-0.0478115707551129,-1.1182739616006612,-0.5998047990143299,0.2226237654685974,-0.1582901626825332,0.3342732787132263
0.03986010742187318,0.0004372771724127,-1.3277268593758345,-0.4841185646951198,0.1054663807153701,-0.1549114137887954,0.3448817133903503
0.049824951171871135,-0.1395881107066292,-1.2720119864165782,-0.4949649528801441,-0.0795298367738723,-0.1786452382802963,0.3368679881095886
0.05979028320311386,-0.6311158830791711,-0.9786509713768958,-0.5548287622123956,-0.3060859739780426,-0.2157443165779113,0.3018530011177063
0.06975488281248943,-1.262304685264081,-0.4669985030680894,-0.7430114929437637,-0.5459795594215393,-0.256675511598587,0.217668354511261
0.07971997070312398,-1.8101799750767649,0.0730640671670436,-1.0624626425296066,-0.7487970590591431,-0.2672542929649353,0.0965893268585205
0.08968481445312193,-2.302730414161086,0.5291939702183008,-1.2711106536626815,-0.8838092088699341,-0.2157455682754516,-0.0188288744539022
0.09965014648436465,-2.5543206181809306,0.9581605565339326,-1.4782845005899667,-0.9257144927978516,-0.1287568509578704,-0.1169128343462944
0.10961499023436261,-2.667661458417773,1.303006844139099,-1.578059464550018,-0.8742939233779907,-0.003812788054347,-0.1909180879592895
0.11957885742187102,-2.565252931083738,1.5541285538643597,-1.5729256087929009,-0.7365890741348267,0.1159516796469688,-0.2088384926319122
0.12954394531249136,-2.2878530168943105,1.6667437101751563,-1.4533961430490017,-0.5491717457771301,0.2047324180603027,-0.182779461145401
0.1395087890624893,-1.8360775096602735,1.6802812371402978,-1.3082657875806092,-0.3462909162044525,0.2213274538516998,-0.1360052973031997
0.14947412109374625,-1.432760766777396,1.4989029257267712,-0.9860860898137092,-0.1595261245965957,0.2115938663482666,-0.0667359381914138
0.1594389648437442,-1.1173458869703112,1.351442666006088,-0.4390232854276895,-0.0192450024187564,0.181572750210762,-0.0020187366753816
0.16940405273436454,-0.8483498631846159,1.152756661438942,-0.0822983439803123,0.0994504913687706,0.0808309614658355,0.0550069995224475
0.1793691406249991,-0.6563523234054446,0.9164350459605456,0.1301747783988714,0.1664811670780182,-0.0904973000288009,0.0742837563157081
0.18933422851561943,-0.59730191281531,0.8211392732411622,0.3198439482957124,0.1940534114837646,-0.3023586869239807,0.0522604845464229
0.19929907226561738,-0.6625850803151726,0.81439213706851,0.4247773179322481,0.1989149898290634,-0.5084789991378784,0.0043158624321222
0.20926391601561534,-0.8213440750982612,0.6969424002081155,0.584078822094202,0.1697480380535125,-0.642545223236084,-0.030999518930912
0.2192290039062499,-1.0748406241960824,0.5509323392957448,0.7750707650274038,0.0881240591406822,-0.6564391255378723,-0.0592303648591041
0.22919409179687023,-1.3852781539820134,0.586700987291336,0.937720995095372,-0.0124262506142258,-0.5771592259407043,-0.0914519503712654
0.23915917968749056,-1.6508492448203265,0.6359919646829366,0.8445324237883091,-0.0821394249796867,-0.4469422399997711,-0.1247625052928924
0.24912402343748852,-1.8364108332678677,0.6456862602233886,0.6815916863411664,-0.1150275990366935,-0.3266600370407104,-0.1575867533683776
0.25908911132812307,-1.8836887172713876,0.6637848114937543,0.4847539399892091,-0.1097641289234161,-0.2366476058959961,-0.1830665469169616
0.26905371093749864,-1.9028756483003493,0.7291957335591316,0.3655407005876303,-0.065552718937397,-0.1989729404449463,-0.2215681374073028
0.2790180664062376,-1.8297005219742652,0.8806880252748728,0.2010784526616335,0.0077016428112983,-0.2346368432044983,-0.2906667590141296
0.28898315429687216,-1.7899921964421868,0.891875774243474,0.139692548328638,0.1135228797793388,-0.3006664514541626,-0.366582304239273
0.2989479980468701,-1.7803017002940178,0.916934227654338,0.254269360101223,0.2272497564554214,-0.3672089874744415,-0.4434036016464233
0.30891308593749045,-1.7656987360544505,0.8892226293861866,0.4383259508132934,0.322197824716568,-0.4017555117607116,-0.5173806548118591
0.318877685546866,-1.7474395873948931,0.8539835582226515,0.7741413752228021,0.388516753911972,-0.3969869315624237,-0.5885403156280518
0.32884301757812295,-1.6470209187038245,0.7623468925327063,1.120683945351839,0.405400663614273,-0.3676143884658813,-0.6475724577903748
0.3388078613281209,-1.538380803503841,0.6843465380072593,1.4114841699928045,0.4044239819049835,-0.333007663488388,-0.6974548101425171
0.34877294921874125,-1.32751599310413,0.6779419316619634,1.6919886260688304,0.3646539449691772,-0.3114717304706573,-0.7350418567657471
0.35873876953124295,-1.064781294735521,0.607643237555027,1.902535748821497,0.3125424087047577,-0.2932250797748565,-0.7586705088615417
0.3687038574218633,-0.8910166001308709,0.4600871162444352,2.0835797137141228,0.2438339293003082,-0.2787113785743713,-0.7705010175704956
0.37866870117187545,-0.8805368533011525,0.4480722688019275,2.2428461465626954,0.1644614040851593,-0.2706153094768524,-0.7884347438812256
0.3886337890624958,-0.7864206457551568,0.5124018253713846,2.333804766860604,0.0707921683788299,-0.2785816192626953,-0.8036861419677734
0.3985991210937385,-0.6639034694373607,0.4094102374523878,2.4017642043650147,-0.0325518772006034,-0.2825156152248382,-0.8037338256835938
0.4085637207031141,-0.6297269129388035,0.2406792261660099,2.4033014969348905,-0.1305104047060012,-0.2748395800590515,-0.7922729253768921
0.4185278320312449,-0.6812219031807035,0.1916056909173727,2.4216256736546757,-0.2188116014003753,-0.2541118860244751,-0.7729296088218689
0.42849267578124284,-0.7201314795505255,0.0458949052125215,2.3632734379291533,-0.3268368542194366,-0.2497061938047409,-0.7435517311096191
0.4384577636718632,-0.7556841467078774,-0.0528285038679838,2.2158231150805947,-0.4308232963085174,-0.2395521402359008,-0.7226871848106384
0.4484228515624977,-0.735832029768452,-0.2093915229767561,2.0469909815073013,-0.5072687864303589,-0.2167261838912964,-0.7176958918571472
0.4583876953124957,-0.6683700203921645,-0.4512544059693813,1.7782056047976016,-0.5536669492721558,-0.18528813123703,-0.6947881579399109
0.468352783203116,-0.5553839118771254,-0.6048714347541332,1.5030664751470089,-0.5659899711608887,-0.1566700786352157,-0.670113205909729
0.478317626953114,-0.3446971614580601,-0.788399617677927,1.091826684179902,-0.5378780961036682,-0.1729878783226013,-0.6324890851974487
0.4882829589843709,-0.1974858349971473,-0.9867781637310982,0.6658125179290771,-0.4767058193683624,-0.2196901440620422,-0.5907909274101257
0.49824780273436886,-0.0773365385881625,-1.090463579133153,0.3179319771945476,-0.3961078822612762,-0.3045699298381805,-0.5407953858375549
0.5082128906249892,0.137310548562929,-1.168399928511679,-0.0661421589493751,-0.3175145387649536,-0.4282622933387756,-0.4895982444286346
0.5181777343750014,0.2413980967587791,-1.240496319690347,-0.4207195669740438,-0.2347976863384246,-0.5552144050598145,-0.4364514052867889
0.5281428222656217,0.2416022227624431,-1.2607523412555457,-0.6640840867012738,-0.1515456736087799,-0.6580854058265686,-0.382983386516571
0.5381076660156197,0.2777441427835263,-1.3592661992385984,-0.8093108882814646,-0.0930360257625579,-0.6966584920883179,-0.3500161170959472
0.54807275390624,0.2421604776997119,-1.369775902815163,-0.9578063362687824,-0.0603206939995288,-0.6750231981277466,-0.3441025614738464
0.5580378417968745,0.2530451338022015,-1.4104752852112057,-1.0542921955555675,-0.0589424856007099,-0.5931534767150879,-0.3293451964855194
0.5680017089843687,0.4408289466101676,-1.615694198678434,-1.07116617346704,-0.0885970443487167,-0.450845330953598,-0.2843337655067444
0.5779670410156257,0.5552707338262349,-1.8311644570469856,-1.151331597071886,-0.1653997004032135,-0.2641839385032654,-0.2379084974527359
0.5879316406250013,0.4509454130854457,-1.7605039438903332,-1.210931787031889,-0.2617102563381195,-0.030042540282011,-0.2310694903135299
0.5978967285156216,0.4912292004179209,-1.6955153388902544,-1.3021002506881951,-0.3708280622959137,0.2044052332639694,-0.2306793481111526
0.6078618164062419,0.6088810357216745,-1.6906556238994002,-1.6075181987464426,-0.4599110782146454,0.3979962766170501,-0.2291435003280639
0.6178269042968623,0.8340866522934287,-1.7278186488628386,-1.9160551556080576,-0.5014737844467163,0.5455134510993958,-0.2278707772493362
0.6277919921874968,1.109193779370561,-1.7579408154040574,-2.2282447897583246,-0.4941647052764892,0.6168200969696045,-0.2483089417219162
0.6377568359374948,1.326437111826241,-1.641675319892168,-2.5869769793748856,-0.4460285902023315,0.601643443107605,-0.2808697819709778
0.6477219238281151,1.557538216177374,-1.638617393626273,-2.8467198024511338,-0.354726105928421,0.5422243475914001,-0.3036076128482818
0.6576867675781131,1.661140191079676,-1.5619830667570231,-3.043653994914889,-0.2279757261276245,0.4358491897583008,-0.3447856605052948
0.6676518554687476,1.7732947441413998,-1.3999059604018926,-3.2037083632707595,-0.0951361954212188,0.2788795530796051,-0.3873051702976227
0.6776166992187456,1.806833294997364,-1.1940025718018412,-3.246689426863193,0.0266268663108348,0.089828573167324,-0.4344050288200378
0.6875817871093659,1.630491078054905,-0.8247644780009985,-3.2459184424906966,0.123833566904068,-0.1083582788705825,-0.475484549999237
0.6975468750000005,1.3938365773603318,-0.3856239959344267,-3.14766440448761,0.1937925666570663,-0.2421659380197525,-0.516193151473999
0.7075119628906208,1.1626784821249545,-0.0900339066684246,-2.8167689008235928,0.2543514966964721,-0.2572841644287109,-0.5318613052368164
0.717475830078115,0.9951314929913728,0.1822051176264882,-2.494565237659216,0.312487781047821,-0.1870046854019165,-0.5410747528076172
0.727440673828113,0.9355331296622752,0.4413882609933614,-2.227978832298517,0.3807248771190643,-0.0699270591139793,-0.5248398780822754
0.7374057617187475,0.9492834225952624,0.6753165515944362,-1.9662176551371813,0.4272424280643463,0.0476262159645557,-0.4820732176303863
0.7473708496093678,0.9907572964951395,0.8725015039488673,-1.6677485033035278,0.4611633718013763,0.1765114963054657,-0.4284951984882355
0.7573359374999882,1.0453710763446986,1.05198479539603,-1.362494805896282,0.4767624735832214,0.2847719192504883,-0.374283105134964
0.7673007812500003,1.0925012955058366,1.1683841464206577,-1.1111918943852186,0.4573206007480621,0.3712671101093292,-0.330501526594162
0.7772658691406207,1.091517545165494,1.2828247645929456,-0.8284276766836642,0.4298223853111267,0.4437845945358276,-0.3031836152076721
0.7872307128906186,1.171829610699415,1.276691668665409,-0.5907429561585188,0.4012448191642761,0.5004907250404358,-0.284093827009201
0.797195800781239,1.352294898921251,1.1666513312786817,-0.4138303919821977,0.3654727637767792,0.5240160226821899,-0.2619174122810364
0.8071608886718735,1.517052768792957,1.1486658849939704,-0.3221791132450103,0.3349838256835937,0.4967316389083862,-0.2577452957630157
0.8171257324218715,1.6903002345904707,1.1676701529324054,-0.2287304296970367,0.3079240322113037,0.4420992136001587,-0.2647067904472351
0.8270908203124918,1.7459826665848492,1.2183464472025631,-0.0541547840356826,0.2867050170898437,0.3951338231563568,-0.2562946677207947
0.8370559082031264,1.675910620840639,1.3565174850523471,0.1387298407763242,0.2695822715759277,0.3649779558181762,-0.226395383477211
0.8470209960937467,1.629101377262175,1.5043144293814896,0.3396726843595504,0.2561959028244018,0.3501507937908172,-0.1829815953969955
0.8569848632812409,1.5889854938425123,1.6778104631125923,0.5539695150345564,0.2273932993412017,0.3426482081413269,-0.127220332622528
0.8669497070312389,1.52857793302238,1.8212439515352248,0.7834972325891256,0.2104622721672058,0.3437062501907348,-0.0572287328541278
0.8769147949218734,1.4764070162802934,1.9240268651396035,0.9610007483959198,0.1953368484973907,0.3303982317447662,0.0172036997973918
0.8868798828124937,1.4050605666860938,1.992837366515398,1.045382328391075,0.1964308768510818,0.3022805750370025,0.0761003047227859
0.8968449707031141,1.32773504268229,1.9925930363655089,1.227414719799161,0.2080970555543899,0.2758112251758575,0.1417456269264221
0.9068098144531263,1.2674568073302506,1.9813836600869887,1.4617273335427046,0.2050599902868271,0.2586836516857147,0.2162867039442062
0.9167746582031242,1.2412177658326924,1.8496330106735228,1.67419753331244,0.1813964694738388,0.2505346238613128,0.3022319972515106
0.9267397460937445,1.1985406536228953,1.7465268564641474,1.8514859450638288,0.1342848837375641,0.2487234324216842,0.3704805374145508
0.9367048339843649,1.114579417931661,1.6898007606357337,2.0154180316358805,0.0784121304750442,0.282096654176712,0.4213589131832123
0.9466696777343628,0.9853095524832606,1.5619973875433206,2.130028745678067,0.0246184095740318,0.3475963175296783,0.4711919724941253
0.9566347656249974,0.8508941408399492,1.465153800860047,2.2296014650642872,-0.0323874317109584,0.4398493468761444,0.4936807751655578
0.9666000976562401,0.8170909476984292,1.410162566000223,2.272282668927312,-0.0999009609222412,0.5112553834915161,0.4976440966129303
0.9765649414062381,0.9143208302855492,1.35229723700881,2.2333330528080464,-0.160224363207817,0.5404545664787292,0.4852579832077026
0.9865297851562502,1.0288814946409317,1.2416641944259403,2.1159581347495315,-0.2160037457942962,0.536066472530365,0.4800733625888824
0.9964936523437444,1.0041134755440055,1.1064812324762343,2.0147966848671435,-0.2581210434436798,0.5211412906646729,0.4754895269870758
1.0064587402343648,0.9601476386979222,1.0635925233423709,1.8849884016931056,-0.3090851604938507,0.4983813762664795,0.4603550434112549
1.0164240722656217,0.9279584566242992,1.052073934984207,1.6831798811912535,-0.37319216132164,0.4533680081367492,0.4416939914226532
1.0263889160156197,0.8060277749575674,1.0551309844672678,1.3970944101125,-0.4402047395706177,0.3931443393230438,0.4249906539916992
1.03635400390624,0.6711277216024697,0.9717664725601672,1.0906360130906103,-0.5075539946556091,0.3291642367839813,0.4227197766304016
1.0463186035156156,0.5226569696649909,0.8659159880787134,0.7771674450457096,-0.5518019199371338,0.2870945632457733,0.4336214363574981
1.0562839355468725,0.3720595809623598,0.7432482243090868,0.4780547346115112,-0.5748637914657593,0.2733536958694458,0.4569472670555115
1.0662487792968705,0.2508222153220326,0.6173159057855606,0.1448404326111078,-0.5936172008514404,0.2702785432338714,0.4760639667510986
1.0762138671874908,0.102183121080324,0.5096370368331671,-0.1761059239685535,-0.586392343044281,0.2803100943565368,0.4841562509536743
1.0861787109374887,-0.1319469757031649,0.4108990147054195,-0.4161994592010974,-0.5631227493286133,0.3384069502353668,0.4761976599693298
1.0961440429687457,-0.3705554600097239,0.2647621125429868,-0.7186895371139049,-0.5198888182640076,0.4032021462917328,0.4669972360134125
1.1061088867187436,-0.5517824533190578,0.186563897357881,-1.030313354074955,-0.4757208228111267,0.4434555470943451,0.4482336640357971
1.1160737304687416,-0.6667617084126919,0.1621744292497634,-1.2439409071862697,-0.4346601963043213,0.4636814594268799,0.4168866574764251
1.1260388183593761,-0.7592110787250101,0.1318625853553414,-1.423437642636895,-0.3778528571128845,0.4525907337665558,0.38588348031044
1.1360026855468703,-0.8055277164809406,0.1111079666182398,-1.564911813685298,-0.299851655960083,0.4343643486499786,0.354544997215271
1.145968017578113,-0.8318456684336065,0.0947948374599218,-1.606978685042262,-0.2106802314519882,0.3937245011329651,0.3449568152427673
1.1559328613281252,-0.8074997472062706,0.100825934317708,-1.5355723219543695,-0.1207866370677948,0.3441093564033508,0.3488160073757171
1.1658977050781232,-0.7408006850264967,0.0507236405432224,-1.398646315729618,-0.0282830707728862,0.2882839143276214,0.3774050176143646
1.1758627929687435,-0.702177524382621,-0.0370084189236164,-1.1774836909383537,0.0582639649510383,0.233977660536766,0.4269781708717346
1.1858276367187415,-0.6835689777635038,-0.1283352880120277,-0.9667775782316924,0.1342341005802154,0.1778334379196167,0.4800443351268768
1.1957929687499984,-0.7007587436258792,-0.1940095371887087,-0.7349976978361606,0.1883374154567718,0.1141066402196884,0.5279476642608643
1.2057578124999964,-0.6093456575587392,-0.3850152163863182,-0.5765542718082666,0.2376272082328796,0.0482003279030323,0.5691094398498535
1.2157229003906167,-0.5008087104722857,-0.5857128530368209,-0.5383493365764618,0.2982763051986694,-0.0563405714929103,0.5942584872245789
1.2256877441406147,-0.5380873246394098,-0.5782400329381228,-0.5754635539621115,0.3495155274868011,-0.2010237127542495,0.6016349196434021
1.2356530761718716,-0.6322128845356404,-0.5941761454775929,-0.5100263284116983,0.3945493996143341,-0.3456461727619171,0.5989477634429932
1.2456176757812472,-0.677552567018196,-0.6964125311151147,-0.4268751669943332,0.4223285615444183,-0.4839073717594147,0.5831059813499451
1.2555827636718675,-0.6262629631552845,-0.8523872289419173,-0.3546896362274885,0.433093786239624,-0.580467700958252,0.5526412725448608
1.2655476074218655,-0.5454375412717462,-1.0904285078197715,-0.197407070672512,0.4252806007862091,-0.6367030143737793,0.5170845985412598
1.2755117187499962,-0.521466517771408,-1.208091010648012,-0.0281008898466825,0.3614684343338012,-0.6490379571914673,0.4809508621692657
1.285477050781239,-0.3427430317156016,-1.413310800898075,0.1360772804409265,0.2589558959007263,-0.5960642695426941,0.4552239179611206
1.2954416503906145,-0.0780632636938244,-1.5939286493331193,0.2439461190074682,0.130934327840805,-0.5278075337409973,0.4265818893909454
1.305406738281249,0.0019422931741923,-1.5457237136125563,0.2248760923564434,-0.0245226360857486,-0.4707820117473602,0.3873338401317596
1.315371582031247,-0.1028075365889817,-1.3186737843483685,0.233670224186778,-0.2171413898468017,-0.4470986127853393,0.3441826403141022
1.3253369140624898,-0.3912236060397699,-0.9054396046936511,0.1610112306892872,-0.4424125850200653,-0.4670888185501098,0.2873113453388214
1.3353017578124877,-0.8273615818221122,-0.3914619083076715,0.0807791715890169,-0.7072384357452393,-0.5120598077774048,0.2084988206624984
1.3452668457031223,-1.2642496818520128,0.1400485221594572,-0.1523684900283813,-0.961150050163269,-0.5547025799751282,0.1032376512885093
1.3552319335937426,-1.7887099015466867,0.4765829084932804,-0.4517740459293127,-1.141679286956787,-0.5537240505218506,-0.0038105086423456
1.3651965332031182,-2.174750223197043,0.7755801758542656,-0.7570008553296327,-1.224223494529724,-0.4886478781700134,-0.0970509797334671
1.3751618652343751,-2.264236286724359,1.016901791577041,-1.0772370178133248,-1.2002545595169067,-0.3778147399425506,-0.1699318438768386
1.385126708984373,-2.277687158319354,1.138640457803011,-1.3057266244918109,-1.053936004638672,-0.2048655897378921,-0.1982857137918472
1.3950917968749934,-2.224129171133041,1.1227665968447924,-1.508806480103731,-0.8244299292564392,-0.0201431196182966,-0.2048208564519882
1.4050566406249914,-2.11578482400924,1.242591538403928,-1.5816747324377298,-0.5432198643684387,0.1374795287847519,-0.2178117483854293
1.4150207519531222,-1.849869157516956,1.25134446144104,-1.5537538753330706,-0.2641066312789917,0.2102845311164856,-0.2185225486755371
1.4249858398437425,-1.5438650801338254,1.1432874068260193,-1.3429355344235896,-0.0190585255622863,0.1949921250343322,-0.2197358906269073
1.4349506835937405,-1.3332258951835334,1.1026675194069742,-1.0211731852859258,0.1808385103940963,0.1056259423494339,-0.2467182427644729
1.444915771484375,-1.1484985656030475,1.0482143369466066,-0.7014543246746063,0.3444977402687073,-0.0493958629667758,-0.3067248165607452
1.454880615234373,-0.9223119751699268,0.949132908208668,-0.5307189878284931,0.4509964883327484,-0.2679456174373626,-0.3801335394382477
1.4648459472656157,-0.8121110403940082,0.902528685683012,-0.222224701064825,0.5105953216552734,-0.4899877309799194,-0.4570901095867157
1.4748107910156136,-0.8441638827368616,0.844916746930778,0.1274941610127687,0.5002647042274475,-0.6757554411888123,-0.5268300771713257
1.4847758789062482,-0.9496839662201702,0.7706897734642029,0.5203390481114387,0.4322725534439087,-0.777535080909729,-0.6004589796066284
1.4947404785156237,-1.0112022647611796,0.7679863597244024,0.7773743657946586,0.3154675364494324,-0.8330605626106262,-0.6762714982032776
1.5047058105468665,-1.0467196414094415,0.8063803877875209,0.8875584955662489,0.1735210567712783,-0.8413344621658325,-0.7518889904022217
1.514670898437501,-1.0978810157828032,0.8322367135778069,1.0160767389297485,0.0349796898663044,-0.7937996983528137,-0.8023087978363037
1.524635742187499,-1.169386893722415,0.8617077227339148,1.1293734477639197,-0.1068338975310325,-0.7005611062049866,-0.823292076587677
1.5346008300781193,-1.2618329760991036,0.9324576677396892,1.2017255672693252,-0.2493030577898025,-0.5458651185035706,-0.8438569903373718
1.5445646972656135,-1.3168467150516807,1.010836792449653,1.305212829750776,-0.3623233437538147,-0.3561740219593048,-0.8524976372718811
1.554529785156248,-1.269102090319246,1.0075511949077247,1.3645511539041997,-0.4533359408378601,-0.1611748188734054,-0.8361000418663025
1.5644948730468684,-1.114321570713073,1.0341355427116157,1.4124702584207056,-0.5117095112800598,-0.0112665444612503,-0.8092426061630249
1.5744597167968664,-0.9324027226820588,1.075826858754456,1.3696283110380172,-0.5325803160667419,0.0518790744245052,-0.7920204401016235
1.584424804687501,-0.7410483761772513,1.1167387148573995,1.2789268803715703,-0.5088563561439514,0.0381571352481842,-0.7929160594940186
1.5943898925781212,-0.519683104953356,1.1060092310503125,1.2583610622048378,-0.4558355808258056,-0.0261257253587245,-0.7943174242973328
1.6043549804687416,-0.2562090229269117,1.029095210456848,1.307490127032995,-0.3907894492149353,-0.1283756643533706,-0.7840530872344971
1.6143198242187395,-0.0455116415159776,0.9142685155764222,1.354956811606884,-0.3452490270137787,-0.2680773437023163,-0.7630053162574768
1.6242846679687375,0.1394733526200056,0.8266644664034247,1.4712760831326246,-0.3309361338615417,-0.4052961766719818,-0.7328005433082581
1.6342495117187497,0.2902621357088908,0.6496861435145139,1.5659797351777551,-0.3436837494373321,-0.5276307463645935,-0.6946800351142883
1.6442148437499924,0.3472110439751297,0.3707829851552844,1.550515624064207,-0.36469367146492,-0.6083540916442871,-0.6478284001350403
1.6541796874999903,0.3269431493090465,0.1391597566261887,1.5927175199776886,-0.4054966568946838,-0.6440303325653076,-0.5958520174026489
1.6641447753906249,0.3424105483582243,-0.1453323077812791,1.615388201469183,-0.4656963646411896,-0.6420537233352661,-0.5260172486305237
1.6741088867187415,0.2808841761086136,-0.3975231080427766,1.5651310093939304,-0.5285254120826721,-0.5920751690864563,-0.4556003212928772
1.684073486328117,0.203587823400367,-0.6588403408288955,1.4931208351939915,-0.5693455338478088,-0.4967705011367798,-0.3904128074645996
1.694038818359374,0.1095171628959942,-0.8722960445046425,1.242669572076201,-0.5676910877227783,-0.4015229940414428,-0.3288333415985107
1.704003662109372,0.050216302942438,-1.0516901963636278,1.0034072269707917,-0.533881425857544,-0.3376811742782593,-0.2807840406894684
1.7139687499999923,0.0737175991723314,-1.1194760308668017,0.6697223848491907,-0.4662712812423706,-0.3394421339035034,-0.2682527899742126
1.7239338378906126,0.1133432787891011,-1.117099364863336,0.2945563623040914,-0.3712973594665527,-0.3966657519340515,-0.2661073505878448
1.7338989257812472,0.1853691346153616,-1.2282938407212496,0.0994622447490692,-0.2569484412670135,-0.4812591969966888,-0.2662285268306732
1.7438640136718675,0.318024660446681,-1.288605101560056,-0.0580003535479307,-0.1503727287054062,-0.5908299088478088,-0.2759562730789184
1.753828613281243,0.4458074291424825,-1.374852767688036,-0.0394622418165206,-0.0806193575263023,-0.6715916395187378,-0.2734494209289551
1.7637937011718634,0.6081617815364152,-1.4631819162651896,0.003366261562705,-0.0561188049614429,-0.6991260647773743,-0.2464761584997177
1.773758789062498,0.7721197332020848,-1.578511299970746,0.0276011236310005,-0.0553560629487037,-0.679757833480835,-0.2139850556850433
1.7837238769531183,0.8786704018421471,-1.6675871752619742,0.0181722010284662,-0.0904794260859489,-0.608174741268158,-0.192339152097702
1.7936887207031162,0.85305146500431,-1.6244851156383753,0.0196101248770952,-0.1558557599782943,-0.4917857348918915,-0.1943868547677993
1.8036525878906247,0.8091458339128643,-1.5142226599335669,-0.0523918660163879,-0.2403533309698104,-0.3461640775203705,-0.2033622413873672
1.813617675781245,0.845604363868758,-1.418603354348242,-0.1622837348431348,-0.3290417790412903,-0.1859951466321945,-0.2120702415704727
1.8235827636718653,0.9403297893542796,-1.2273200272530316,-0.3795265558421611,-0.4010480642318725,-0.0342599563300609,-0.218323603272438
1.8335478515624999,1.0599631538640708,-1.078575865201652,-0.7141127307176589,-0.4358603060245514,0.0983572751283645,-0.2029747515916824
1.8435126953124978,1.2183808609288185,-1.1007631470903754,-1.0827771162837745,-0.4157161712646484,0.2200437635183334,-0.1572301685810089
1.8534777832031182,1.4406110418863594,-1.0922492935061454,-1.4201748414486646,-0.357982188463211,0.2909404635429382,-0.10513287037611
1.8634428710937385,1.563104472002387,-0.9438844861611724,-1.8344284272789957,-0.2549207806587219,0.2940798103809356,-0.0658182203769683
1.873407958984373,1.572525649689883,-0.8526613697081804,-2.113414295485616,-0.1067245379090309,0.2566604018211365,-0.0283549986779689
1.8833725585937486,1.583425375497341,-0.8283063883915543,-2.3379846828937527,0.0645888894796371,0.1894121021032333,-0.0191290117800235
1.893337646484369,1.6417080531179904,-0.8417679275110364,-2.5236019470512865,0.2526496350765228,0.0885796472430229,-0.0346107631921768
1.9033027343749893,1.701213550531864,-0.885314516031742,-2.5792612904310226,0.4328902661800384,-0.0093565005809068,-0.0546265468001365
1.9132678222656239,1.8480435495249925,-1.0472601049616932,-2.5028859067589044,0.5802412033081055,-0.084367960691452,-0.0754498019814491
1.9232329101562442,2.0202479360103607,-1.2235729496791958,-2.389212765827774,0.6636018753051758,-0.1465485095977783,-0.088019922375679
1.933196533203116,2.088246974872797,-1.3509434843122958,-2.282756132146716,0.66465163230896,-0.2109811156988144,-0.0938445255160331
1.9431616210937506,1.9817802581891415,-1.2874369345635177,-2.324019285905361,0.5695626735687256,-0.2893605828285217,-0.1198739930987358
1.953126708984371,1.757529311993718,-1.09856271443665,-2.3467571874141693,0.4126871526241302,-0.3236120343208313,-0.1789311915636062
1.9630917968749912,1.3678857051543891,-0.7273918990075587,-2.4034616559326647,0.2447860389947891,-0.293632298707962,-0.2603964805603027
1.9730568847656258,0.945756563643366,-0.2520911392793059,-2.575478264760971,0.1115977019071579,-0.2011831700801849,-0.311787486076355
1.9830217285156237,0.6249371944442391,0.2349284075543284,-2.577410694128275,0.0423818826675415,-0.0190048441290855,-0.3199924230575561
1.9929870605468665,0.5454401350876316,0.6640639206960797,-2.544097622591257,0.0269960463047027,0.2169266790151596,-0.2952583134174347
2.002951660156242,0.5540235467767343,1.0592013026461005,-2.446586511909961,0.0683682560920715,0.4665812253952026,-0.2236717641353607
2.0129167480468624,0.7017877944126725,1.346668291211128,-2.35994107863605,0.1503178626298904,0.6756097674369812,-0.1176891326904296
2.0228815917968745,0.8357809620559215,1.6577473337709905,-2.1915794851839543,0.2432379573583603,0.8457863330841064,0.0004364363849163
2.032846679687495,1.0037987105064097,1.8926532372325655,-1.9669494765430688,0.3493508994579315,0.9588039517402648,0.1319643706083297
2.0428117675781152,1.1606676537591962,2.016968475948274,-1.7333879734277724,0.4506095945835113,1.0105912685394287,0.2630749940872192
2.052775878906246,1.2890228885807096,2.151081762839853,-1.4914000027507543,0.5542709231376648,1.016179084777832,0.3717980086803436
2.062740722656244,1.383296332515031,2.184395711159706,-1.2727590053915976,0.6575275659561157,0.979807436466217,0.4660587310791015
2.072705566406242,1.4493980133235451,2.133192470405996,-1.0216817193299532,0.7462833523750305,0.9353313446044922,0.544717013835907
2.0826706542968623,1.528008608701825,2.043095435373485,-0.7193161445796489,0.8095747232437134,0.8889539837837219,0.6112574338912964
2.092635742187497,1.5957894747689363,1.9122008182674648,-0.4072106815814971,0.8363603949546814,0.8418882489204407,0.6826503872871399
2.102600830078117,1.6732883095130324,1.7592241332128642,-0.0706406394124031,0.8294366598129272,0.811305820941925,0.766771674156189
2.112565673828115,1.7261609447836874,1.6196265696913004,0.2735509836763143,0.7857000231742859,0.7918846011161804,0.8566362857818604
2.1225307617187497,1.7408967416226864,1.511561331769824,0.5576707076400518,0.7296982407569885,0.7744038701057434,0.9507681131362916
2.13249584960937,1.7020451790504156,1.4382830373302102,0.7524339858055115,0.6579633355140686,0.7373127341270447,1.0409350395202637
2.142460693359368,1.6122449350073933,1.4782415382310747,0.8962345539748668,0.574993371963501,0.6755920648574829,1.1182423830032349
2.1524257812499883,1.4375886253252623,1.4957120207309722,0.9792524444013834,0.5028940439224243,0.5975961089134216,1.172263741493225
2.1623906250000005,1.0900205846060067,1.480872471256554,1.089544126200676,0.431006520986557,0.5263895392417908,1.196751832962036
2.172354736328117,0.7013929498761892,1.5873393340706825,1.1733826853603124,0.3362055122852325,0.4700964987277984,1.1741570234298706
2.182320068359374,0.4453105490036309,1.657134170308709,1.1951765840172768,0.2435344457626342,0.4255005419254303,1.1236515045166016
2.1922846679687495,0.2869565548248589,1.6880130004361271,1.2807570184081791,0.1572804301977157,0.4164918661117553,1.083024978637695
2.20224975585937,0.232551485822536,1.6943495099812744,1.3191302959442135,0.079331561923027,0.4429674446582794,1.0737662315368652
2.212214599609368,0.2207894440973177,1.6802800680965184,1.3789321459561583,-0.0010728761553764,0.5170566439628601,1.0950459241867063
2.2221799316406248,0.2788357922114431,1.7080235228076577,1.493668532204628,-0.0818529427051544,0.6094624400138855,1.126033902168274
2.2321447753906227,0.3559569527495652,1.7490689421623944,1.4978046090960502,-0.1492556929588318,0.6791504621505737,1.1603211164474487
2.242109863281243,0.414506647275947,1.7714172598317264,1.400766961145401,-0.1883415728807449,0.7071709036827087,1.1955314874649048
2.252074707031241,0.4757116420840844,1.816118571345508,1.3003805872887373,-0.203050211071968,0.7065826654434204,1.2267781496047974
2.2620397949218756,0.4458592689275741,1.8118994923457503,1.2336112363517284,-0.1871460825204849,0.6796780824661255,1.2530590295791626
2.2720046386718735,0.4044918145442381,1.7810621632725,1.1585609638035297,-0.1592610776424408,0.6185678243637085,1.269013524055481
2.281969726562494,0.356995575082302,1.7485460873320695,1.1060545314967631,-0.1321959048509597,0.5260626673698425,1.2735347747802734
2.2919338378906247,0.2780235625131055,1.6451473799169063,0.9852648365586996,-0.1043500006198883,0.4019369781017303,1.2616809606552124
2.3018986816406226,0.0821179093794897,1.5093854490354657,0.8996019845813512,-0.0632675439119339,0.3167783915996551,1.2371370792388916
2.3118640136718653,-0.2706752455769106,1.3450655321896074,1.0023521649599074,-0.0373130366206169,0.2992293834686279,1.2062009572982788
2.321828613281241,-0.5558727183073758,1.192542143860459,1.077071013596654,-0.0366163551807403,0.3139958083629608,1.173027515411377
2.3317937011718755,-0.7820107934236527,0.9937895037978888,1.1065946297228335,-0.0556580163538455,0.3544772863388061,1.127296805381775
2.341758789062496,-0.9650465166553854,0.792385180182755,1.1593319481760265,-0.0713783875107765,0.4081029891967773,1.0718176364898682
2.351723876953116,-1.035671666237712,0.5349374823063612,1.1987749007701871,-0.1025908812880516,0.4545817971229553,1.017133355140686
2.3616884765624917,-1.0937791334219276,0.4070546142369508,1.1720412076234816,-0.1327453255653381,0.4726904928684234,0.9574268460273744
2.3716535644531263,-1.1015967483703046,0.1975938254162669,1.0984335350990295,-0.160682812333107,0.4442636668682098,0.907013475894928
2.381618408203124,-1.1155823844291268,-0.023131577001512,0.9031763359367848,-0.1728614419698715,0.3722011744976043,0.8451226353645325
2.391583251953122,-1.1437602850347757,-0.1523924554258585,0.6495090333819389,-0.1556937396526336,0.2846453785896301,0.7669554352760315
2.4015483398437425,-1.229307401677966,-0.2651245161145925,0.4160550822943449,-0.1192073673009872,0.1907542943954467,0.6764004826545715
2.4115124511718733,-1.3360475284755229,-0.4168117458805441,0.2108990049302578,-0.0762455314397811,0.0923619046807289,0.5839664340019226
2.4214775390624936,-1.389270146227628,-0.5036614695549011,0.0315758724808692,-0.0373045168817043,0.0078536812216043,0.4783809185028076
2.431442626953114,-1.42991882134974,-0.4863000003874301,-0.1691267326056957,-0.0014534653164446,-0.0604381076991558,0.3671854138374328
2.4414072265624895,-1.4888986874543129,-0.4768298689916729,-0.4210404694914818,0.0626640021800994,-0.1262030005455017,0.275719940662384
2.451372314453124,-1.4889141772843897,-0.4794458967089652,-0.6700666682422161,0.1504240483045578,-0.1953253597021103,0.1970754563808441
2.4613374023437444,-1.5094903707146643,-0.3872448751345276,-0.822421129745245,0.2411456853151321,-0.2639736831188202,0.1238015070557594
2.4713024902343648,-1.5433378413893282,-0.2818640539914369,-0.8314204287588596,0.3468708395957947,-0.3160792291164398,0.0805102363228797
2.4812673339843627,-1.5146635355688631,-0.2757967167764902,-0.7885106768369674,0.4232045114040375,-0.361346036195755,0.0739117190241813
2.4912324218749973,-1.4109265361100434,-0.3104772772744297,-0.7474351546049117,0.4965065121650696,-0.3970104455947876,0.0851273536682128
2.50119775390624,-1.2761252669543026,-0.5215615756437182,-0.6330787075847387,0.5569504499435425,-0.4159833192825317,0.1110929101705551
2.5111623535156156,-1.1380214491218328,-0.6170142924904823,-0.477706359565258,0.5874761343002319,-0.4390570521354675,0.1280447244644165
2.5211264648437464,-1.0473455182228235,-0.6604670652478933,-0.3963999492317437,0.5793563723564148,-0.4794178009033203,0.1271941065788269
2.5310913085937443,-1.0188437924902884,-0.7633534392267465,-0.339884281283617,0.5624144673347473,-0.5511987805366516,0.1103975623846054
2.5410563964843647,-0.9559747369274496,-1.0036018727600573,-0.3016103724688291,0.5406010746955872,-0.6338963508605957,0.0750696659088134
2.5510217285156216,-0.8772224680561572,-1.3810083677083254,-0.1164782614797353,0.5117034316062927,-0.691448986530304,0.0402405709028244
2.5609865722656195,-0.7797861031115054,-1.716040532785654,-0.0022667758882045,0.4483529925346374,-0.760934054851532,-0.0021865107119083
2.5709514160156175,-0.6504256367702037,-1.966084384146333,0.0212041160702705,0.3441043496131897,-0.86434406042099,-0.0353540480136871
2.5809162597656155,-0.6517283168666065,-2.11663267301023,-0.0858627584636211,0.2125425934791565,-0.967295467853546,-0.072402611374855
2.5908815917968724,-0.6273677825920283,-2.1345658045858142,-0.0547954200267791,0.0221111197024583,-1.0078045129776,-0.1082903072237968
2.6008464355468703,-0.670519599641487,-2.089658741366863,0.0211772280633449,-0.2058589160442352,-0.997291386127472,-0.1356255263090133
2.6108115234374907,-0.9062490944456308,-1.859853375914693,-0.1278980656385421,-0.4880092740058899,-0.9785157442092896,-0.1676393896341323
2.6207763671874886,-1.2448632827281951,-1.3039520160347222,-0.4016553855419159,-0.7933105826377869,-0.9326854348182678,-0.2356280237436294
2.630740234374997,-1.718683448509872,-0.5974444996237754,-0.7092594454675912,-1.090229034423828,-0.8406828045845032,-0.3175063729286194
2.6407055664062398,-2.2013466998301445,0.03716010235399,-1.0357295339047907,-1.3212329149246216,-0.6797133684158325,-0.3862886428833008
2.6506704101562377,-2.5367782394886014,0.5945932018458843,-1.2818091578096151,-1.463150143623352,-0.4176568388938904,-0.435663104057312
2.6606354980468723,-2.6076635013118383,1.0076873885080218,-1.509798998272419,-1.499885320663452,-0.0745514333248138,-0.4622465074062347
2.6706003417968702,-2.518179337480664,1.2859782601878047,-1.5849001242250202,-1.441294550895691,0.3221263289451599,-0.4397244155406952
2.6805654296874906,-2.2033096704661843,1.5060343850418925,-1.657941395038366,-1.3065627813339231,0.6512426733970642,-0.3884649574756622
2.690530517578125,-1.7447959410183131,1.587080683134496,-1.7524205906778574,-1.11203932762146,0.8300755023956299,-0.3277177214622497
2.700495361328123,-1.2867265943370758,1.619413219201565,-1.7019816122949123,-0.860395610332489,0.8791415691375732,-0.2731412947177887
2.7104604492187434,-0.9325562327433377,1.538001594927907,-1.523312559840083,-0.562625527381897,0.7883375287055969,-0.2192312180995941
2.7204252929687414,-0.6634322717290372,1.3852607644557953,-1.4778572150886058,-0.2509475648403168,0.5380821228027344,-0.1947895139455795
2.7303906249999983,-0.5538926869386807,1.26518243265748,-1.2789543529003855,0.05211628600955,0.2082157284021377,-0.2144244760274887
2.7403544921874925,-0.5379486468210816,1.1217109503120184,-0.9872487038522958,0.3149212896823883,-0.1736719906330108,-0.2612356543540954
2.7503193359374905,-0.5816102400235832,0.9935331909492612,-0.7177122165143489,0.5058351755142212,-0.5764927864074707,-0.3390233814716339
2.760284423828125,-0.7252905428141355,0.8562681620284914,-0.2691705766350031,0.6020336151123047,-0.8913064002990723,-0.4217837750911712
2.770249267578123,-0.9395967258393764,0.8046300369888544,0.2518161217302084,0.586871325969696,-1.1160706281661987,-0.5210248827934265
2.7802145996093657,-1.1906495350468904,0.8317933537244796,0.6011556291013955,0.5068880319595337,-1.238423228263855,-0.6391893625259399
2.7901794433593636,-1.383671303307265,0.7457149066835641,0.8887205250829457,0.386180579662323,-1.251533031463623,-0.7436214685440063
2.800144531249998,-1.5292949952505528,0.6725260440930724,1.149934589755535,0.2189561575651168,-1.1553382873535156,-0.8113076090812683
2.810109374999996,-1.602234120863676,0.6632642947509885,1.4240905535876751,0.0277366172522306,-0.9658199548721312,-0.8551821112632751
2.820074707031239,-1.6025468400746583,0.6792670427858829,1.63958273152709,-0.1723477393388748,-0.7165696620941162,-0.8699418902397156
2.8300393066406144,-1.5192287976577876,0.6932458837777375,1.7712796049267052,-0.3542677164077759,-0.4338621497154236,-0.8653886914253235
2.840004394531249,-1.422310684433579,0.6833508049681782,1.8625415920853612,-0.5104706287384033,-0.1519966423511505,-0.8296264410018921
2.8499685058593656,-1.3015958082973955,0.7130915709763765,1.813000439324975,-0.6213058829307556,0.0705162733793258,-0.7975252270698547
2.8599333496093635,-1.150938652231544,0.7708239212378859,1.6339771666049956,-0.6674762964248657,0.1864862889051437,-0.7719330191612244
2.8698986816406205,-1.0508096872020511,0.7946098704949021,1.4451824414551258,-0.6463122367858887,0.2383087873458862,-0.758727490901947
2.879863281249996,-0.910623875463754,0.7387073660090565,1.455834768372774,-0.5666413903236389,0.2451736181974411,-0.7604502439498901
2.8898283691406164,-0.7265254183713347,0.6788096544072032,1.4687895270138978,-0.4670472741127014,0.1995197683572769,-0.7713407278060913
2.8997932128906143,-0.4978765660105272,0.5882897177875042,1.4507821611583231,-0.3479445874691009,0.0916236639022827,-0.7908851504325867
2.9097585449218712,-0.3168446203492581,0.4313020435258746,1.4097960707753896,-0.2146202176809311,-0.0892670899629592,-0.8063413500785828
2.919723388671869,-0.1768432252671569,0.2995321048900485,1.4498749831855295,-0.0848374441266059,-0.2983297407627105,-0.830919086933136
2.9296884765624895,-0.0702931776816025,0.2023059486299753,1.5110691643387075,0.0101195303723216,-0.5179904103279114,-0.8655322194099426
2.939653564453124,-0.03654595251102,0.0656084904640913,1.5904443143486977,0.0664951875805854,-0.6932061314582825,-0.8934347033500671
2.949618408203122,-0.0220364752411842,-0.1239905368059873,1.800989099013805,0.0816378146409988,-0.7815190553665161,-0.899280846118927
2.9595825195312386,0.0829259378267452,-0.3810235164016485,1.8514573034912347,0.0670266523957252,-0.8422159552574158,-0.8844577074050903
2.969547363281251,0.2184507354840636,-0.5766612393140792,1.8737398624479769,0.0332869365811347,-0.865725040435791,-0.8665719032287598
2.979512451171871,0.2863927103970199,-0.6931447614908218,1.840675212714076,0.0043234638869762,-0.8660414218902588,-0.8424434065818787
2.9894775390624915,0.2777643635876476,-0.8137251975923776,1.7454694563657045,-0.0012959227897226,-0.8398217558860779,-0.8143542408943176
2.999442626953126,0.3009454057540744,-0.8562097098395228,1.6114087764441969,-0.007852891460061,-0.8254505395889282,-0.8005020618438721
3.009407470703124,0.3925186508189887,-0.889089358395338,1.340894383984804,-0.010045476257801,-0.8288269639015198,-0.7877636551856995
3.019372314453122,0.4740523671023547,-1.0027943557694554,1.1426309887439012,-0.0076385117135941,-0.8500006794929504,-0.7678639888763428
3.0293374023437423,0.6007401071030646,-1.0762433306008576,0.8485825759619474,-0.007155030965805,-0.8878926634788513,-0.7440760731697083
3.0393024902343626,0.6822182207416743,-1.1992349194973706,0.6307061332345009,-0.0057922913692891,-0.9109828472137452,-0.6936028003692627
3.049267578124997,0.7077140426564962,-1.4041910903751849,0.3877425955235958,-0.0074597219936549,-0.9291461110115052,-0.6264309287071228
3.059232421874995,0.6544438594356179,-1.6154004764288663,0.1184592061638832,-0.029661962762475,-0.9172516465187072,-0.5518432855606079
3.0691975097656155,0.500759245307371,-1.7223723661556838,-0.1245464171230792,-0.0512797608971595,-0.8442826271057129,-0.4950398504734039
3.079161376953124,0.2667228181567043,-1.7817840478062628,-0.3497293834716081,-0.0744620412588119,-0.7117139101028442,-0.4501280486583709
3.089126464843744,0.1031112687759101,-1.7131714070901274,-0.6325918008506297,-0.0958785414695739,-0.5427756309509277,-0.430736780166626
3.0990915527343645,0.0143184482097625,-1.580551281365752,-0.8734498907148838,-0.1024751886725425,-0.3655073642730713,-0.4262062311172485
3.1090563964843625,0.0075198741108179,-1.4061056918248531,-1.1758201416403051,-0.0908608809113502,-0.2028108388185501,-0.4247188568115234
3.119021484374997,0.0828909030459821,-1.2800041542142628,-1.4184960945814846,-0.0647991821169853,-0.0674354210495948,-0.4081630408763885
3.128986328124995,0.2839741049479693,-1.1791820192888378,-1.6300737294256686,-0.0083393286913633,0.0392887964844703,-0.3705525398254394
3.1389514160156153,0.5514980103544891,-1.2281596929475664,-1.8049200087219477,0.0496893525123596,0.1291097700595855,-0.321384459733963
3.14891650390625,0.81612429462336,-1.2465870377808808,-1.8778309311538932,0.0970500633120536,0.19700887799263,-0.2712643146514892
3.158881347656248,0.8956381224516778,-1.144695812319219,-1.9609154570758345,0.1166139096021652,0.251621276140213,-0.2375825196504593
3.168846435546868,0.8637117560327052,-1.0362164406388998,-1.9414520471930503,0.121036484837532,0.3035181760787964,-0.2068054378032684
3.1788115234374885,0.8451802201725542,-0.9738368490934372,-1.9807097063481809,0.1020944863557815,0.3449993133544922,-0.1822883784770965
3.1887756347656193,0.9038170449931174,-0.946430663512647,-1.9260358668744564,0.0612646341323852,0.4072255194187164,-0.1701387763023376
3.1987404785156173,0.9475829022876918,-0.8762158482968807,-1.9193156187087297,0.0092307263985276,0.4674031138420105,-0.1813493520021438
3.2087053222656152,0.947867491382733,-0.6974293069422245,-2.034303349369764,-0.0261115431785583,0.5311238169670105,-0.1940555572509765
3.2186704101562498,0.9839237241480498,-0.6342723012834787,-2.1109937903404234,-0.0228736717253923,0.5974568128585815,-0.1919599175453186
3.22863549804687,1.1141693758260458,-0.6090490126997232,-2.2271125708580017,0.0101348934695124,0.6496985554695129,-0.1795597076416015
3.2386005859374905,1.2691373077630996,-0.590934679338336,-2.3266309297084806,0.0504431650042533,0.6667981743812561,-0.1617005467414856
3.2485654296874884,1.315279904126376,-0.538552165672183,-2.378278699359297,0.0938810333609581,0.6464591026306152,-0.1469461023807525
3.258530517578123,1.2103351363129913,-0.3553673893585801,-2.398407295152545,0.118795171380043,0.5737284421920776,-0.1342545449733734
3.268495361328121,0.9929881973523648,-0.0763578480154275,-2.372154078999161,0.110334612429142,0.4902079999446869,-0.129780426621437
3.2784604492187412,0.7336758746478707,0.2609375858187675,-2.285771096053719,0.0895973742008209,0.4201453030109405,-0.1376495361328125
3.288425292968739,0.5258355266358703,0.5544041070595384,-2.235389985337853,0.0844069942831993,0.3955579102039337,-0.1440254151821136
3.29838940429687,0.3159010924214497,0.8065449306994676,-2.1511159573704,0.1012919694185257,0.4361151754856109,-0.1405204236507415
3.3083544921874903,0.1874206603176891,1.0264569709077478,-1.9711258854448797,0.1567225605249405,0.526375949382782,-0.1274099498987198
3.3183193359374883,0.1865967036489397,1.2041232760608196,-1.855761138164997,0.2172894924879074,0.599358320236206,-0.1036665365099906
3.328284423828123,0.2649061241235584,1.3864032124891876,-1.667995756062865,0.2879888713359833,0.663855254650116,-0.0743137001991272
3.338249267578121,0.3711076505323872,1.4955995002672076,-1.437177414175868,0.3599032759666443,0.7056663036346436,-0.0297789890319108
3.348214355468741,0.4843145621912553,1.5736764271602033,-1.1894739884614944,0.4284868240356445,0.7380691170692444,0.0227787587791681
3.3581799316406205,0.6163354433808476,1.5900114758893846,-0.9109639210730792,0.4916021525859833,0.752894401550293,0.0807970538735389
3.368145019531241,0.7491719883348792,1.5703750475272535,-0.679182871633768,0.5397710800170898,0.7416963577270508,0.136036604642868
3.3781098632812387,0.8517229928795248,1.5328955039605496,-0.4229296442389488,0.5779288411140442,0.7283797860145569,0.1745898574590683
3.3880749511718733,0.9053945965081452,1.4724217460364102,-0.1941343326121568,0.5878630876541138,0.6931900978088379,0.2243297100067138
3.3980388183593675,0.9792891962151974,1.39247873301059,0.0199696058392524,0.55877286195755,0.6421463489532471,0.2615602016448974
3.408003906249988,1.0276395317558198,1.3525208166316152,0.2809393403619528,0.5000083446502686,0.5978373885154724,0.2996244728565216
3.4179689941406224,1.0056305290434508,1.254807753637433,0.4970774149894714,0.4271684885025024,0.5714369416236877,0.3461922407150268
3.4279338378906203,0.9374659974209965,1.2029770286351442,0.7614537430852651,0.3331186473369598,0.5679442286491394,0.3909823596477508
3.4378989257812407,0.834279471451789,1.2229805367439983,0.9058627985417842,0.2329033613204956,0.5574851632118225,0.4153470993041992
3.4478640136718752,0.7032635660536587,1.2546730213418602,1.0210007513284682,0.1364462226629257,0.5466850996017456,0.4286642372608185
3.457828857421873,0.6040014469865709,1.3126198911368847,1.1548171011000872,0.048406109213829,0.5486973524093628,0.4290439784526825
3.4677939453124935,0.5356018644992262,1.3972396638020872,1.1697668329507112,-0.0244019497185945,0.5534388422966003,0.432212620973587
3.4777587890624915,0.4504838234556839,1.4265011218607424,1.261012453496456,-0.0813445895910263,0.5782546997070312,0.4434583485126495
3.487723876953126,0.4263256798854097,1.4995125820577144,1.3769178835242986,-0.1313935220241546,0.6166337132453918,0.4667690098285675
3.4976889648437464,0.4422990191627293,1.5580620939210057,1.3707020777493717,-0.165060669183731,0.645994246006012,0.4958128929138183
3.5076540527343667,0.4951134579727426,1.558860258561373,1.3702531649380922,-0.1730891466140747,0.6582080125808716,0.5315261483192444
3.517617919921875,0.5495190018991009,1.5641194942638277,1.338848557370901,-0.1575488001108169,0.6464989185333252,0.5777056217193604
3.527582763671873,0.5962238717876375,1.5074819535017012,1.3459008139699695,-0.1318752169609069,0.619903028011322,0.6220706701278687
3.5375478515624934,0.6397415995400398,1.4209683299139142,1.4481348615199328,-0.1161585822701454,0.5973601937294006,0.6606864929199219
3.5475129394531137,0.6515488686464727,1.336174369725585,1.53538469042778,-0.1167222782969474,0.5556148290634155,0.6871396899223328
3.5574780273437483,0.6262004923783242,1.231745150218904,1.5813748727083206,-0.1338711678981781,0.5132441520690918,0.7062257528305054
3.5674428710937462,0.5886891289012506,1.1384510727107524,1.6328560536205767,-0.1555970013141632,0.4656793773174286,0.7098963856697083
3.5774079589843666,0.5334465861614793,1.0751204640507697,1.5603326692014932,-0.1730604022741317,0.4126326441764831,0.7026960253715515
3.5873728027343645,0.4576208722613751,0.9476771564424036,1.489044964057207,-0.1857002526521682,0.3691820800304413,0.6889376044273376
3.597337890624999,0.3819904617376625,0.8456617200791835,1.4651181450247763,-0.2014949321746826,0.3315649330615997,0.6757349967956543
3.607302734374997,0.3518436722118407,0.7753522123172879,1.3900871616989374,-0.2251901626586914,0.2995458841323852,0.6550872325897217
3.6172678222656174,0.2962703266151249,0.6966472166538238,1.3227221829563378,-0.2480464726686477,0.2982348203659057,0.6430156230926514
3.627231933593748,0.1965954620286822,0.6115463824734091,1.1954372807800768,-0.2604584097862243,0.3038617968559265,0.6345835328102112
3.637196777343746,0.1300805242441594,0.5126102074250578,1.0353110162317751,-0.2650752663612366,0.3131274580955505,0.6321025490760803
3.6471618652343665,0.0898927080994471,0.4283388098061084,0.8804249904245137,-0.260069340467453,0.3268517255783081,0.6244840025901794
3.6571267089843644,0.0544140925589948,0.2819569929718971,0.6705202572286129,-0.2388780415058136,0.335929125547409,0.6172288060188293
3.667091796874999,-0.0101658585749566,0.0922127120122313,0.4258054919362068,-0.1992917507886886,0.3289780020713806,0.6055697202682495
3.6770571289062417,-0.0819362692022696,-0.0537915036812424,0.1712900481194257,-0.1681830883026123,0.2915448844432831,0.5910232663154602
3.6870219726562397,-0.1808636398896574,-0.1968804164499044,-0.0733586661994457,-0.1437731981277465,0.2269318848848343,0.5632965564727783
3.696987060546874,-0.3184105910243466,-0.3312015008732676,-0.2495715576738119,-0.1091603636741638,0.1689687222242355,0.5181311964988708
3.7069516601562498,-0.4420050777174532,-0.4708595624104142,-0.4723503854900598,-0.0854972079396247,0.0936175286769867,0.4572742879390716
3.7169169921874925,-0.5156155632534996,-0.5853782142549753,-0.6291986512809992,-0.067775472998619,0.0252358075231313,0.3852725327014923
3.7268818359374905,-0.5901243128035217,-0.7245631053224205,-0.6666460461437702,-0.0652696043252945,-0.0175547637045383,0.3187329173088074
3.7368459472656212,-0.6769086430914699,-0.7861945088490844,-0.629575667899847,-0.0828587189316749,-0.0252747349441051,0.2611063718795776
3.7468110351562416,-0.7338719086766242,-0.8554515849485993,-0.6254910289347172,-0.1169174686074256,-0.0116435745730996,0.2171152085065841
3.7567758789062395,-0.8397568799495696,-0.8732099444791674,-0.6286041925191879,-0.157867819070816,0.0111520187929272,0.1799108535051345
3.766740966796874,-0.9602144203238188,-0.789598764334619,-0.6834580647349358,-0.1900850385427475,0.0478335656225681,0.1354533731937408
3.776705810546872,-1.0275506113633512,-0.7564657255396247,-0.7106599599152803,-0.2005275636911392,0.0803321152925491,0.1029644086956977
3.7866708984374924,-1.016079661539197,-0.6838382962241768,-0.8131652256220578,-0.197204440832138,0.0825116261839866,0.0911785885691642
3.7966357421874903,-0.8886270015805959,-0.7009650798529387,-0.863419495087862,-0.177457109093666,0.0704003646969795,0.0879409834742546
3.8066010742187473,-0.7313682552926242,-0.7319207746088504,-0.8728361427307129,-0.1210489422082901,0.0450434908270835,0.0885335430502891
3.8165659179687452,-0.6048350847991183,-0.7382765733763575,-0.9153180246293544,-0.0588180571794509,-0.0135780097916722,0.1037234142422676
3.8265310058593656,-0.512411323852092,-0.7542395739227533,-0.9042880965709684,0.0061048613861203,-0.0993169695138931,0.128617838025093
3.8364958496093635,-0.4477930134691297,-0.7935171068221331,-0.9170780200392008,0.0639159604907035,-0.2210846841335296,0.149096742272377
3.846459716796872,-0.3945928267445415,-0.9037629036530852,-0.9632441434085368,0.1193061023950576,-0.3398705124855041,0.1562377512454986
3.8564250488281147,-0.2929832677684724,-1.084717144435644,-0.9462322183310984,0.1694962978363037,-0.4411236047744751,0.155667558312416
3.8663898925781126,-0.1654116941379383,-1.2345415029391646,-0.9070610684156416,0.1976195722818374,-0.5363702178001404,0.1428343206644058
3.876354980468747,-0.0160981712333858,-1.3957774822950362,-0.838387345162034,0.1931566447019577,-0.6203234195709229,0.1333798319101333
3.8863200683593675,0.0990079251103103,-1.458645441879332,-0.6800970638692379,0.1418253034353256,-0.6877909302711487,0.1119765490293502
3.896284667968743,0.0317719247759319,-1.300640115007758,-0.5919283665508032,0.0295088924467563,-0.7836958765983582,0.0906510204076767
3.90625,-0.2808383276728913,-0.944860637716949,-0.604610737991333,-0.1580002903938293,-0.894948422908783,0.0661273002624511
3.916214843749998,-0.9030164691999554,-0.4181742664054036,-0.6946341232657433,-0.3858624994754791,-0.9658556580543518,0.017245776951313
3.9261799316406183,-1.602821273101866,0.1097299562633037,-0.8319429913282393,-0.6061444282531738,-0.9675227999687196,-0.054553847759962
3.9361447753906162,-2.0988658379122613,0.5481348175317049,-0.9844278012126684,-0.7783574461936951,-0.8677735328674316,-0.1327626407146453
3.946110107421873,-2.351197654079645,0.918601284083724,-1.0819371583282946,-0.8702560067176819,-0.6541764140129089,-0.1847589910030365
3.9560739746093674,-2.324268876752257,1.1281558886677026,-1.167820375058055,-0.8728605508804321,-0.4047772586345672,-0.1831690818071365
3.9660388183593653,-2.1078167677395045,1.259654901407659,-1.4126760101258753,-0.7626098394393921,-0.2222945541143417,-0.1539733856916427
3.97600390625,-1.8544162994273008,1.334659873509407,-1.592798768520355,-0.5599760413169861,-0.1201434135437011,-0.1252099126577377
3.985968749999998,-1.6078560523986816,1.333792735286057,-1.6388362970739605,-0.296768844127655,-0.0703361928462982,-0.1085196062922477
3.9959340820312406,-1.5040408731371164,1.2617825610861182,-1.5215473037332294,0.0033688750118017,-0.0520240329205989,-0.1071989461779594
4.0058989257812385,-1.4582934135712682,1.2035264792114495,-1.3455378258764743,0.3001364767551422,-0.103192500770092,-0.128415822982788
4.015864013671873,-1.305931207153201,1.0651131570383905,-1.0609282725691795,0.5511510968208313,-0.231377363204956,-0.1660252511501312
4.025828613281249,-1.0914411919936535,0.8994801117673515,-0.5852741693586111,0.7155916690826416,-0.3961489200592041,-0.218321219086647
4.035793945312491,-0.8586327722679823,0.7577452439561486,-0.131807348036766,0.7747926712036133,-0.571530282497406,-0.2760164439678192
4.045758789062489,-0.7593238914497196,0.6762482794865965,0.2790045729070902,0.7451197504997253,-0.757993221282959,-0.3339247703552246
4.055723876953124,-0.7928993402499706,0.6437000548422336,0.515054970228672,0.6448653340339661,-0.9352529644966124,-0.3891320824623108
4.0656879882812405,-0.858189047088474,0.5989034662604331,0.7727326774686575,0.5068570375442505,-1.0303009748458862,-0.4575255215167999
4.075652587890616,-0.970630015876144,0.5917971413865685,1.03561905926764,0.3401268720626831,-1.0268210172653198,-0.5154341459274292
4.085617919921873,-1.0574330508645624,0.5785071594417095,1.1199667369931936,0.1670845746994018,-0.9400622844696044,-0.5530451536178589
4.095582763671871,-1.111653739743307,0.6124620360136032,1.2485276504546403,0.0075047640129923,-0.7733190655708313,-0.5578486919403076
4.105547851562491,-1.1572424285508691,0.66570467364043,1.4041004894822835,-0.1373327672481537,-0.542454719543457,-0.5444349050521851
4.115512939453126,-1.127689951656386,0.7527242009237408,1.5034773940354584,-0.2658289670944214,-0.3025459945201874,-0.5249802470207214
4.125478027343746,-1.055776004372537,0.8072247296571731,1.5596674832910298,-0.3624632358551025,-0.0717213079333305,-0.4841014742851257
4.1354431152343665,-0.9460958055350928,0.842109872816503,1.662537490656972,-0.4202607572078705,0.1218862384557724,-0.4480694532394409
4.145407958984364,-0.7630131013564765,0.9057683982565998,1.6190607525020837,-0.4246245622634887,0.2149934023618698,-0.4258027374744415
4.155372802734362,-0.6040780924193561,0.907801073127985,1.473921629205346,-0.3873418867588043,0.2228087186813354,-0.4208527207374573
4.165337890624997,-0.4616180886713787,0.8564695298194884,1.5169856949061151,-0.3084500432014465,0.1848164796829223,-0.4260869026184082
4.1753020019531135,-0.2966222453253344,0.7670569699198008,1.592312446308136,-0.2247570157051086,0.1097845658659935,-0.4464249312877655
4.185267089843748,-0.1704028900213539,0.665706427206099,1.6552531788676976,-0.1430301815271377,0.0120535101741552,-0.4709534645080566
4.195231933593746,-0.0156579897178336,0.535260430650413,1.7176619965076445,-0.0576811879873275,-0.1075756847858429,-0.4994559586048126
4.205196777343744,0.132155650017783,0.367963836081326,1.7581991740792988,0.0168505869805812,-0.2310138493776321,-0.5162791609764099
4.215161865234364,0.2330662669442594,0.1880664108753204,1.8708388803094624,0.0652863010764122,-0.3227664232254028,-0.5155651569366455
4.225126953124999,0.2763726169683039,-0.0054763855844736,1.989527219054103,0.0753529220819473,-0.3898873925209045,-0.5028887987136841
4.235091796874997,0.3226858571907505,-0.1782891132265329,2.146003728923201,0.0440522581338882,-0.4159821271896362,-0.4801426827907562
4.245056884765617,0.3432704165905714,-0.3533095800459385,2.2567291259646414,-0.0254780836403369,-0.4241758584976196,-0.4600043892860412
4.255021728515615,0.3432562054021283,-0.4863000003874301,2.2771306934803723,-0.1195888668298721,-0.4117918908596039,-0.4392154812812805
4.264987060546872,0.331994258686155,-0.6125546827331185,2.314306870186329,-0.22235669195652,-0.3731367290019989,-0.4220050871372223
4.274952148437492,0.3139746909361332,-0.7052659919172525,2.2029922750800845,-0.3179191946983337,-0.3430163562297821,-0.4102195203304291
4.284915771484364,0.3258921424187719,-0.7792664631515741,2.0251263557016848,-0.4008025825023651,-0.322508156299591,-0.4059187769889831
4.294880859374999,0.4438376269068568,-0.8802598629906773,1.878562752559781,-0.4546383619308471,-0.3221640586853027,-0.4115138351917267
4.304845703124997,0.5992602438088506,-1.012841994792223,1.6700860063403844,-0.4873091280460357,-0.3558162748813629,-0.4038569629192352
4.314811035156239,0.7815105888165533,-1.134544712921977,1.4798749846518038,-0.4908679127693176,-0.425780177116394,-0.3830768465995788
4.324776123046874,1.03664489518404,-1.2905565278887747,1.3314356507658958,-0.4738687872886657,-0.5413826704025269,-0.3235940933227539
4.3347407226562495,1.3264092009060084,-1.4742594828575848,1.241461949852109,-0.4372769594192505,-0.6864978075027466,-0.2208733260631561
4.34470581054687,1.54934453445822,-1.6157991203576323,1.1695885537743569,-0.4040210545063019,-0.8438290357589722,-0.0940416008234024
4.354669921875001,1.568473597820103,-1.7198136215835809,1.175541324698925,-0.3831258714199066,-0.9650529623031616,0.021380066871643
4.364635009765621,1.4832757330060005,-1.7268457121774554,1.1815694989472627,-0.3882984817028045,-1.0530470609664917,0.1091274991631507
4.374600097656241,1.2626418082639574,-1.7301222496300934,1.0083394226759672,-0.4132874608039856,-1.0961472988128662,0.1567408144474029
4.384564941406239,0.8131936479989439,-1.6644795646354555,0.7631196304708718,-0.4420375823974609,-1.063753366470337,0.1509977132081985
4.394528808593748,0.3281251621678471,-1.4873288077890872,0.4042956709176302,-0.4728647470474243,-0.9492438435554504,0.0891892090439796
4.404493896484368,0.006590776567161,-1.2684142541855572,-0.1000368297666311,-0.4815786480903625,-0.7743598818778992,0.0015080929733812
4.414458984374988,-0.1091993565179407,-1.0322364310920238,-0.6749836663782596,-0.466003954410553,-0.5630601048469543,-0.0615819245576858
4.424424072265623,0.0170505035221576,-0.9278060425415634,-1.256536769387126,-0.4143084287643432,-0.3399818837642669,-0.0543320029973983
4.434388916015621,0.3891860723301768,-0.8431734103947878,-1.9008716150015592,-0.3448598384857178,-0.1764885485172271,0.0059252115897834
4.444354003906241,0.7290180389046669,-0.6668965137735009,-2.544685067090392,-0.2755811810493469,-0.0792539492249488,0.0990282520651817
4.454318847656239,0.966016092339903,-0.6061170509010553,-2.937676084661484,-0.2093875259160995,-0.011634693481028,0.2114951461553573
4.464283935546874,0.992930110489577,-0.5265595300614834,-3.22968685413599,-0.1502055078744888,0.036533698439598,0.3099391758441925
4.474248779296872,0.8633191034533083,-0.4912783733218908,-3.501015485587716,-0.0977444350719451,0.0693092197179794,0.3689489662647247
4.484213867187492,0.6764085846148431,-0.4738315639585256,-3.6260914795428514,-0.0526763014495372,0.1167211160063743,0.3725847005844116
4.494178955078112,0.5081485518410802,-0.4158765108570456,-3.732055945792794,-0.0144588761031627,0.1555033922195434,0.3493688702583313
4.504142822265621,0.4740029750026762,-0.5281149428099393,-3.76397317905724,0.027151295915246,0.2056230157613754,0.3259420990943908
4.514107910156241,0.5332027674682438,-0.6308709684073924,-3.724351362764835,0.0555658936500549,0.2551274299621582,0.3048823475837707
4.524072753906239,0.6152966749176383,-0.7205483167231083,-3.673404434859752,0.0795445889234542,0.2963233888149261,0.300525963306427
4.534037841796874,0.6208075472936034,-0.7348764095440506,-3.585297112339735,0.0727750957012176,0.3328068554401397,0.2897055447101593
4.544002929687494,0.5355070988878607,-0.6102233171761036,-3.4863714586853978,0.0495246574282646,0.3741835057735443,0.2712658047676086
4.553968017578114,0.3508453818894922,-0.3572469194948673,-3.3507343232274054,0.0270715449005365,0.4273569881916046,0.23593071103096
4.563932861328112,0.1275920684292912,-0.0070811904326081,-3.1665351091742515,0.0155529715120792,0.4901951849460602,0.1947398632764816
4.573897705078124,0.0096804131455719,0.2945274284705519,-2.90599675180614,0.0266058892011642,0.5808436274528503,0.1652807742357254
4.583862792968745,0.0236275438249111,0.5864756541028618,-2.554139124134182,0.0626513212919235,0.6786006093025208,0.1430156826972961
4.593827880859365,0.1851369332946837,0.8586080031529069,-2.163440601414442,0.1364560276269912,0.7602009177207947,0.1440439224243164
4.60379296875,0.3958345704339444,1.027028925576806,-1.772132422363758,0.238948792219162,0.8045593500137329,0.1663343161344528
4.613757812499998,0.6009083763420582,1.1835481055438517,-1.4252970067679882,0.3465149402618408,0.8042970299720764,0.2025317400693893
4.623721923828114,0.7576905911594629,1.2859040259078145,-1.090728367549181,0.4628274142742157,0.7753526568412781,0.245367094874382
4.633686767578126,0.8574211314558983,1.3295672265455123,-0.7647773345500231,0.5646728277206421,0.7291313409805298,0.2788259983062744
4.643651855468747,0.9181370275728404,1.336093705704808,-0.4773883796572685,0.6457862257957458,0.6685429811477661,0.2982308566570282
4.653616943359367,0.9956237334877251,1.2921312298595904,-0.204909993648529,0.6909036636352539,0.609609067440033,0.3117463886737823
4.663581787109365,1.0885555535547435,1.1404600744456053,-0.0021580548167228,0.6972558498382568,0.5546956062316895,0.3243409991264343
4.673547119140622,1.1804105381704866,1.014065399107337,0.2058124954462051,0.6659227013587952,0.5203991532325745,0.3357899487018585
4.68351196289062,1.2290341376945375,0.9362053298354148,0.3598877893924713,0.5917751789093018,0.5042360424995422,0.3464372754096985
4.69347705078124,1.2513656503595412,0.947512613530457,0.4678022206664085,0.4959847331047058,0.4987421929836273,0.363920122385025
4.703441650390616,1.1999226095005868,0.9845938054293394,0.5832715973645448,0.3849965035915375,0.5111337900161743,0.3947480618953705
4.713406982421873,1.129839019449055,1.0605164768978952,0.6181856743574142,0.2699183821678161,0.5263747572898865,0.4414119720458984
4.723371826171871,1.0353229258652776,1.187673368780315,0.6186258193403482,0.1666058450937271,0.5489080548286438,0.482650488615036
4.733336914062491,0.9619995501749216,1.3259499128311871,0.5620458539843559,0.0868827924132347,0.5770779252052307,0.5258413553237915
4.743301025390622,0.9040499769661576,1.4373717677041888,0.4959036950349807,0.0589626133441925,0.60370272397995,0.5595561861991882
4.75326586914062,0.8817132036041467,1.5093223206713795,0.4725391860604286,0.0706384405493736,0.625897228717804,0.592458963394165
4.76323095703124,0.8729542892176657,1.570712024396658,0.4614180725872516,0.1044917628169059,0.619711697101593,0.6285994052886963
4.773195800781238,0.8912020397003739,1.594968221513927,0.5082265855133533,0.1444370448589325,0.5942369103431702,0.665459930896759
4.783160888671873,0.8788580333687365,1.592461791650951,0.6594599340319633,0.1849070787429809,0.5659536123275757,0.6944021582603455
4.793125732421871,0.8782724885657429,1.592058179286122,0.8679244052916765,0.2082456946372985,0.5430487990379333,0.7196454405784607
4.803090820312491,0.8646741713240742,1.5577040742635726,1.0601835916817188,0.2124030441045761,0.5231789350509644,0.7440817952156067
4.8130559082031255,0.8700332141391932,1.5287354616716504,1.2653753248810768,0.2136046588420868,0.5181727409362793,0.7622349858283997
4.823020996093746,0.9164652949683368,1.444764216043055,1.442235282087326,0.2044064998626709,0.5338354706764221,0.7786773443222046
4.832985839843744,1.0059245435539632,1.3120312775939702,1.6212673226356504,0.1842943131923675,0.5520323514938354,0.8062064051628113
4.842950683593742,1.1105625104404986,1.1920379937306045,1.7722148399502038,0.1503155380487442,0.5698980093002319,0.8316454887390137
4.8529147949218725,1.1577589997708797,1.0878016664475203,1.9092554124653336,0.1060388833284378,0.5868562459945679,0.846343994140625
4.862879882812493,1.1847816659267991,1.0059259317934512,2.0121634137541053,0.0400080978870391,0.5891137719154358,0.8512053489685059
4.872844970703113,1.1846103279478848,0.9238777631819248,2.007273888146877,-0.023477666079998,0.5670316219329834,0.8596555590629578
4.882810058593748,1.1946937689363957,0.8395806465998291,1.9568086062788963,-0.0920629799365997,0.5203068852424622,0.8740224838256836
4.892774658203123,1.1867488743465393,0.7682058476939797,1.816556670501828,-0.1468556523323059,0.4697766304016113,0.8774614334106445
4.902739990234366,1.0937412856295703,0.6918158509746194,1.694167723673582,-0.1792775243520736,0.4290061295032501,0.8802982568740845
4.912704833984364,0.9501979070916772,0.6078557112619281,1.5319780968546866,-0.2109672874212265,0.3910358250141144,0.884520411491394
4.9226699218749985,0.7942781543225049,0.5591334736689925,1.3009446509122848,-0.2374914139509201,0.358293354511261,0.8905181288719177
4.9326347656249965,0.591412270254828,0.46544952006042,1.0966788003861905,-0.2468798607587814,0.3470795750617981,0.8926584720611572
4.942600097656239,0.4072758192395791,0.3329173648804426,0.917409443950653,-0.2483563125133514,0.3489696383476257,0.890643835067749
4.952564941406251,0.2869125330200419,0.1943041362211108,0.740484020292759,-0.2640180885791778,0.3423229157924652,0.8750485777854919
4.962528808593746,0.217976761296764,0.0321957579448819,0.5262608393758536,-0.280624508857727,0.3119344711303711,0.8493933081626892
4.972493896484366,0.0596032586999237,-0.1306941260978579,0.2382324175357818,-0.2809845507144928,0.2805698812007904,0.806289792060852
4.982458740234364,-0.1749233996530994,-0.2663458746030926,0.0150450089186429,-0.2732365131378174,0.2463993728160858,0.7550715804100037
4.992424072265621,-0.3549022925974801,-0.360287310104072,-0.2643967863619327,-0.2869941294193268,0.1988028287887573,0.6980003118515015
