time,ax,ay,az,gx,gy,gz
0.0,-0.4049994352728128,0.4662877244502306,0.2830553096026182,-0.2511816620826721,-1.778544306755066,-2.71129846572876
0.00996484374999973,0.0088186817497014,0.4548451239377259,0.3048193976432085,-0.32697594165802,-1.797171950340271,-2.732978582382202
0.019929931640625398,0.4101831215210259,0.426262003532052,0.3333826443046331,-0.4169489741325378,-1.826602339744568,-2.736580610275269
0.029894775390625128,0.7309244570478797,0.5546352854669093,0.19948095433712,-0.5069098472595215,-1.8627421855926516,-2.751391887664795
0.03986010742187496,1.0291061702422797,0.7364344526410103,0.0345697935998439,-0.5668320059776306,-1.872267246246338,-2.776548385620117
0.04982495117187469,1.1932869708783924,0.9420634082138538,-0.1393850898146629,-0.5784231424331665,-1.846998929977417,-2.7691595554351807
0.059790039062500355,1.3519726812295614,1.0730004031568765,-0.4079395803779363,-0.5317043662071228,-1.818486571311951,-2.708361864089966
0.06975463867187592,1.537988881576806,1.2471645454078912,-0.6570587181091309,-0.4432229697704315,-1.8103123903274536,-2.623207092285156
0.07971997070312575,1.7924898584768174,1.375382636781037,-0.8972036912679672,-0.3227697908878326,-1.8320273160934448,-2.512877941131592
0.08968579101562568,1.996298320624232,1.40298814432621,-1.1126268956243992,-0.186460942029953,-1.900252342224121,-2.38838529586792
0.09965087890624957,2.1581486324861645,1.4304682719260453,-1.217078619223833,-0.0618654750287532,-1.973240613937378,-2.2731196880340576
0.1096157226562493,2.200046577017009,1.430384977556765,-1.2474714193999767,0.0581617876887321,-1.9982168674468996,-2.184915781021118
0.11958105468750091,2.086573050311208,1.3042720417693257,-1.2270482245743275,0.1927962899208068,-1.9405088424682615,-2.083313226699829
0.12954589843750064,2.0393657473258675,1.2005851650625468,-1.1142506974339486,0.3158561289310455,-1.8373124599456787,-1.9693171977996824
0.13951098632812453,2.0935534107178446,1.1641454859375953,-1.1316600973963735,0.4067404866218567,-1.7650742530822754,-1.8440778255462649
0.1494760742187502,2.12194349276945,1.1753949019655583,-1.1195616633236407,0.4753388464450836,-1.698974370956421,-1.7394391298294067
0.15944091796874993,2.1031493604503573,1.1081357216849923,-1.1108780061304568,0.5232177376747131,-1.6486003398895264,-1.6454108953475952
0.1694060058593756,2.0298270807385443,1.0786813714027403,-1.111995027461648,0.5602074265480042,-1.593920111656189,-1.5716623067855835
0.17937084960937533,1.8742130329176785,1.0335212102055549,-1.055287636333704,0.5796682238578796,-1.5206488370895386,-1.5176818370819092
0.18933593749999922,1.7036209039345382,1.0106611436218025,-1.0506757586240767,0.5914556384086609,-1.442473292350769,-1.4856241941452026
0.19930200195312509,1.6315680596366524,0.9672761754035948,-0.9506523728609084,0.6051695942878723,-1.346163034439087,-1.4661431312561035
0.20926684570312482,1.5308295113414525,0.9653267949014902,-0.8207043889552355,0.6025561690330505,-1.2548294067382812,-1.4548258781433103
0.21923193359375048,1.460317320614308,0.9278408215939998,-0.7267547701478004,0.5873841643333435,-1.1675139665603638,-1.4408440589904783
0.2291972656250003,1.436991243954003,0.9173685274183748,-0.5661866070508956,0.5688952803611755,-1.082990288734436,-1.4189667701721191
0.23916186523437588,1.4137583985351023,0.8818710975795984,-0.4455547330230474,0.5464299321174622,-1.006669521331787,-1.3929511308670044
0.24912695312499977,1.2986546402789652,0.8289590070813894,-0.2777344068408012,0.5187589526176453,-0.9190297722816468,-1.3700900077819824
0.2590917968749995,1.2264978972151874,0.7346943309754133,-0.0524304444611072,0.460354208946228,-0.819109320640564,-1.3505580425262451
0.26905712890624933,1.125036149211973,0.6301601897895336,0.1462315947085619,0.3701047003269195,-0.7134286761283875,-1.3205080032348633
0.27902197265625084,1.0767475537959486,0.5263350736558438,0.2986976998925209,0.2736157178878784,-0.6116956472396851,-1.2839559316635132
0.28898706054687473,1.1833072825253008,0.4186006751239299,0.3170587014913559,0.1854762583971023,-0.5509088635444641,-1.2481979131698608
0.29895288085937466,1.2477008442416786,0.3546639172643422,0.3008943331539631,0.1076195389032363,-0.5283364057540894,-1.213903784751892
0.3089182128906245,1.2520366814889012,0.305049699267745,0.2705167305469513,0.0459961704909801,-0.5304493308067322,-1.1843286752700806
0.31888281250000006,1.18412006021291,0.3122439946860075,0.218828628885746,-0.0076446877792477,-0.569006085395813,-1.165318727493286
0.3288479003906257,1.1170912546221166,0.3694610889017581,0.1713742192715406,-0.046852383762598,-0.6233846545219421,-1.1563748121261597
0.33881274414062545,1.0315084090784192,0.4283715430319309,0.1345820734471082,-0.0694708824157714,-0.69197678565979,-1.1386003494262695
0.3487780761718753,0.8546764358576386,0.5284603952467442,0.1371229901015758,-0.07319026440382,-0.7609785199165344,-1.1247167587280271
0.358742919921875,0.5829566496638581,0.6096662678152323,0.1321276660323143,-0.0743884220719337,-0.8162186145782471,-1.1217718124389648
0.3687080078125007,0.2766239613808691,0.6889969941616058,0.1888806498676538,-0.0740495920181274,-0.8450976014137268,-1.1342761516571045
0.3786728515625004,0.0271187469415366,0.7259031217545271,0.2384030979275703,-0.0740173682570457,-0.8349363207817078,-1.140221357345581
0.38863818359375024,-0.0688292060762643,0.6547066020250321,0.3086287267982959,-0.0563619546592235,-0.7952480316162109,-1.131866455078125
0.3986027832031258,-0.0288170022267848,0.4919266080975532,0.3926958340167999,-0.0353024750947952,-0.7424429059028625,-1.114609956741333
0.4085678710937497,0.1043657623490318,0.3575660684466362,0.4502677330195903,-0.0151757355779409,-0.7019050121307373,-1.09539532661438
0.41853369140624963,0.2051937424933537,0.2140589302659034,0.4906593646407127,0.0010929834097623,-0.6889199614524841,-1.065707445144653
0.42849902343749946,0.2932655187759548,0.0599345364809036,0.5576753838151693,0.0125452680513262,-0.6909439563751221,-1.0249605178833008
0.4384638671874992,0.3630111455773934,-0.1105412726461887,0.6252753403574228,0.0145093509927392,-0.7108068466186523,-0.9751945734024048
0.44842895507812486,0.3662909709656611,-0.2677162861734628,0.6380880601793527,0.0159911289811134,-0.7339383363723755,-0.938133955001831
0.4583937988281246,0.3682869305558502,-0.4683481641113758,0.634818244728446,0.0057760411873459,-0.7531474828720093,-0.9087507128715516
0.4683591308593744,0.3660220908964052,-0.6754062757045031,0.64980538598001,-0.0017413292080163,-0.7680407166481018,-0.8879906535148621
0.47832373046875,0.4022066262165084,-0.858501327908039,0.6086497842490672,-0.02020875364542,-0.7832779884338379,-0.8688382506370544
0.48828881835937565,0.3796688869222998,-1.0371376471370457,0.6230541571766137,-0.0584617294371128,-0.781068742275238,-0.8512734174728394
0.49825390624999955,0.3173972492633387,-1.1854565695136785,0.6746084033250809,-0.1095313057303428,-0.7652479410171509,-0.8409752249717712
0.5082189941406252,0.312679463493824,-1.2696318132817743,0.6401093368738889,-0.1761233508586883,-0.7542822360992432,-0.8364649415016174
0.5181840820312509,0.3164435287350788,-1.318122580206394,0.6373182448506355,-0.240556389093399,-0.7441137433052063,-0.8133718967437744
0.5281489257812506,0.2444088046157732,-1.3027619294673205,0.5870996312201022,-0.3012108206748962,-0.730221688747406,-0.7743070125579834
0.5381149902343747,0.2296057512268424,-1.257466743713617,0.5607692581772804,-0.3417782187461853,-0.7148581743240356,-0.7254598736763
0.5480800781250004,0.2336495284586213,-1.1732067442715168,0.4736187979906797,-0.3593131601810455,-0.731924295425415,-0.6788793206214905
0.5580449218750001,0.1990495223836041,-1.0519476782560349,0.3294657631218433,-0.3587805330753326,-0.7760009169578552,-0.6393755674362183
0.5680097656249998,0.1636044437865726,-0.9201409147411584,0.2219324401199817,-0.3257814049720764,-0.8370238542556763,-0.6012635827064514
0.5779750976562497,0.1461396969077177,-0.8300093929171561,0.1190396364003419,-0.2832038700580597,-0.913032293319702,-0.5606282949447632
0.5879399414062494,0.0526856247985735,-0.7520882411077618,0.1139613102227449,-0.2336421608924865,-0.9561577439308168,-0.5380828380584717
0.5979050292968751,-0.0204299990257713,-0.6966629987448454,0.1110527292996644,-0.1786758601665496,-0.9792899489402772,-0.5271093249320984
0.6078698730468748,-0.1208253051075618,-0.6979889866515994,0.1543856750696897,-0.1238375902175903,-0.955384373664856,-0.5260481238365173
0.6178349609375005,-0.1971106815418228,-0.6525272121593356,0.2298299153715371,-0.0791801065206527,-0.9000316858291626,-0.5414962768554688
0.6277998046875002,-0.2466577160537242,-0.6641878393366932,0.3102104430317878,-0.0490550398826599,-0.8188242316246033,-0.5633580088615417
0.6377648925781259,-0.2138629875686951,-0.6643927142590283,0.3962982424229383,-0.0235297065228223,-0.7282344102859497,-0.5700827240943909
0.6477297363281256,-0.094026730031101,-0.7102052018851042,0.4549164356082678,-0.0214295536279678,-0.6640075445175171,-0.5636681318283081
0.6576948242187495,0.0478607619253918,-0.7255047700867057,0.5260130020946264,-0.0287788119167089,-0.6217144131660461,-0.550532877445221
0.6676608886718753,0.1792086940231733,-0.7624260952487587,0.5503729518473148,-0.0371745750308036,-0.5983318090438843,-0.5343614816665649
0.6776259765624992,0.2722232239375822,-0.8252277115985751,0.5627192232012749,-0.0403195023536682,-0.5858812928199768,-0.5208166241645813
0.6875908203125007,0.3201593343878164,-0.8573504043072462,0.6142793145686387,-0.0414817109704017,-0.588407576084137,-0.5148466229438782
0.6975561523437506,0.3376068378709256,-0.8705097456097602,0.6313461847037076,-0.0506869293749332,-0.6120588779449463,-0.5104409456253052
0.7075209960937503,0.3458180917793885,-0.922607304854691,0.6436947941452265,-0.0678984895348548,-0.6321765184402466,-0.5044030547142029
0.71748583984375,0.2752341144576669,-1.0104393175646662,0.7209358547359704,-0.0942848250269889,-0.6208509206771851,-0.498749703168869
0.7274506835937498,0.1352927059344947,-1.0703265077725053,0.8275409569770097,-0.1348868012428283,-0.5789474844932556,-0.510315477848053
0.7374160156249996,-0.0004998392809182,-1.1032745453894135,0.8412900808662176,-0.1818175613880157,-0.5080631971359253,-0.5281304121017456
0.7473811035156253,-0.0609158756684511,-1.1356439063355326,0.8730307885199785,-0.2202837169170379,-0.4295544028282165,-0.5388728380203247
0.757345947265625,-0.0369447060376405,-1.1323106702595949,0.8477186526089906,-0.2429176568984985,-0.3694931864738464,-0.5385127663612366
0.7673110351562507,0.0459975618693977,-1.1371268383696675,0.8010708832025527,-0.2545385360717773,-0.3368112444877624,-0.5216591358184814
0.7772758789062504,0.1208926803885027,-1.1187234589338302,0.7813339170753956,-0.247410848736763,-0.3222632110118866,-0.4874695241451263
0.7872409667968743,0.207638541829586,-1.1276920705482365,0.7070709955126047,-0.2200360596179962,-0.3282699882984161,-0.4495586156845093
0.7972067871093742,0.2557319799996912,-1.1207125869244337,0.6628747109115123,-0.1752824336290359,-0.3579128384590149,-0.4155671000480652
0.8071718749999999,0.2332458247622474,-1.1057242766290902,0.6361550462901592,-0.1234207153320312,-0.3939988911151886,-0.3891847729682922
0.8171369628906255,0.2176034344723448,-1.1197709221601486,0.6692629506438971,-0.0743594244122505,-0.4144991040229797,-0.3696137368679046
0.8271020507812494,0.1207818404251709,-1.1672492971718311,0.7023673478662967,-0.0402009673416614,-0.4064900875091553,-0.3681498765945434
0.8370668945312492,0.0162738931264728,-1.167007012848556,0.7996013951718807,-0.0226041302084922,-0.3701440393924713,-0.383575439453125
0.8470319824218748,-0.1052571582308039,-1.1365677431821823,0.8629933786302805,-0.0238124541938304,-0.2998429834842682,-0.4148683547973633
0.8569970703125005,-0.1486653246615082,-1.1043494811445471,0.8895832793921231,-0.0198379512876272,-0.2284697294235229,-0.4346620142459869
0.8669619140625002,-0.0086851184979081,-1.0965297473043203,0.8023229290902614,0.0039569404907524,-0.1950434744358062,-0.4272480010986328
0.8769267578125017,0.2357541908539831,-1.0842989190235732,0.7303273679375648,0.0370922572910785,-0.2100429236888885,-0.4010398089885711
0.8868918457031256,0.4514604134028777,-1.062029511809349,0.6542945140928029,0.0696803033351898,-0.2646704614162445,-0.3716033697128296
0.8968569335937495,0.5125650165764615,-1.070626659762859,0.5688526113897562,0.0971058011054992,-0.3133586347103119,-0.355505883693695
0.9068220214843752,0.465694544330053,-1.1078782397925853,0.5190379023849964,0.1181588172912597,-0.3555138409137726,-0.3504053354263305
0.9167868652343749,0.356812217872031,-1.1449021485462785,0.48318566775918,0.1170735880732536,-0.3431354761123657,-0.3701873123645782
0.9267519531250006,0.229823631761223,-1.1456199414268136,0.4718225622236728,0.1153841912746429,-0.2971943318843841,-0.4071030914783478
0.9367172851562486,0.2000893320264294,-1.1561644240558149,0.4351011435478925,0.1009013876318931,-0.2391629815101623,-0.4407683908939361
0.9466831054687486,0.2434889863571152,-1.1482698714137076,0.4448626591056585,0.0770425349473953,-0.1682156473398208,-0.4570311307907104
0.9566477050781259,0.3035850700752809,-1.1426321577876806,0.4615922601103782,0.0511004216969013,-0.0979822352528572,-0.4657777547836303
0.9666127929687498,0.4307334133250639,-1.1630129747763276,0.4552765010923147,0.0253197383135557,-0.0318258665502071,-0.4485132992267608
0.9765778808593755,0.5922797007391228,-1.2314306774422523,0.4837409635543823,-0.0078765647485852,0.0321270190179348,-0.4053988456726074
0.9865429687499994,0.7134649343334138,-1.211191022489965,0.5187795437097549,-0.0478365048766136,0.0773261487483978,-0.3352791666984558
0.996508056640625,0.8812756889697164,-1.1749223160177469,0.4054775741785764,-0.0648439824581146,0.0823957398533821,-0.2558509111404419
1.0064729003906248,1.0460920110303908,-1.1933902851223943,0.2431903322041034,-0.0639141574501991,0.0517412275075912,-0.1617646217346191
1.0164382324218746,1.1048447173155844,-1.1914680848881605,0.0199532392263412,-0.0298962667584419,0.0124622648581862,-0.0649153068661689
1.0264028320312484,1.095670500126481,-1.248321021966636,-0.1475239726066589,0.0434663817286491,-0.0002289458643645,0.0259773042052984
1.0363679199218758,1.1926535683456807,-1.407447169561684,-0.3192810537159443,0.1414563208818435,-0.0174308363348245,0.1210995614528656
1.0463327636718756,1.4117165174439548,-1.721501428540051,-0.5159750076830387,0.2508014142513275,-0.0638787448406219,0.2223873287439346
1.0562980957031254,1.6319158501610158,-2.0256585628822443,-0.6435492481946945,0.3467902541160583,-0.1462335437536239,0.3235994279384613
1.0662629394531251,1.8294956470519304,-2.285372452124953,-0.6810831522971391,0.4201085567474365,-0.2486428469419479,0.4168172776699066
1.0762280273437508,1.985193719894439,-2.5089167113557456,-0.7036901209026575,0.4772530794143677,-0.3412497639656067,0.504988968372345
1.0861928710937487,2.0303923134058715,-2.613354406429827,-0.6723539023965597,0.5185531973838806,-0.3912019431591034,0.5683057904243469
1.0961579589843744,1.923753016634285,-2.56958686863482,-0.6365840853571891,0.5282804369926453,-0.4271341264247894,0.6050137281417847
1.1061237792968743,1.755649197335541,-2.3351503362506625,-0.5943225682109594,0.4813177287578583,-0.4397472739219665,0.5905637145042419
1.1160888671875018,1.6284432056143878,-1.9498405208319425,-0.5281587819516659,0.3919657468795776,-0.4357330799102783,0.5406728982925415
1.1260537109375015,1.7071886794187128,-1.59426299585402,-0.4825643209904432,0.283401757478714,-0.3927846252918243,0.4951082766056061
1.1360190429687496,1.8482316194429995,-1.3074357664972542,-0.4552864379644393,0.1685894280672073,-0.3004158139228821,0.4656039178371429
1.1459838867187493,2.0448381873875854,-0.9046294573545456,-0.4348158968657254,0.0765804126858711,-0.1643980592489242,0.4377171695232391
1.155948974609375,2.356019229017198,-0.5724824923247098,-0.3488040853202342,0.0018510501831769,0.0023464553523808,0.4317120015621185
1.1659138183593747,2.8116280308037997,-0.2192290263801813,-0.3854349031031131,-0.0607755295932292,0.0806095376610755,0.4479185044765472
1.1758789062500004,3.4289603032022717,0.1009668040931224,-0.4643687390863895,-0.1191695928573608,0.0987808182835578,0.4889948070049286
1.1858439941406242,3.868503813111782,0.3469751163274049,-0.3963292220830917,-0.1723164319992065,0.0564017221331596,0.5567241907119751
1.1958088378906258,3.98969624363184,0.6780559134304524,-0.1944271780788898,-0.2269857972860336,0.0484513901174068,0.6797047257423401
1.2057739257812496,4.05021471748054,1.0679764375150202,0.0277244577497243,-0.2567465901374817,0.0976906344294548,0.8466394543647766
1.2157390136718753,3.923400647686422,1.3264713063567877,0.0427823261499404,-0.252085268497467,0.1864607334136963,0.9842820167541504
1.2257041015624992,3.709421212397515,1.6301730981469154,0.3545663021087646,-0.2224112600088119,0.3439896702766418,1.065581202507019
1.2356689453125007,3.657885086427629,1.7756679030135274,0.4986076932966709,-0.2172846794128418,0.4835893809795379,1.0813790559768677
1.2456337890625004,3.6342300700739023,1.902787677755952,0.3481102578371763,-0.1788003593683242,0.6137787699699402,1.0364594459533691
1.2555988769531243,3.588620119282603,2.009626588752865,0.3498293367147445,-0.0989603921771049,0.8157867193222046,0.9282557368278505
1.2655639648437482,3.5772079139083623,2.401501461775601,1.205641863930225,0.096473217010498,1.3463045358657837,0.6540601849555969
1.27552978515625,3.611728607669472,2.9109765860453245,2.773268781793117,0.3738520741462707,1.9226336479187007,0.271226018667221
1.285491943359375,3.635908232419193,1.7438865710884333,0.2720312267631292,0.4437309503555298,1.8889884948730469,-0.0041137458756566
1.2954565429687506,3.0863714391350743,1.9703139845401048,-0.7820955490976571,0.4333470165729522,1.6268540620803833,-0.2491194903850555
1.3054216308593745,2.2315949769690637,2.0983359688192604,-0.330014629176259,0.4496603906154632,1.347070336341858,-0.3681719005107879
1.315386718750002,1.4933449993386865,1.3358797706931829,-0.6115525199532509,0.4728325605392456,1.0023337602615356,-0.206758514046669
1.3253518066406258,0.9231987679418177,0.816240395283699,-0.9255290375202894,0.464332103729248,0.703771710395813,0.1740413606166839
1.3353166503906255,1.024717287633568,0.9054214845150708,-0.8782844712644815,0.4409548640251159,0.5372452735900879,0.5881754159927368
1.3452817382812494,1.2853443461984395,1.124720069000125,-1.0132195959329604,0.418056845664978,0.4934068322181701,0.9053680300712584
1.355246826171875,1.348783968190849,1.1226152056753635,-1.241978082680702,0.3991052806377411,0.5495641827583313,1.112138032913208
1.3652116699218748,1.194939998782426,1.1049386792093514,-1.1407038200736046,0.3665217757225036,0.7373102903366089,1.2147756814956665
1.3751765136718745,0.9530367837794124,0.9873960033684968,-1.016286582288146,0.3132652044296264,1.0060170888900757,1.2685246467590332
1.3851416015625002,0.6197722859617323,0.7552893752366304,-1.0082114123821255,0.2353076785802841,1.2834824323654177,1.31760835647583
1.3951066894531259,0.4387418746704235,0.6655377926409244,-1.0482745427012443,0.1249271258711814,1.508944034576416,1.3638408184051514
1.4050717773437498,0.3096829120263457,0.6421031410396099,-1.0292676444143056,0.0102984700351953,1.6893349885940552,1.3914213180541992
1.4150368652343754,0.0963478847213555,0.601029956895113,-1.057092639929056,-0.1184187680482864,1.748599410057068,1.3826531171798706
1.4250014648437492,0.0769888028627261,0.6664812109708785,-1.2608213148385286,-0.2103780806064605,1.6825032234191897,1.32499361038208
1.434966552734375,0.0896849562334362,0.7010007356882095,-1.114721822077036,-0.2366357892751693,1.5792500972747805,1.2432310581207275
1.4449316406250006,-0.0421901780762244,0.806516289126873,-0.8268634961068629,-0.2330048382282257,1.4749871492385864,1.1553459167480469
1.4548977050781247,-0.0824925148455426,0.8730331266075372,-0.6124626205354928,-0.2228850871324539,1.3818994760513306,1.084503173828125
1.4648625488281244,-0.0374511394561268,0.903330649715662,-0.5624982739269733,-0.1962287276983261,1.2930532693862915,1.0176386833190918
1.4748278808593742,-0.1768400103967636,0.8468716803908347,-0.6972393373280763,-0.1718533486127853,1.2182501554489136,0.9483621716499328
1.4847927246093757,-0.3468757110735401,0.7934931414246559,-0.7135095041275024,-0.1604688912630081,1.189160704612732,0.9063196778297424
1.4947578125000014,-0.5173522508529946,0.721087830427289,-0.6885480813503265,-0.1510133445262909,1.1688446998596191,0.920993983745575
1.5047226562499993,-0.6234628841079771,0.571745410221815,-0.679721800816059,-0.1374721676111221,1.1766364574432373,0.9686916470527648
1.514687744140625,-0.7523020299889147,0.3738905957818031,-0.268669056853652,-0.1013980433344841,1.286283254623413,1.0567799806594849
1.5246525878906247,-0.5622248272804543,0.4615039973050355,-0.4067313736319541,-0.0424118302762508,1.1408809423446655,1.1739569902420044
1.5346176757812486,-0.2637326964300125,0.4263929364353418,-1.4054361220002174,0.1017019301652908,0.9027341604232788,1.232115387916565
1.5445825195312484,-1.008251013740152,0.0582785859674215,-1.059535941427946,0.3441503345966339,0.8585587739944458,1.1260501146316528
1.5545478515625017,-1.8444484476424752,0.191399939212203,-0.7544932564228772,0.6093776822090149,0.9033238887786864,0.8641269207000732
1.5645126953125015,-2.224377592936158,0.6286006853878497,-0.7559072148740291,0.8036676049232483,0.94283926486969,0.5800514817237854
1.5744777832031254,-2.331461856996268,0.9542419217854736,-0.8478326343774795,0.9213170409202576,0.9188990592956544,0.3889606297016144
1.584442626953125,-2.1733884333245457,1.192097322702408,-0.9999772525221108,0.9377871155738832,0.8150907754898071,0.3004285991191864
1.5944074707031248,-1.5505179621517655,1.4618226106107235,-1.2204092249512672,0.8728589415550232,0.645722508430481,0.2706315517425537
1.6043728027343747,-0.8750575451072304,1.3704746987342833,-1.3153601297557354,0.7961704134941101,0.5282825231552124,0.320496916770935
1.6143376464843744,-0.509207267113775,0.8999410072773695,-1.158058859500289,0.7295721769332886,0.5009254813194275,0.4456186294555664
1.6243027343750018,-0.3829423556350171,0.408870723748207,-1.162950723195076,0.6486653089523315,0.4934801757335663,0.60755455493927
1.6342675781250016,-0.4215658816050738,0.0677303049236536,-1.201559563052654,0.5399643778800964,0.5270745754241943,0.7597230672836304
1.6442338867187498,-0.6991943438533693,0.0018073416829109,-1.133871343705058,0.4016027152538299,0.5771757960319519,0.8501932621002197
1.6541987304687495,-0.8911375230967998,0.3024550065994262,-1.4735738386809825,0.2473622411489486,0.4962092936038971,0.8553065657615662
1.6641638183593752,-0.9274401318386196,0.7244201897203922,-1.89023916182816,0.1499804407358169,0.3079098165035248,0.7849197387695312
1.674128662109375,-0.9162865043353288,1.1268412989377974,-1.9209727382659911,0.1506957560777664,0.1160961985588073,0.6689377427101135
1.6840937500000006,-0.9207835965588688,1.5096335785776376,-2.0124714567899704,0.208029106259346,-0.0751189440488815,0.5183937549591064
1.6940585937500003,-0.9584723258968442,1.792481382909417,-2.0212790326237675,0.3185223340988159,-0.2315849810838699,0.4012879133224487
1.7040236816406242,-0.9152987354069948,1.9209815060943365,-1.6150427490323782,0.4348474442958832,-0.2773157954216003,0.3290667235851288
1.71398876953125,-0.7743431814052164,1.898452863422036,-1.1583826846271752,0.5138612985610962,-0.2661363780498504,0.3113990426063537
1.7239538574218756,-0.6174442083403467,1.7106997562795876,-0.8727531406223773,0.505755603313446,-0.2369446456432342,0.3209590315818786
1.7339184570312494,-0.4506780308535322,1.3502671924859284,-0.4721165767341851,0.4427492618560791,-0.1653287708759308,0.3592446446418762
1.743883544921875,-0.3082971202237531,1.0131967995792626,-0.0235889653801918,0.3327904045581817,-0.0729151144623756,0.3952926397323608
1.7538486328125007,-0.1324663234021514,0.8254986374944449,0.312250424426794,0.1852107942104339,0.0166214257478714,0.4095672070980072
1.7638137207031246,0.0233976075265556,0.6886772606879472,0.6980068145692349,0.0002584401518106,0.1069919392466545,0.3978897333145141
1.7737788085937485,0.1728657364709302,0.448330627477169,1.0031003529787064,-0.2275190651416778,0.1724801510572433,0.3796856999397278
1.7837436523437482,0.3859554563784971,0.2206038218647241,0.9587555998176336,-0.4819729626178741,0.1725967824459076,0.3466778993606567
1.7937087402343757,0.5538852708172053,0.1189969663023948,0.8052484611481427,-0.677997350692749,0.1459340006113052,0.3398537933826446
1.8036738281250013,0.6191400524728,0.286160874402523,0.8255641039460897,-0.7524999380111694,0.1189915984869003,0.362486183643341
1.8136386718749993,0.6039107730284333,0.6398696828991174,0.7407429634898901,-0.7353593111038208,0.0377526693046093,0.4054996967315674
1.8236035156250008,0.5854112397417426,0.975888520926237,0.4455260914504528,-0.6542965173721313,-0.1504180133342743,0.4681508541107178
1.8335686035156247,0.5959062206732109,1.092020745447278,0.1278916358977556,-0.5346758365631104,-0.3883155584335327,0.5490992069244385
1.8435336914062486,0.5936217264652252,1.0138502950519324,0.0908358707010746,-0.3924116790294647,-0.5681056380271912,0.6575542688369751
1.8534987792968742,0.4508132015405222,0.7892454208523034,0.3906505919247865,-0.245530366897583,-0.594954252243042,0.7787984013557434
1.8634636230468757,0.1834829920751974,0.6530033052384853,0.65338616707623,-0.1164209246635437,-0.5390280485153198,0.8898751735687256
1.8734299316406258,-0.0109643520088866,0.765489866733551,0.7558616221666336,-0.0207894742488861,-0.488499104976654,0.9671494960784912
1.8833947753906255,0.0442810768077149,0.8661644098818302,0.7165145311623812,0.0355327762663364,-0.5117756128311157,1.0094807147979736
1.8933596191406252,0.1977635742262937,0.6693968061566352,0.6246347043663263,0.0720452442765235,-0.5669621825218201,1.0262954235076904
1.903324462890625,0.2934384641900658,0.3933797246277332,0.729316145068407,0.0993908867239952,-0.6062031388282776,1.0308789014816284
1.9132897949218748,0.3431686001839116,0.2727601255595684,0.9050684332937,0.113059289753437,-0.6365703344345093,1.0138671398162842
1.9232546386718745,0.367980494955182,0.2936187891930341,0.9174047677755356,0.0964568778872489,-0.7012617588043213,0.9573884606361388
1.9332197265625002,0.4057680815577507,0.2625713245004415,0.8310282145708799,0.0548332668840885,-0.7691963315010071,0.8780694007873535
1.9431848144531259,0.3687470223482698,0.0722919137507677,0.7358394093573093,-0.0003463798202574,-0.7930998206138611,0.792036235332489
1.9531496582031256,0.2367362606938928,-0.0778068777799606,0.6216787771701813,-0.0614094659686088,-0.7400329113006592,0.683764636516571
1.9631147460937495,0.0391056834638118,-0.1144073004245758,0.5258487514436244,-0.1310740411281585,-0.5878003239631653,0.571681797504425
1.9730795898437492,-0.2216341878257691,-0.054155953079462,0.481179004111886,-0.206579178571701,-0.361927181482315,0.4590615034103393
1.9830446777343749,-0.3920759485527872,0.0254822317808866,0.4823480478912592,-0.2999708354473114,-0.0821606665849685,0.3632180988788605
1.9930095214843746,-0.4505944076906889,-0.0492781179100275,0.5323159016311169,-0.4009693562984466,0.1865871548652649,0.29869344830513
2.0029748535156244,-0.4033506451524793,-0.2350467732369899,0.4214420360296964,-0.5130292773246765,0.3875367939472198,0.2770280539989471
2.012939697265624,-0.2761968220099806,-0.4782727612763643,0.194579738292098,-0.61669921875,0.5026926398277283,0.2740631699562073
2.02290478515625,-0.177332250893116,-0.7064525713533163,0.1730050353437662,-0.6568158268928528,0.5677966475486755,0.2862628400325775
2.0328693847656254,-0.1734033870115876,-0.7878782241523266,0.1193289747357368,-0.6195291876792908,0.5256801247596741,0.2735545039176941
2.0428347167968752,-0.1376627230014652,-0.772535693591833,-0.1461737270414829,-0.5071526169776917,0.3770543336868286,0.2276458591222763
2.052799560546875,-0.1176587034359574,-0.7855150021523237,-0.3343114495873451,-0.3464617431163788,0.1646331548690796,0.170744240283966
2.0627646484375006,-0.1042219334315508,-0.818705908614397,-0.4353694390952587,-0.1819262355566024,-0.0580354034900665,0.1187111586332321
2.0727297363281245,-0.1414410724963992,-0.8440279813975096,-0.3993196360707283,-0.0373512059450149,-0.2356565147638321,0.1096119359135627
2.0826948242187484,-0.22188195204176,-0.8468477149933576,-0.1964244893759489,0.0814301744103431,-0.3513209521770477,0.1441789716482162
2.092659912109376,-0.2949207386370748,-0.923166984564066,-0.0542161588340997,0.1626134365797042,-0.4296248257160187,0.1970032900571823
2.1026245117187496,-0.4061924444496631,-0.9984019660294056,-0.0665431409657001,0.1926018297672271,-0.4630060791969299,0.251093715429306
2.1125895996093753,-0.5908745466489345,-0.9875602540194988,-0.0825508574366569,0.1726741939783096,-0.467303067445755,0.2925039827823639
2.122554687499999,-0.7766399140402674,-0.8845166436523199,-0.0675473495721817,0.1152462437748909,-0.4390689134597778,0.323582261800766
2.132519775390625,-0.9519202008396388,-0.8145154711872339,0.0016050971090793,0.0496307536959648,-0.375887006521225,0.3306374847888946
2.142485595703125,-1.1045550867192446,-0.7354542094320058,0.0903928031086921,-0.0045824684202671,-0.2998585402965545,0.3089340925216675
2.1524506835937487,-1.1790497712112962,-0.6457166553616523,0.0704144294410944,-0.035576868802309,-0.2089957296848297,0.2592416405677795
2.1624157714843744,-1.246356590025872,-0.5087105696380139,0.058704702425003,-0.03847112134099,-0.1237632855772972,0.1967539638280868
2.172380859375002,-1.2736191293522714,-0.3360492331653833,0.1106137533605098,-0.0271936990320682,-0.0535397231578826,0.1409207880496978
2.1823457031250015,-1.2359634985662995,-0.2809907782882452,0.2202665527343749,-0.0038785624783486,0.0178453028202056,0.0995267853140831
2.1923105468749995,-1.0841063190609217,-0.2899865701705217,0.3518827621132135,0.0240915548056364,0.0731959119439125,0.0758861750364303
2.202275634765625,-0.8765954952642321,-0.299424845123291,0.4868552961826324,0.0570554956793785,0.1254185289144516,0.0709585174918174
2.212240722656251,-0.6885505655683577,-0.3107143009006977,0.571965774974227,0.0830250456929206,0.1483320891857147,0.0669816210865974
2.2222055664062506,-0.5307951218046247,-0.325104060781002,0.6180886437237262,0.1037294119596481,0.1562781482934951,0.0752869397401809
2.2321706542968744,-0.4710923482529818,-0.3795288939297199,0.7788175503402948,0.1269407272338867,0.2057245224714279,0.082003429532051
2.242135742187502,-0.4683997481681406,-0.4186269786089658,0.912146408855915,0.1577746868133545,0.2846379280090332,0.0761125981807708
2.252100830078126,-0.437201184567064,-0.3126683575779199,0.9418073876261712,0.1938005983829498,0.3529171049594879,0.0632833540439605
2.2620656738281255,-0.3038185500375926,-0.1955155578374862,0.8259504729151725,0.2329068183898925,0.3937531411647796,0.0625663697719574
2.2720305175781252,-0.1551601665735244,-0.2252513554096221,0.8686959741860628,0.2802937626838684,0.4672071039676666,0.0916875079274177
2.281995849609375,-0.0782455614581704,-0.3070569474369287,0.9725339498013258,0.3445496261119842,0.5691057443618774,0.1472271680831909
2.2919604492187506,0.0987725819844752,-0.2732628143846988,0.8912889142662286,0.4060465395450592,0.667167067527771,0.2089760303497314
2.3019257812500005,0.3896601926479488,-0.2344634203910827,0.8162526702433824,0.4704538583755493,0.7585740685462952,0.2690662741661072
2.311890625,0.693931893280521,-0.3569850536882877,0.8786521355330944,0.530036211013794,0.8394923210144043,0.3198895156383514
2.321855712890626,0.9402125927153976,-0.4856529346555471,0.8107283538639545,0.5473688840866089,0.8783648014068604,0.3555926382541656
2.3318203125000014,1.1351531271439046,-0.5728852279067039,0.7179559621423482,0.5360499024391174,0.8615540862083435,0.3913085758686065
2.3417854003906253,1.2779314395934342,-0.7432540695279837,0.7352566410332918,0.5035495758056641,0.8127450942993164,0.4435259997844696
2.351750488281249,1.3832067545354363,-0.9571540098398924,0.649775575363636,0.4561277627944946,0.7046676278114319,0.5170649290084839
2.361715576171875,1.4263226965539155,-1.1986983284026385,0.6373585768610238,0.4284594357013702,0.5827836990356445,0.6279640793800354
2.3716806640625006,1.3564324371173977,-1.440873346084356,0.6603145050346851,0.3899338543415069,0.4473813772201538,0.7564442753791809
2.3816455078125003,1.1591687935035675,-1.6070464895814656,0.5172995342850685,0.3249890506267547,0.3114956319332123,0.8806559443473816
2.3916108398437483,0.7867563805155455,-1.7064613880574702,0.4341004420727491,0.2333746999502182,0.212562695145607,0.9780333638191224
2.4015754394531257,0.2331447390079498,-1.7705349240392445,0.3196019562333822,0.1232753619551658,0.1545785218477249,1.0358004570007324
2.4115405273437496,-0.2878442974448204,-1.715612662762403,-0.0069406129181385,0.0079048350453376,0.1129234880208969,1.028275728225708
2.4215053710937493,-0.7055895978484302,-1.5894710854023697,-0.1400572899878025,-0.0910833552479744,0.1573394834995269,0.9638184905052184
2.431470703125001,-1.0724586974956094,-1.4357283844113349,-0.1861795742154121,-0.1263707727193832,0.2679562866687774,0.8758942484855652
2.4414355468750006,-1.2772072169721125,-1.1927303599089385,-0.2506651981294155,-0.0707290023565292,0.4082770347595215,0.8012598752975464
2.4514006347656245,-1.160797782944888,-0.9269792363286018,-0.4092237749695778,0.0507992878556251,0.5126156806945801,0.7357072234153748
2.4613654785156243,-0.6670169983480125,-0.6750298436075448,-0.5257528898537158,0.2236313968896865,0.5885908007621765,0.7384839057922363
2.4713317871093743,-0.0119040074791759,-0.6971183412969112,-0.6515536909520626,0.4125193059444427,0.5126978754997253,0.8159134387969971
2.48129638671875,0.8545162037946283,-0.6861684927374124,-1.3024386888623236,0.6107363700866699,0.3127479255199432,0.9044592380523682
2.4912614746093755,1.469188463203609,-0.3897100962042808,-1.0379267516881228,0.8184936046600342,0.1602380126714706,0.9854691624641418
2.5012263183593753,1.8363991428300737,0.0237187292397022,-0.8572837688118219,0.9759485125541688,-0.0466479808092117,1.088434100151062
2.511191650390625,1.961120185867697,0.0014186346262693,-1.0834148296654225,1.063944697380066,-0.2887407839298248,1.1935304403305054
2.521156494140625,1.6077382712379098,-0.4098895454019308,-1.3413444658398628,1.1541856527328491,-0.4568047821521759,1.2528406381607056
2.5311215820312487,0.7931500270754098,-0.4299234486490488,-1.3028554529696703,1.2812927961349487,-0.546792209148407,1.2565951347351074
2.5410866699218744,0.1123939147755503,-0.0818710584789514,-1.113102696442604,1.4147611856460571,-0.5934152007102966,1.146990180015564
2.551051513671876,-0.2270228951267898,0.2959101150006055,-0.86109192892313,1.5114954710006714,-0.5765451788902283,0.9425879716873168
2.5610166015625015,-0.3241366770535707,0.4551859001994133,-0.7586877855032682,1.5192710161209106,-0.5059118866920471,0.6908711194992065
2.5709814453124995,-0.1985303756140172,0.3490419857293367,-0.3950748381078243,1.452195644378662,-0.3188943266868591,0.4801122546195984
2.580946533203125,-0.0409409360669553,-0.0058674307286739,-0.0251367793440818,1.3021336793899536,-0.0724479556083679,0.3795497119426727
2.590911621093751,0.1491087575800716,-0.4187929828256368,-0.0385807828068733,1.034709930419922,0.1148582845926284,0.3785038888454437
2.6008767089843747,0.3716261579811573,-0.8130763782948255,-0.2302203759938478,0.6565257906913757,0.2734586894512176,0.4419989585876465
2.6108415527343745,0.3705558984011411,-1.0679027877569198,-0.3074427318841218,0.2367548793554306,0.4426029920578003,0.5336295366287231
2.620806396484374,0.2032265706062316,-1.00288817153275,-0.4843991352021694,-0.1617787331342697,0.6199586987495422,0.6067368388175964
2.6307714843750016,-0.0704603144094347,-0.6743231566429138,-0.677450348752737,-0.493068516254425,0.801908016204834,0.6407864093780518
2.6407365722656255,-0.4046780943639576,-0.2044932295411825,-0.8689987565249204,-0.7271460294723511,0.98087739944458,0.6301435828208923
2.6507014160156253,-0.735462246607989,0.3609872750669717,-1.034091703569889,-0.8170983195304871,1.1084054708480835,0.623364269733429
2.660666503906251,-0.8568332485653459,0.8950672637611627,-1.0466121624469755,-0.7680711150169373,1.1978617906570437,0.6257198452949524
2.670631591796875,-0.7279173841863871,1.0910410867601632,-0.9092974491655826,-0.5774396657943726,1.266538143157959,0.6369029879570007
2.6805966796875005,-0.4088321453034877,1.048722870990634,-0.8414771278709172,-0.2991057932376861,1.2750813961029053,0.6444277167320251
2.6905617675781244,-0.0338372415415942,0.9687871644884348,-0.6613350802540778,-0.0277683120220899,1.2287312746047974,0.626887857913971
2.7005263671875017,0.2507306645810604,1.019037342301011,-0.3282306683689355,0.13814477622509,1.1267383098602295,0.5793312788009644
2.7104916992187498,0.4335048142671585,0.9844640415698288,-0.0631435616552829,0.1601541936397552,1.0044848918914795,0.520695686340332
2.7204565429687495,0.45164837372303,0.7097481057673692,0.1622510016173124,0.0781765431165695,0.9293959140777588,0.4729105532169342
2.730421630859375,0.4799998773299157,0.4993693253189325,0.390478157967329,-0.0198432281613349,0.9061313271522522,0.442258358001709
2.740386474609375,0.6662973788365721,0.488859037220478,0.422250429803133,-0.1164811179041862,0.8855699300765991,0.40952068567276
2.7503515625000006,0.8196149862833321,0.384940982106328,0.4067863186895847,-0.2105945646762848,0.8827861547470093,0.3809955716133117
2.7603166503906245,0.8118176104053855,0.1990074916064739,0.4499994374722242,-0.3203518092632293,0.9083902835845948,0.341794341802597
2.770281494140624,0.79223583483994,0.1682692389935255,0.4514958135098219,-0.4243264198303222,0.9419072270393372,0.3010194599628448
2.7802463378906257,0.8323489417806267,0.1737859565883874,0.4963064306169748,-0.5059968829154968,0.9751713275909424,0.2617152035236358
2.7902114257812496,0.9355142788313328,0.1417471427708864,0.5322095186471939,-0.5603142380714417,0.980642795562744,0.21109439432621
2.8001767578124994,1.1377416092671453,0.1505576412141323,0.4141495409339666,-0.5825095176696777,0.918472409248352,0.1487460434436798
2.810141601562501,1.254089668495953,0.1457394272774458,0.2847434088200331,-0.5701415538787842,0.8093469738960266,0.0847534835338592
2.820106689453125,1.231842473113537,0.204811209449172,0.2168763257741928,-0.5200774669647217,0.6833013892173767,0.0187984593212604
2.8300712890625004,1.1235288133889436,0.3893184665381908,0.2991471972256899,-0.441448450088501,0.574942946434021,-0.0418912544846534
2.8400366210937484,1.024822647704184,0.4730360296666622,0.3314174817115068,-0.3654906749725342,0.4700758755207062,-0.0861900150775909
2.850001464843748,0.9845203018017112,0.3488607839435338,0.4633844042241573,-0.3115025460720062,0.3834570944309234,-0.1129119098186492
2.8599665527343756,0.9657895170424132,0.1835615006715059,0.6754290720582008,-0.3043720424175262,0.3356519639492035,-0.118230789899826
2.8699313964843753,0.9153025347992776,0.0027133506119251,0.92403558409214,-0.3413231372833252,0.3352149426937103,-0.1087901517748832
2.879896728515625,0.8364558656428008,-0.1484288124918937,1.1032073253720998,-0.4071262776851654,0.3715534806251526,-0.1053533181548118
2.889861572265625,0.7955157332934438,-0.2035159089416265,1.172055820670724,-0.4819405972957611,0.4189145863056183,-0.1130189597606659
2.8998266601562506,0.7842877253796905,-0.181970432087779,1.1117425140053032,-0.540704607963562,0.4515409767627716,-0.1291923075914383
2.9097915039062485,0.8196431163992732,-0.2120727248847484,1.0137737226843833,-0.5674198269844055,0.457559198141098,-0.1408809274435043
2.919756591796874,0.8479490272987633,-0.2168032605379819,0.9558137011468408,-0.5651793479919434,0.4476876258850097,-0.1487031430006027
2.9297216796875016,0.931805633571744,-0.1849403878092765,0.99742406090796,-0.5348238348960876,0.4193015396595001,-0.1533442437648773
2.9396865234375014,1.0334836546741426,-0.1694809528708457,0.9923422275990248,-0.4622098803520202,0.3588498830795288,-0.1557752192020416
2.9496523437499995,1.0635594978556036,-0.1686380723059177,0.9781114576727152,-0.3819978535175323,0.3011407852172851,-0.1739992350339889
2.9596176757812493,1.0314659581761807,-0.126044546726346,0.9231196382910012,-0.2875098884105682,0.2309985309839248,-0.2084935307502746
2.969582519531251,1.0331538381978869,-0.035382863548398,0.8860930991888045,-0.2123632133007049,0.1743653565645218,-0.24543397128582
2.9795476074218747,0.9985048418819904,-0.0321393515825271,0.8853869967460631,-0.1550457626581192,0.1409221589565277,-0.2679520547389984
2.9895124511718745,0.8777868239406496,-0.0960445452600717,0.9959586645305156,-0.1157303154468536,0.1715951263904571,-0.2653416097164154
2.999477539062502,0.7600031058855354,-0.06717734721601,1.0780810674220322,-0.0861918330192565,0.2154740691184997,-0.2508929371833801
3.009442626953126,0.7676505518987774,-0.0251098913371562,1.1300830573379992,-0.0739799067378044,0.2432766705751419,-0.2316236197948455
3.0194074707031255,0.8489939332418144,-0.1371148067951202,1.1459124946326016,-0.0998565927147865,0.2382540851831436,-0.2164244502782821
3.0293725585937494,0.8634823311910033,-0.3249246125608682,1.1489642834186553,-0.1449399292469024,0.2276112884283065,-0.1860588192939758
3.039337646484375,0.8486667471140623,-0.3895569514691829,1.2057073303818702,-0.1885901689529419,0.1948939710855484,-0.1530233174562454
3.0493027343750008,0.83959759773463,-0.4233440702587366,1.1682499986469743,-0.2407175451517105,0.1538937985897064,-0.1283179670572281
3.0592673339843746,0.7748930703729391,-0.4554658861845731,1.102819202837348,-0.2821709513664245,0.1084982976317405,-0.1232018023729324
3.0692324218750002,0.7410899502966553,-0.4270967007905245,0.8697627266347407,-0.3053095638751983,0.0463779382407665,-0.1342552453279495
3.079197509765626,0.690717826604843,-0.4205325199693441,0.6493214018553495,-0.2953165471553802,-0.010417484678328,-0.1459574550390243
3.08916259765625,0.5620616360753774,-0.3782774325639009,0.4395768276572227,-0.2590927481651306,-0.0774375349283218,-0.1556516289710998
3.0991276855468755,0.4711817070368677,-0.3703220896452665,0.2163034943222999,-0.2049483656883239,-0.1499548554420471,-0.1586122214794159
3.109092529296875,0.4298371586050838,-0.4123889610022306,-0.0437625693589448,-0.1690034121274948,-0.2569641172885895,-0.1719008684158325
3.119057861328125,0.4023276222476735,-0.4845663084626198,-0.2830722607374191,-0.1338275521993637,-0.3544773757457733,-0.1761230528354644
3.1290224609375006,0.3433872113706543,-0.5449526803642512,-0.3339934696793556,-0.0824615582823753,-0.4224710762500763,-0.1679634004831314
3.1389875488281245,0.2931140910739079,-0.5804243912398814,-0.3096668376743793,-0.0321271307766437,-0.4608959853649139,-0.1560705304145813
3.148952392578124,0.2831798858303576,-0.6669008976876736,-0.2408136662006378,0.0287905484437942,-0.4538732469081878,-0.1431826949119568
3.15891748046875,0.28769929948356,-0.8372492810428142,-0.1696831974446773,0.0697149708867073,-0.4485021531581878,-0.1556721329689026
3.1688825683593755,0.3161719817847013,-1.0130606059789655,-0.1855114656955003,0.080697052180767,-0.4475503265857696,-0.1889611184597015
3.1788476562499994,0.2061416178027167,-1.1613421189546584,-0.0733528209805488,0.0619183406233787,-0.4328421056270599,-0.2372047752141952
3.188812499999999,0.004911956634745,-1.234019817152619,0.1971194859027862,-0.0165892541408538,-0.4274907410144806,-0.3122025728225708
3.1987773437500007,0.0166082031147554,-1.4963216770619152,0.0290741187930107,-0.1833933293819427,-0.5043072700500488,-0.3888864815235138
3.2087424316406246,0.0317837796105071,-1.8938830712884664,0.0354734644412994,-0.3853464424610138,-0.5485450625419617,-0.4625431299209595
3.2187075195312485,-0.131772349788621,-1.8134879305809732,-0.0380710797190666,-0.6344853043556213,-0.6247835159301758,-0.5736693143844604
3.228672607421876,-0.3626114422027021,-1.3112889347940682,-0.2232148811459541,-0.9052606225013732,-0.7076922655105591,-0.7151846289634705
3.2386374511718756,-0.3518450604513287,-1.0717021800398825,-0.2862807013899088,-1.152265191078186,-0.7506309151649475,-0.8201741576194763
3.2486027832031255,-0.0336787265116348,-1.415468855714798,-0.3462596615344285,-1.358016014099121,-0.6752464175224304,-0.8298033475875854
3.258567626953125,0.3871666953317821,-2.227635425688326,-0.3657195642858743,-1.4869248867034912,-0.4624993205070495,-0.7761334776878357
3.268532714843751,0.4628787562569603,-2.684748786818981,-0.5262380430221557,-1.5896464586257937,-0.2462732642889022,-0.7215636968612671
3.2784973144531246,0.1602357528047636,-2.4220298705413934,-0.8587029879599809,-1.703766942024231,-0.1054097637534141,-0.7160035371780396
3.2884626464843745,-0.3570025893449783,-2.192655882243812,-1.1439935092687603,-1.802024245262146,0.0071679172106087,-0.7557083964347839
3.298427490234374,-0.9168110396660863,-2.217846437601745,-1.2371247974306343,-1.8198658227920528,0.1042286306619644,-0.8323374390602112
3.308392822265626,-1.3980270147874951,-1.9023074930235744,-1.2748685448914765,-1.7684800624847412,0.1282849758863449,-0.9698017835617064
3.3183576660156255,-1.754564324708283,-1.2037705171003936,-1.5125164405375715,-1.6933043003082275,0.046895295381546,-1.1543910503387451
3.3283227539062494,-1.9565072852447627,-0.6448799122765659,-1.913717068049312,-1.5818443298339844,-0.1149894744157791,-1.348889946937561
3.338287841796875,-1.9605796492502088,-0.2807558004885911,-2.5045155537873507,-1.4275004863739014,-0.3332245051860809,-1.533909559249878
3.348252685546875,-1.8417220914185048,0.0857534528702497,-2.7489994329333305,-1.247450590133667,-0.3459493517875671,-1.649464130401611
3.3582177734375005,-1.7414933923415838,0.4772641687557101,-2.60183201867938,-1.009726643562317,-0.1724433004856109,-1.657618761062622
3.3681826171875002,-1.6308410605363546,0.6527347174301743,-2.7467566224426028,-0.7131212949752808,-0.08601014316082,-1.589637279510498
3.378147705078126,-1.449882728100568,0.7370265733152628,-2.70037948667109,-0.4015059471130371,0.0394255928695201,-1.501232385635376
3.38811279296875,-1.196950023430586,1.1083160466879605,-2.6019541837543247,-0.0924588739871978,0.1644130796194076,-1.4404432773590088
3.3980778808593755,-0.9914453518245367,1.3733929242685436,-2.1416654074579475,0.1974134892225265,0.2863534092903137,-1.3999658823013306
3.408042724609375,-0.7988681124612689,1.4896443912550803,-1.652154043808579,0.4588570892810821,0.3490791320800781,-1.371619462966919
3.418007568359375,-0.5815820733750239,1.61200878816396,-1.3631617453724143,0.6706262230873108,0.3032457828521728,-1.3391238451004028
3.4279724121093746,-0.2525958373984321,1.6653972640022634,-1.0208376697212458,0.8431674242019653,0.1773978471755981,-1.323175311088562
3.4379377441406245,0.1202195851662196,1.7212106288999318,-0.564091680598259,0.9653451442718506,0.040417019277811,-1.3251338005065918
3.447902587890624,0.4487546981081366,1.7971435295015572,-0.0876274300485849,1.0437850952148438,-0.0744954496622085,-1.3342905044555664
3.45786767578125,0.673064169557765,1.7393264235660433,0.2627484346330165,1.0695960521697998,-0.1951157599687576,-1.3144917488098145
3.4678327636718755,0.8684161343313753,1.6095272004812955,0.5968488718181848,1.0420989990234375,-0.2838493585586548,-1.2495760917663574
3.4777978515624994,0.944248277972266,1.4332891745656728,0.9079647392570972,0.9703420400619508,-0.360063225030899,-1.126526951789856
3.487762695312499,0.9309294352591038,1.2749001090735197,1.0156219808995723,0.8792515397071838,-0.4533164799213409,-0.9948972463607788
3.4977275390625007,0.8709935105387121,1.1936913138955831,1.0657207675427198,0.7950211763381958,-0.5353476405143738,-0.8899114727973938
3.5076926269531246,0.7813622663870453,1.1997504678040742,1.2627759560376406,0.7203845381736755,-0.5685040354728699,-0.826622486114502
3.5176577148437485,0.6533623478092253,1.1751990871325135,1.4636480724722143,0.6491991877555847,-0.5496552586555481,-0.796455979347229
3.527622802734376,0.5156905281858518,1.137084460532665,1.631723250198364,0.5632699131965637,-0.4982562065124511,-0.8008241057395935
3.5375876464843756,0.4815520021427422,1.1221996106117964,1.7584902659803627,0.4562040567398071,-0.4193607866764068,-0.8158391118049622
3.5475527343749995,0.532807411475107,1.1729518927276137,1.8358271881610155,0.3443582057952881,-0.2932694256305694,-0.8221188187599182
3.5575175781249992,0.6297223098289221,1.0966633105561137,1.8744518101096157,0.2407797425985336,-0.166861355304718,-0.8152968883514404
3.567482666015625,0.8693461086578667,1.107462936989963,1.7463193511933088,0.1535974442958831,-0.0740637704730033,-0.7944890260696411
3.5774477539062506,1.164034865169972,1.1017165022924542,1.640531995075941,0.0875223577022552,-0.022713903337717,-0.7505077719688416
3.5874125976562485,1.4289986377649009,1.0612678797870874,1.4844921230584385,0.0435458421707153,-0.0514480806887149,-0.7057192325592041
3.597377929687502,1.65952442644611,1.0511933527573942,1.2306003640979528,0.0249505788087844,-0.1218474507331848,-0.6692160964012146
3.6073427734375016,1.7969453765809535,0.9812377729997038,1.0851818393379449,0.0393505580723285,-0.1532533019781112,-0.6358216404914856
3.6173078613281255,1.840281537221372,0.8914519958734511,1.1510159552514552,0.0798832699656486,-0.1509133130311966,-0.6126278638839722
3.6272724609374993,1.8972962407328189,0.7779790536895393,1.0707312891811132,0.1165134534239769,-0.1454280018806457,-0.6010955572128296
3.637237792968749,2.0253737545914947,0.6262053146839142,1.1068243468254804,0.1510926336050033,-0.1177075877785682,-0.5878698229789734
3.6472026367187507,2.159926017422229,0.4372326026186346,1.1975059037476776,0.183053508400917,-0.089174211025238,-0.5506601333618164
3.6571677246093746,2.285622335232794,0.2576256847918033,1.2918734557062386,0.1950364112854004,-0.0707689747214317,-0.4991301298141479
3.6671325683593743,2.403726736609637,0.0514618916898965,1.4792261653542518,0.1779266744852066,-0.0309009216725826,-0.4285869598388672
3.6770976562500017,2.444368251338601,-0.1244184068292379,1.5541864215314387,0.1278824061155319,-0.0389884114265441,-0.3408613801002502
3.6870627441406256,2.406318798929453,-0.2945180761203169,1.433784264606237,0.056554440408945,-0.0937155708670616,-0.2579289376735687
3.6970275878906254,2.282630898331851,-0.3726537474632262,1.330150871652365,-0.0247937235981225,-0.1689061820507049,-0.2116591483354568
3.7069926757812492,2.124223712661117,-0.4080822037190199,1.1122837812751531,-0.0882901400327682,-0.2595458030700683,-0.194792553782463
3.7169575195312508,1.9268653034359216,-0.4326093267321586,0.9028051645368336,-0.1138682290911674,-0.3319668769836426,-0.1903301626443863
3.7269228515625006,1.7034055076181889,-0.4422819949626922,0.7511381007760762,-0.1018451154232025,-0.3828031718730926,-0.1770007759332656
3.7368876953125003,1.539705768497288,-0.412248383487761,0.5518775111913681,-0.0477951392531394,-0.4255710542201996,-0.1535335630178451
3.746852783203124,1.4337319498971104,-0.3942132528424262,0.3347282136946916,0.035606276243925,-0.4620475769042969,-0.1453976035118103
3.7568176269531257,1.3930240919336676,-0.4502013897851109,0.2256891623049974,0.1595280617475509,-0.4666894376277923,-0.1425940841436386
3.7667827148437496,1.4139163655757905,-0.4866960139676928,0.1376391229301691,0.3038391470909118,-0.4599846601486206,-0.1468202471733093
3.7767475585937493,1.4836385749690233,-0.599334551154077,0.0269943899095058,0.4382961392402649,-0.4501235783100128,-0.1414718031883239
3.786712646484375,1.5435511918790636,-0.8058473038241267,-0.0344090500801801,0.5526264309883118,-0.3946997225284576,-0.1220589578151702
3.7966774902343747,1.6013741430334747,-0.9957906144872308,0.1442471428930759,0.6335985660552979,-0.2794930338859558,-0.0982085093855857
3.8066428222656246,1.701886627487838,-1.190131283326447,0.2351280217796564,0.6721089482307434,-0.1607618480920791,-0.0441644452512264
3.8166079101562485,1.879841832584888,-1.4406792848169805,0.1244026247382164,0.6618300676345825,-0.0571489222347736,0.0155905084684491
3.826572753906248,2.022531955294311,-1.5659899643108248,0.0584147795677185,0.6294113993644714,0.0464616268873214,0.0501756481826305
3.8365375976562497,1.997634976055473,-1.57085757034719,-0.0172784670591354,0.5553895831108093,0.1127612963318824,0.0649724602699279
3.8465026855468754,1.877467943060398,-1.5907050111114978,-0.2401706921219825,0.4426840841770172,0.1339019984006881,0.0779652222990989
3.8564677734374992,1.6957345345988868,-1.5553613105297088,-0.424598454234004,0.312502384185791,0.1369870454072952,0.0884503498673439
3.8664326171875008,1.4301834636352957,-1.4158803591251372,-0.5838666406482458,0.2021790593862533,0.1483776569366455,0.1050274670124054
3.8763977050781246,1.1459252079837023,-1.3329407946318388,-0.7799708120286464,0.1227717027068138,0.2169084846973419,0.1301610618829727
3.8863625488281244,1.0825119625415651,-1.3572814551621677,-0.9409972402870654,0.086650975048542,0.3604973554611206,0.151057556271553
3.896327880859374,1.2133674897462128,-1.3615952267080544,-1.1221288834631442,0.1079786941409111,0.5176106095314026,0.1565766632556915
3.9062924804687498,1.24697077640146,-1.2690297557353971,-1.5486889931589365,0.1547715067863464,0.6334101557731628,0.1644692122936248
3.9162575683593754,1.3225865738779303,-1.261723232114315,-1.7636363966971635,0.2272674292325973,0.7405478358268738,0.1912030726671219
3.9262226562499993,1.6322348529823123,-1.3902151719927789,-1.7417536507129667,0.2957159876823425,0.8692868947982788,0.2227178514003753
3.936187744140625,1.9464327582150696,-1.410067288932204,-1.769745234966278,0.3227258920669555,0.9373834133148192,0.2374523282051086
3.9461528320312507,1.9473396439269184,-1.169157176619768,-1.998395585164428,0.2900249361991882,0.8942199349403381,0.2135022580623626
3.9561176757812486,1.6288770669870078,-0.662884647783637,-2.331236962199211,0.2181296348571777,0.7097371220588684,0.1683280915021896
3.9660827636718743,1.2406491721644997,-0.1331400579452514,-2.6448738725483416,0.1081722453236579,0.4698108434677124,0.1278525739908218
3.9760478515625017,0.927559447369352,0.3077694796204567,-2.756757207453251,0.0080305580049753,0.2756660580635071,0.105064183473587
3.9860126953125015,0.6547319556619972,0.6952227368086576,-2.7470062132894992,-0.0407492294907569,0.2012818455696106,0.1101404353976249
3.9959775390624994,0.3249641408536583,1.0546364789485931,-2.525584060779214,-0.0253821462392807,0.2675346732139587,0.1457509100437164
4.005942626953125,0.1383024091444909,1.3678876048505306,-2.269700835740566,0.0355123654007911,0.4143736362457275,0.2237386405467987
4.015907714843751,0.1411367557875812,1.5836106689363718,-2.0453104810744525,0.1195161789655685,0.5754855275154114,0.3269878029823303
4.025872802734375,0.1405820445142686,1.6933552382469177,-1.7885832064270972,0.22034852206707,0.7385029196739197,0.4463509619235992
4.035837646484374,0.1890028880078345,1.754423747193813,-1.644924092555046,0.3174048066139221,0.8405088782310486,0.5431144833564758
4.045802490234376,0.2249501074407249,1.796250964576006,-1.5013292760908603,0.3889607489109039,0.8845091462135315,0.5967510938644409
4.0557675781250015,0.2070821500558406,1.7911428277820347,-1.3056716794341805,0.4184971451759338,0.8846021890640259,0.6045294404029846
4.065732666015625,0.1808103753324598,1.7367162410676478,-0.9222609756350516,0.419983446598053,0.9090071320533752,0.5796544551849365
4.075697753906249,0.2238575629636645,1.6769903789013625,-0.4223521366119384,0.4015449285507202,0.943734347820282,0.5319622159004211
4.085662597656251,0.3411025710321962,1.5890777021706104,-0.2405541384816169,0.3626422882080078,0.9401792883872986,0.4787424504756927
4.095627929687501,0.3991160763226449,1.5165268452227114,-0.0991933646798133,0.2926054000854492,0.9135386347770692,0.4523068368434906
4.1055927734375,0.4139329025086015,1.4031377819299695,0.0826724379897117,0.2161353975534439,0.9036167860031128,0.4592323899269104
4.115557861328124,0.4169178366035223,1.3361100723177193,0.4015589394301175,0.1290104538202285,0.9487847089767456,0.4843952655792236
4.125522460937502,0.4251430825047195,1.3469868556410074,0.681971041047573,0.0442865043878555,1.0109349489212036,0.5131893754005432
4.1354875488281255,0.4316016109943389,1.3847902243345975,0.8440735741049051,-0.0349171496927738,1.045787334442139,0.5475588440895081
4.145452636718749,0.2821275272332131,1.4132014953047036,1.0789029051989316,-0.1265970021486282,1.0702053308486938,0.5690742135047913
4.155417724609375,0.1934090870775282,1.5037380907982587,1.1617173820078373,-0.2237408310174942,1.0054237842559814,0.5583925843238831
4.165382568359375,0.1590874230198562,1.6506068143665789,0.9110954384982586,-0.2968256771564483,0.848105251789093,0.5149766802787781
4.1753476562500005,0.0502718051224947,1.804382833105325,0.8493149818897247,-0.3239014744758606,0.6934198141098022,0.4672615528106689
4.1853129882812485,-0.0475976174771785,1.9050731583446263,0.9239631033778192,-0.30802983045578,0.5638256072998047,0.4343992173671722
4.195277587890626,-0.2568212365411221,1.937719290405512,0.9997130486279724,-0.2653222382068634,0.4874778985977173,0.4108081758022308
4.20524267578125,-0.4871950495310127,1.9039386013567448,1.0809206747621298,-0.219244509935379,0.4830882251262665,0.381954938173294
4.2152075195312495,-0.7153283901177346,1.8050433428406716,1.314613110780716,-0.1870513409376144,0.553897500038147,0.3583316206932068
4.225172851562499,-0.9166796683713794,1.771808012714982,1.268491411074996,-0.1792080700397491,0.6183249950408936,0.3651556968688965
4.235137695312501,-1.0993469966821372,1.668758557128906,1.0470324336856602,-0.160088375210762,0.665052592754364,0.4264926016330719
4.245102783203125,-1.201851677867025,1.5241419964015483,0.9951157839655876,-0.1161432787775993,0.7195895910263062,0.5204193592071533
4.2550676269531245,-1.2353081033974884,1.4769634811192751,0.9972089568525552,-0.0591234304010868,0.7666078209877014,0.6352716088294983
4.265032714843748,-1.306641693510115,1.414049052044749,0.8712000659614801,0.0011734687723219,0.769474446773529,0.7655239105224609
4.27499755859375,-1.2031968088656664,1.4319295766502618,0.6690384942382573,0.0667319819331169,0.7087970972061157,0.8723227977752686
4.2849626464843755,-1.158293545038998,1.4585644855976103,0.5308206946372985,0.1368476897478103,0.6252502799034119,0.9613184332847596
4.294927734374999,-1.2721993256822228,1.3932587774723768,0.377320570230484,0.214776337146759,0.4980511367321014,1.0576398372650146
4.304892822265625,-1.41759549247995,1.3730577009648084,0.2687596577465534,0.2911427617073059,0.4042935073375702,1.1448538303375244
4.314857910156251,-1.5031502079077064,1.3804565790444612,0.4645172076463699,0.3677599132061004,0.3839940428733825,1.2045632600784302
4.324822753906249,-1.6718841418035328,1.242198447433114,0.5367424859017134,0.4195868968963623,0.37733855843544,1.297737956047058
4.334787597656248,-1.8020264792375265,1.0927578275501728,0.5138093540817499,0.4273931682109833,0.3875811398029327,1.435364842414856
4.344752441406248,-1.6668026007555423,1.0767810907393691,0.5512321990251541,0.4021871387958526,0.331706702709198,1.511197805404663
4.3547177734375015,-1.301966833566874,1.1519535283625124,0.4082674971580505,0.3347180485725403,0.1810375303030014,1.4499272108078003
4.3646826171874995,-0.897650704383105,1.293240067884326,0.2106605199992656,0.2243047058582306,-0.0376498065888881,1.2391459941864014
4.374647705078125,-0.6586480331271887,1.2563894698709248,0.198581959670782,0.0796921625733375,-0.2194454967975616,0.9980631470680236
4.384612548828125,-0.5881742747142911,0.9503133501648904,0.4471896407485008,-0.0805092230439186,-0.2595889270305633,0.8375824093818665
4.394577880859375,-0.6036711190536618,0.5625023655802012,0.694345369452238,-0.2231522798538208,-0.2277246862649917,0.8118631839752197
4.4045424804687485,-0.6876639189269393,0.2485831311583518,0.6964245138138532,-0.3651607930660248,-0.1869772672653198,0.8959945440292358
4.414507568359374,-0.7732210455074906,0.0150508541375398,0.5426274522870779,-0.5033280253410339,-0.1852310299873352,1.0073649883270264
4.424472656250002,-0.8207663482755422,-0.1152250465482473,0.3875181391179561,-0.6407976746559143,-0.1641837954521179,1.0622889995574951
4.4344377441406255,-1.027369628773257,-0.1443611246615648,0.3356125953137874,-0.7665572762489319,-0.090779535472393,1.0502920150756836
4.444401855468749,-1.2666152419395744,-0.1264881988406181,0.18316227222085,-0.8455804586410522,-0.0483676306903362,0.9806814789772034
4.454366699218751,-1.4287560611806809,-0.1884691464573144,0.1068751513540744,-0.8572495579719543,0.0028222969267517,0.8768933415412903
4.464331542968749,-1.6107114418298003,-0.2832996397525072,0.210495684826374,-0.8259435296058655,0.059835247695446,0.7740771770477295
4.474296630859374,-1.6386685392916205,-0.279705999174714,0.0350420872867107,-0.7893026471138,0.0342791974544525,0.6787155270576477
4.484261718750002,-1.5014100862421094,-0.3103682639420032,-0.2241612220853567,-0.7613274455070496,-0.0068224314600229,0.6075486540794373
4.494226806640626,-1.2494710687845945,-0.5244523286491632,-0.3859101193994283,-0.7125018835067749,-0.0769863352179527,0.5756650567054749
4.504191650390625,-1.0105272150438278,-0.8230816394805908,-0.7455716988205909,-0.6013540625572205,-0.1942189633846283,0.5606770515441895
4.514156738281249,-0.9475248154249042,-0.9517863453269004,-0.847768336969614,-0.4370793402194977,-0.2881512641906738,0.5170485973358154
4.524121826171875,-1.039143287871033,-0.8590653915315866,-0.8371019815266132,-0.2691638469696045,-0.3218817710876465,0.4377734661102295
4.534086669921875,-1.2555858984030783,-0.928627588057518,-0.7964099056541919,-0.1426092386245727,-0.2809634804725647,0.3356178104877472
4.544051513671874,-1.3963997058466076,-1.1118185018509623,-0.7314157476961612,-0.0543701872229576,-0.197580948472023,0.2205750942230224
4.554016601562502,-1.458265941042453,-1.214663374775648,-0.719368167027831,-0.0146948248147964,-0.106126070022583,0.1015685647726059
4.563981689453126,-1.4248147762089969,-1.4077081585854292,-0.74999360691607,-0.0150556834414601,-0.0439077019691467,-0.0086719244718551
4.57394677734375,-1.2715342859022318,-1.5077075789511205,-0.7899258043318986,-0.0547369718551635,-0.0896631330251693,-0.1344708502292633
4.583911865234375,-1.0846094462774694,-1.4888181695640086,-1.070444288933277,-0.1052081361413002,-0.2253719717264175,-0.270181804895401
4.593876708984375,-1.1794584250774234,-1.4761504111707209,-1.0953379071712492,-0.1421549171209335,-0.4033451676368713,-0.4052440226078033
4.603841796875001,-1.447857359752804,-1.3023451653599738,-1.1946908463269472,-0.1640157401561737,-0.5882053375244141,-0.5286008715629578
4.6138066406250005,-1.8145634508579969,-1.1657605199187993,-1.118565053501725,-0.163980633020401,-0.6798155903816223,-0.5986436009407043
4.623771728515624,-2.051595844954252,-0.9944447528362274,-0.9196218593031168,-0.1693016290664672,-0.657572865486145,-0.636925995349884
4.633736572265626,-2.1232743029817938,-0.83216569416821,-0.9107529086709022,-0.1745690703392028,-0.5807772278785706,-0.6465972661972046
4.64370166015625,-2.0937273059800265,-0.7361258250832557,-0.9987836588233708,-0.1718758195638656,-0.4572893977165222,-0.6488721370697021
4.653666748046875,-2.053952344952524,-0.6521861436367035,-0.9502589896291492,-0.1660399585962295,-0.3186517655849457,-0.643946647644043
4.663631835937499,-1.9637946657739576,-0.6190016669154167,-0.9101818307846784,-0.1649350076913833,-0.1994880884885788,-0.6377076506614685
4.673596435546875,-1.7597332517787814,-0.5662883138597011,-0.9191986654549836,-0.1690306812524795,-0.1139230132102966,-0.6531798243522644
4.6835615234375005,-1.630358391585946,-0.5457628277033567,-0.7909194915443658,-0.1818271726369857,-0.050302218645811,-0.6923940777778625
4.693526611328124,-1.464063083013892,-0.5137158305794001,-0.6675742669045924,-0.2134970426559448,-0.0246915519237518,-0.7336463928222656
4.703491699218748,-1.2471958173289894,-0.500880898925662,-0.5951525892943144,-0.2738954126834869,-0.0293938945978879,-0.767974853515625
4.713456787109376,-1.1093613179571926,-0.4428852215528487,-0.5977268236964941,-0.3562980890274048,-0.0410617366433143,-0.7814610600471497
4.7234216308593755,-0.9580220248460768,-0.3581266249388456,-0.5349877511888742,-0.4304114878177643,-0.0041103777475655,-0.7659103274345398
4.733386962890625,-0.8989036270536482,-0.2517404261454939,-0.2837444609105586,-0.5123296976089478,0.0795797482132911,-0.7295454144477844
4.743351562500001,-0.9401357280869036,-0.0490621370717883,-0.2432417701303958,-0.6313085556030273,0.1685213297605514,-0.6888800263404846
4.753316650390625,-1.0779254384689032,0.1308200905650854,-0.1076408750295639,-0.7728997468948364,0.2827175259590149,-0.6317562460899353
4.7632814941406245,-1.2661818189583718,0.2141042307123541,0.0087865330457687,-0.9245401620864868,0.4136366546154022,-0.5693812966346741
4.773246826171874,-1.4123507236942647,0.3617781331837177,0.1655921287387609,-1.0861281156539917,0.5229288339614868,-0.5278795957565308
4.783211669921876,-1.5072706488385796,0.53599342110008,0.1521674144983291,-1.2464653253555298,0.6046974658966064,-0.5115179419517517
4.7931767578125015,-1.5622525313481688,0.6662929949223995,0.2566922033339738,-1.385663390159607,0.6611514091491699,-0.5126399993896484
4.8031416015624995,-1.5799981775276362,0.6825304284960031,0.2562023739904165,-1.489376425743103,0.6568722128868103,-0.5223570466041565
4.813106689453125,-1.5450472756557163,0.6172048466265201,0.31238837159276,-1.54317045211792,0.6034286022186279,-0.5562002658843994
4.823071777343751,-1.4288463698126377,0.6263862242087721,0.3548831129729747,-1.5424621105194092,0.4928184747695923,-0.6184857487678528
4.833036621093749,-1.3307118665359914,0.5019903214722872,0.4752876079857349,-1.4802333116531372,0.3906569182872772,-0.6625975370407104
4.843001708984374,-1.1629003081820906,0.3672252926737069,0.6574643763005733,-1.350228190422058,0.2880469262599945,-0.6841616630554199
4.852966796875002,-0.9436585684508084,0.1887096772149205,0.7748059766113757,-1.1622098684310913,0.1800135672092437,-0.6756123900413513
4.862931884765626,-0.7658104769900441,-0.0249488555565476,0.9214069891542196,-0.945625901222229,0.0712162405252456,-0.6612659692764282
4.8728967285156255,-0.4998877962350845,-0.1288002751752734,1.0772452011197804,-0.7161464691162109,-0.0525695905089378,-0.6524980068206787
4.882861572265625,-0.1526753640204668,-0.1908081107988953,1.111181957513094,-0.4942614436149597,-0.2037804126739502,-0.6551385521888733
4.892826416015625,0.2014123607911169,-0.2376055178090929,1.1104051279217004,-0.294872909784317,-0.4033362865447998,-0.6662617921829224
4.902791748046875,0.489450281111896,-0.3143301533102989,1.1028268016219138,-0.1105635166168212,-0.6059996485710144,-0.6817131638526917
4.9127565917968745,0.6637196373030543,-0.4480439194902777,1.1527572459608315,0.0450259298086166,-0.8123943209648132,-0.6684420704841614
4.9227216796875,0.7199763620540499,-0.5905012563571334,1.2448609446406365,0.1564224958419799,-0.950642466545105,-0.6328195929527283
4.932685791015626,0.6376531758934258,-0.7768643704459071,1.4491402391701935,0.2142974585294723,-1.0020747184753418,-0.5689557194709778
4.9426503906249994,0.5521957102950662,-0.8889061107829213,1.4738316128343345,0.2249612808227539,-0.9773813486099244,-0.4967105388641357
4.952615722656249,0.4969442901290953,-1.0303761901780963,1.5022767860740422,0.1970942765474319,-0.8821864724159241,-0.4207436442375183
4.962580566406251,0.4491765037167817,-1.1820809556007386,1.4541758952498436,0.1467829048633575,-0.7463260889053345,-0.3339118063449859
4.972545654296875,0.4746198647920042,-1.3431781110078096,1.371890995272994,0.0963798910379409,-0.5700706839561462,-0.2555163204669952
4.9825107421875,0.6203264127131551,-1.4885314615771177,1.1148942560344934,0.0659226477146148,-0.4174388349056244,-0.1782843917608261
4.992475830078124,0.719839510866627,-1.6487506651058792,0.8412287060678004,0.0463575385510921,-0.2697900235652923,-0.0878633931279182
