time,ax,ay,az,gx,gy,gz
0.0,2.0915452857658265,-1.830992023089528,-1.988727593109012,0.2655217945575714,0.4908588528633117,0.77647864818573
0.009964111328127245,1.9171591713272036,-1.7424930709034203,-1.8861597835600372,0.1447058916091919,0.5064349174499512,0.8168811798095703
0.0199289550781252,1.640514313288778,-1.451689046870172,-1.7915221824884413,0.0204774290323257,0.5208258032798767,0.8419092893600464
0.029894042968752643,1.2521005405053496,-0.961371335273981,-1.6284499276161193,-0.087672010064125,0.5393921136856079,0.8477064371109009
0.03985864257812466,0.8689115896981209,-0.4596487248271703,-1.5636270345717669,-0.1606210470199585,0.5614990592002869,0.841115415096283
0.04982397460937449,0.5189977165050804,-0.0137865332901477,-1.451388310357928,-0.1678823977708816,0.6048397421836853,0.8377856612205505
0.059788818359375995,0.2371379002973437,0.3644070203825831,-1.3165800269395111,-0.1084401085972786,0.6778313517570496,0.835656464099884
0.06975390624999989,0.101120168023929,0.6791764418929815,-1.1537725604832172,-5.80516643822e-05,0.7756409049034119,0.828778862953186
0.07971875000000139,0.0901180047553032,0.8801008730366826,-0.994555227473378,0.1245746985077858,0.8413994312286377,0.8322345614433289
0.08968383789062528,0.179151063818112,0.9775029703855512,-0.8244581885308027,0.2337877005338668,0.8907631039619446,0.8509512543678284
0.09964916992187511,0.3775437114618718,0.9524608835875988,-0.6402624816089868,0.3336346745491028,0.9177574515342712,0.8894368410110474
0.10961401367187662,0.6065853259999304,0.8554898711323737,-0.4992202722370624,0.4142563939094543,0.9045507311820984,0.935800075531006
0.11957885742187457,0.7718919888608157,0.7456476866662501,-0.3669458912104368,0.4684628844261169,0.8644880056381226,0.9752777218818665
0.12954272460937588,0.8792058238931,0.5455979925304651,-0.2181108360052108,0.4846867620944977,0.8391037583351135,1.0095819234848022
0.13950781249999977,0.9619790919087826,0.3203285169422626,-0.0551771128207445,0.4654920101165771,0.8185558915138245,1.0265460014343262
0.14947314453125315,0.9957724943086504,0.138860773679614,-0.0226215816527605,0.4141327440738678,0.7900368571281433,1.0302482843399048
0.1594379882812511,1.0235288085013627,0.0133054717749357,-0.054390930879116,0.3578982353210449,0.748956561088562,1.0163301229476929
0.16940283203125617,0.9710008950151504,0.0061687517628073,-0.0835696790903806,0.3056467175483703,0.6980901956558228,0.9789507985115052
0.17936767578125057,0.8477589115541427,0.1164361759036779,-0.1653852079898118,0.2641477286815643,0.6182757616043091,0.9243884682655334
0.1893330078125004,0.6812341050751507,0.3221659615024924,-0.2225572940200567,0.239509180188179,0.5377210378646851,0.8604891300201416
0.19929785156250546,0.4837936070570722,0.5502417266830801,-0.0864934575825929,0.2309713512659073,0.5021060705184937,0.7910772562026978
0.2092629394531258,0.3129896984867751,0.7120733338445424,0.0152115976572036,0.2398816794157028,0.4970330595970154,0.7249307632446289
0.2192277832031273,0.2288922326626256,0.8247492804318666,0.0960702642232179,0.2517447471618652,0.5179639458656311,0.665977954864502
0.22919165039062506,0.1986404849249869,0.8612196469560265,0.2343418398380279,0.273776650428772,0.5612819790840149,0.6308751106262207
0.2391569824218749,0.152602317050565,0.8865367513030767,0.4376999278694391,0.2990851998329162,0.631799042224884,0.6217707991600037
0.2491218261718764,0.155120839210134,0.8831012238964437,0.6973451357901096,0.292200893163681,0.7226563692092896,0.6283280253410339
0.2590869140625003,0.1169374399567022,0.926085210098326,0.8773632647663354,0.2591883540153503,0.8158896565437317,0.6241514086723328
0.26905175781250534,0.0748998860257677,0.9609569092541932,1.0098048190534117,0.2168692797422409,0.9078472852706908,0.6180388927459717
0.27901708984374807,0.0582820291666779,0.9605401451468468,1.0669055934131144,0.1884941011667251,0.9686903953552246,0.5983685255050659
0.2889826660156274,0.0951158861078321,0.9792232183068992,1.0966028125405312,0.1855680495500564,1.004307508468628,0.5650345683097839
0.2989477539062513,0.1495884765215683,0.9533259759843348,1.056876366829872,0.1906807869672775,0.9935752153396606,0.5250471830368042
0.30891259765625634,0.2165942756961099,0.892483677008748,1.039317329263687,0.206148162484169,0.960923671722412,0.4838390648365021
0.3188776855468767,0.3033669338125735,0.766849464648962,1.0181535452038049,0.2366938143968582,0.9159175753593444,0.4441513121128082
0.32884252929687463,0.3539608835615217,0.5576502493739128,0.9971072500437498,0.2685620188713074,0.8590791821479797,0.413652241230011
0.3388066406250019,0.3741879712931811,0.4103185844689607,0.9707499889940024,0.2874590158462524,0.7973143458366394,0.3810173571109772
0.34877172851562577,0.3510662580985575,0.3102992903590202,0.936453167116642,0.3021785914897918,0.7362550497055054,0.3406528830528259
0.3587368164062532,0.2559677067180164,0.2578331900626421,0.9485574464082718,0.3081408739089966,0.6987968683242798,0.2821075320243835
0.36870166015625117,0.1335575527049601,0.2393704816550016,0.927737945741415,0.3009927868843078,0.6709907650947571,0.2134815901517868
0.3786665039062562,0.0452049867196008,0.160517309692502,0.8610948515325784,0.3061920702457428,0.6593633890151978,0.1587592214345932
0.38863159179687656,-0.0338224458312615,0.0975409212976694,0.8733645505189895,0.3125877976417541,0.6783644556999207,0.1150477081537246
0.3985964355468745,-0.0343694121895357,0.0405839393228292,0.870079537498951,0.3108303844928741,0.7061276435852051,0.0769754201173782
0.4085617675781279,-0.0770887195732444,0.0162426942706108,0.7884329354256391,0.2997528612613678,0.7311494946479797,0.0369353257119655
0.4185268554687518,-0.0981289503186941,-0.0155617262691259,0.6914630920141935,0.2955280244350433,0.7461639046669006,0.0022764150053262
0.42849169921874974,-0.1371910138364881,-0.0608183335781097,0.5521756173551082,0.2973760962486267,0.7378618717193604,-0.0284351594746112
0.4384565429687477,-0.1407077167205512,-0.0627472558140754,0.3805079680949449,0.3022009432315826,0.7116829752922058,-0.0672288984060287
0.4484204101562561,-0.1576860317893326,-0.0683446374297142,0.2148573871672153,0.3067549169063568,0.6512362957000732,-0.1111135333776474
0.45838574218750594,-0.1899620884288102,-0.0663496642202138,0.0459942739337682,0.308986634016037,0.581696629524231,-0.1579912900924682
0.4683508300781263,-0.2283621809065341,-0.0289408478021621,-0.06603986761868,0.3013585805892944,0.5042546987533569,-0.2079529911279678
0.4783156738281278,-0.2831991019874811,-0.0046469490230083,-0.1431441500872373,0.2755168676376343,0.4327573180198669,-0.2474764436483383
0.4882807617187481,-0.3911080533687025,0.039099838244915,-0.1935457190692424,0.2381354421377182,0.3843596875667572,-0.2918361723423004
0.49824560546874963,-0.4636644632745534,0.0877870045244693,-0.21406536000669,0.2130553871393203,0.371482789516449,-0.3325889110565185
0.5082106933593771,-0.4973429340578615,0.1180482872754335,-0.2257300788372755,0.1877126097679138,0.3927027285099029,-0.3501556515693664
0.518175537109375,-0.4470571004100143,0.1821007804691791,-0.29008301628232,0.1566020995378494,0.4135632812976837,-0.3597670197486877
0.5281406249999989,-0.3378144892722368,0.2239262442857026,-0.3389250808626413,0.1371459513902664,0.4298295974731445,-0.3417136967182159
0.5381057128906264,-0.2212907812155783,0.2872223661541939,-0.3311532778173685,0.1167096644639968,0.430173397064209,-0.3061988651752472
0.5480708007812538,-0.0466531762339174,0.3434358362853527,-0.4059048596799373,0.0998425930738449,0.4071429967880249,-0.2557319700717926
0.558034667968748,0.1271852411940693,0.3811521112173796,-0.4807224925160407,0.087141714990139,0.3586148917675018,-0.1931769698858261
0.5679995117187495,0.2913338931262493,0.3501251047909259,-0.5455401248633861,0.0959617346525192,0.2965817153453827,-0.1149628683924675
0.577964599609377,0.4888770112685859,0.2651116566330194,-0.642449762520194,0.1143759042024612,0.2209471613168716,-0.0250803753733634
0.5879296875000009,0.6271899418070912,0.1565285323172807,-0.7560504227370023,0.1417658925056457,0.1194392293691635,0.0702682510018348
0.5978947753906247,0.6575120148345828,0.2078571530163288,-0.8209533952802419,0.1794112771749496,0.0011410870356485,0.159724086523056
0.6078596191406263,0.6369260306626557,0.1992453920155763,-0.9698650228530168,0.2336363494396209,-0.1438183188438415,0.2474227845668792
0.6178244628906278,0.5715820363536477,0.176601014009118,-1.0531599766552449,0.2941170036792755,-0.2955450117588043,0.320855975151062
0.6277895507812516,0.4513986367456615,0.097442721620202,-1.1457903295576572,0.3590578436851501,-0.4500283300876617,0.3657688796520233
0.6377546386718755,0.2786740257784724,0.0349082317739725,-1.2086585814028978,0.4003392159938812,-0.5917905569076538,0.3773946464061737
0.6477197265624994,0.136342214987427,-0.0761971044957637,-1.198286240470409,0.4202110469341278,-0.6941264271736145,0.3743027150630951
0.6576835937500007,-0.0360353361077606,-0.0979173533946275,-1.0744091009110213,0.4022600054740906,-0.7614234089851379,0.3564241230487823
0.6676486816406246,-0.2502797790084034,0.0265974995464086,-1.0129513003855943,0.3441997468471527,-0.8070750832557678,0.3253223598003387
0.6776135253906261,-0.5111003143187612,0.1933405518859624,-0.8345242399930953,0.2595911026000976,-0.8063461780548096,0.2896799445152282
0.6875786132812536,-0.8124601460926234,0.4228010494232177,-0.6623205841600894,0.1481089890003204,-0.7617712020874023,0.2466528564691543
0.6975437011718775,-1.087391259015724,0.6539981614947319,-0.5776280385196209,0.0290795341134071,-0.6794925928115845,0.2008438259363174
0.7075085449218754,-1.3058674942672253,0.8894219513505697,-0.4354816672980785,-0.0690494179725647,-0.5597431063652039,0.1596026420593261
0.7174738769531253,-1.476525381962955,1.1056629018306732,-0.3610509879529476,-0.1394554078578949,-0.4176280200481415,0.126729130744934
0.7274387207031268,-1.5578848376579582,1.3225941726624966,-0.3273369343996047,-0.1769715249538421,-0.273572713136673,0.0954843834042549
0.7374038085937471,-1.4987693624749778,1.4971739099770784,-0.2739882060497999,-0.1671833544969558,-0.1421142816543579,0.0592992156744003
0.7473684082031262,-1.3455246741339564,1.6480167978733775,-0.2825987980067729,-0.123841568827629,-0.059202391654253,0.0219092369079589
0.757333740234376,-1.0843252955738454,1.6858517307490108,-0.3240098358035087,-0.050480805337429,-0.0357671044766902,-0.0129845645278692
0.7672978515624997,-0.7206167788494378,1.6308827077209949,-0.2245592814922332,0.0370820723474025,-0.0633538961410522,-0.0298476982861757
0.7772626953125013,-0.3969780048480257,1.5350468367755412,-0.0741284815281629,0.1157941967248916,-0.1355471312999725,-0.0456327870488166
0.7872277832031251,-0.1210468845695257,1.4130781611859795,0.1254360594391822,0.1680181175470352,-0.204988420009613,-0.0648253858089447
0.7971926269531266,0.1132256163593381,1.25604401743412,0.3607669103145599,0.1965682655572891,-0.2631779313087463,-0.0768921747803688
0.807157714843747,0.2870261494623497,1.084353571820259,0.6475900480180978,0.1937657743692398,-0.3039034008979797,-0.0723786503076553
0.817122558593752,0.4596976420028135,0.8699211320668458,0.8666922331482172,0.1530337780714035,-0.3299847841262817,-0.0559533387422561
0.8270876464843759,0.6279780234448611,0.717604079964757,1.0827432140141724,0.084359660744667,-0.3308169841766357,-0.0346067734062671
0.8370524902343774,0.7993059193566441,0.5496002139091491,1.2523580223977564,-0.0085883932188153,-0.3258267343044281,-0.0042984033934772
0.8470175781250013,0.8521686908204108,0.3619926527172327,1.2074760936200617,-0.1161791235208511,-0.3243546485900879,0.0409961119294166
0.8569826660156252,0.8856918249115348,0.2451011342614889,1.24177700715065,-0.2304436415433883,-0.310742437839508,0.0843941867351532
0.8669465332031265,0.9072923929534852,0.1862614072799682,1.2555898439258335,-0.3451165556907654,-0.2939367592334747,0.1190403178334236
0.8769116210937469,0.8752681921832263,0.1395879189103841,1.160081889760494,-0.4498411118984222,-0.2841235399246216,0.1398505121469497
0.8868764648437519,0.8923715949364006,0.1419049636811017,1.1072580620676278,-0.5417413711547852,-0.2747189402580261,0.1467896550893783
0.8968415527343758,0.9396578083768486,0.141462480610609,1.015946975070238,-0.607726514339447,-0.2834093868732452,0.1386835128068924
0.9068066406249997,0.9732079035401344,0.0854126766085624,0.8510013275414705,-0.6520312428474426,-0.3134251832962036,0.1334373503923416
0.9167717285156272,1.0393728588432074,0.0667278498828411,0.7535919236689805,-0.6770873665809631,-0.3355749547481537,0.1298002898693084
0.926736816406251,1.0769363543663173,0.094039050656557,0.6686427729189396,-0.6848487257957458,-0.3436571955680847,0.1250555962324142
0.9367014160156266,1.093283312729001,0.114826402619481,0.5857067155569792,-0.6745377779006958,-0.3326418399810791,0.1293840259313583
0.9466667480468764,1.1434151248589155,0.117094347551465,0.4979711489588022,-0.6435062289237976,-0.3184268176555633,0.15155591070652
0.956631591796878,1.2198211228650062,0.0783317784368991,0.4154933567583561,-0.5929815173149109,-0.2832491397857666,0.1777949631214141
0.9665957031250016,1.3542011709339916,0.0575081861168146,0.3980067999064922,-0.5307639837265015,-0.2605203092098236,0.210417628288269
0.9765607910156255,1.487103474600613,-0.0002490063250064,0.3148001089096069,-0.468902438879013,-0.2622779905796051,0.2446781247854232
0.9865253906250011,1.6050506395891309,-0.0566004236221313,0.3209709064990282,-0.4056842029094696,-0.2484057396650314,0.2681853473186493
0.9964907226562509,1.7597512258268893,-0.1955412768006324,0.379465181043744,-0.3485948145389557,-0.2408197373151779,0.2977514863014221
1.006455566406256,1.9240372404031452,-0.3684995503932237,0.350753465822339,-0.2967254817485809,-0.2336807698011398,0.3407303690910339
1.0164206542968763,2.0588871710062024,-0.5229670585274696,0.3658534197986126,-0.2662916779518127,-0.2340091317892074,0.3871109187602997
1.0263854980468778,2.0901063390038908,-0.6453565898776054,0.4334463620781898,-0.2345562577247619,-0.1952128261327743,0.4213298857212066
1.0363508300781277,2.068596517985314,-0.7738537904530763,0.4353980806678533,-0.2127646803855896,-0.164374753832817,0.4563014507293701
1.0463156738281256,2.0292476734153926,-0.8537170162409543,0.3394856373548507,-0.198441743850708,-0.1259917765855789,0.5018143057823181
1.0562807617187495,1.9991142548277971,-0.883513019567728,0.3684954587399959,-0.1959666013717651,-0.0738108679652214,0.5338569283485413
1.066245361328125,1.917460930752754,-0.8918336886674165,0.2098445274412632,-0.1847208142280578,-0.0247284229844808,0.5522739887237549
1.0762094726562559,1.866145169535279,-0.86428108035326,0.0799170018017292,-0.1524555534124374,0.0347495526075363,0.5791698098182678
1.0861748046875057,1.8668492261514067,-0.8377671674370765,-0.0326905557245016,-0.1040612682700157,0.0996087864041328,0.6054168343544006
1.0961396484375001,1.8806632319703696,-0.7811006928414106,-0.1737999851137399,-0.0473830811679363,0.1564931124448776,0.6331190466880798
1.1061047363281276,1.8888890623934569,-0.7146580896407365,-0.2808452323377132,0.0099556194618344,0.2122049033641815,0.6657459735870361
1.1160693359374996,1.8875221579544248,-0.6548486408442259,-0.359841612163186,0.0650303214788436,0.2615516781806946,0.6985446810722351
1.126034667968753,1.8834389802940188,-0.6291933905839919,-0.4114642473727464,0.1124440431594848,0.3323311805725097,0.739351749420166
1.1359997558593768,1.9244187870666385,-0.6340361544400454,-0.4464741859555244,0.1385363638401031,0.3927143812179565,0.7938442826271057
1.1459645996093748,1.8901304407566784,-0.6022504386007785,-0.597969400280714,0.1625004112720489,0.4479619562625885,0.8339757323265076
1.1559296874999987,1.7949372516289352,-0.5309422751903533,-0.6625672523975372,0.1915232688188552,0.4996954500675201,0.8785250782966614
1.1658947753906261,1.629220619727671,-0.3791723355770111,-0.7514835532128811,0.2265116423368454,0.5437819957733154,0.9138058423995972
1.1758586425781274,1.4576190214410425,-0.2208633495837449,-0.9042319824695588,0.259658932685852,0.5811874270439148,0.925311803817749
1.1858237304687478,1.285539576509595,-0.088031919196248,-1.0052969862401484,0.2989613115787506,0.6129787564277649,0.9163100123405457
1.1957885742187528,1.207813362750411,0.0269563959866762,-1.1092337460547683,0.3332668244838714,0.638011634349823,0.8964841365814209
1.2057536621093767,1.2053202307604252,0.1155441955000162,-1.1783411845505236,0.3807942867279053,0.6683842539787292,0.8847638368606567
1.2157187500000006,1.2455623709082602,0.0452063384264707,-1.2150287009567022,0.4183754920959472,0.7232738733291626,0.8998932242393494
1.2256838378906245,1.331318892518431,-0.0362415262043476,-1.2125830613702535,0.4534925520420074,0.7892376184463501,0.9208970665931702
1.235648681640626,1.3701868217036128,-0.0586088408350944,-1.2871920198917388,0.4601203799247741,0.8425205945968628,0.9426060914993286
1.2456135253906275,1.4209741751328109,-0.0625327362805604,-1.3168728724062442,0.4542664885520935,0.890256941318512,0.9578920602798462
1.2555783691406255,1.474070974548161,-0.0648585488796234,-1.3836188424676656,0.444846898317337,0.9275822043418884,0.9642663598060608
1.2655437011718753,1.519530410952866,-0.0372527490735054,-1.4833628267675638,0.4309190809726715,0.95530503988266,0.9619872570037842
1.275507812499999,1.6073150773897766,-0.0143839146614074,-1.473688404971361,0.4030129015445709,0.9799946546554564,0.9596607089042664
1.2854726562500005,1.720539013248682,0.0115530751496553,-1.506186652994156,0.3455030918121338,0.9941115975379944,0.968128502368927
1.2954370117187466,1.8087755151063205,0.0582119504719972,-1.5292892961621285,0.2765890061855316,0.9937102198600768,0.9906676411628724
1.3054020996093776,1.85263190022856,0.1560819575935602,-1.49855104354918,0.203969269990921,0.9868652820587158,1.0335519313812256
1.3153671875000015,1.8313433207452297,0.322541516816616,-1.4899480503767728,0.1276814192533493,0.9765908122062684,1.087389349937439
1.3253322753906254,1.7614990924075244,0.544628270715475,-1.449477508300543,0.0673063844442367,0.9670515656471252,1.1374218463897705
1.3352971191406269,1.6546023137435315,0.8113625601142644,-1.3675801463365551,0.0259911641478538,0.9605324268341064,1.179443359375
1.3452624511718767,1.555742272671312,1.1122142231702803,-1.2687871791511771,0.0137829622253775,0.941838264465332,1.2219852209091189
1.3552272949218747,1.487415024767816,1.3996546159893273,-1.0816519116461276,0.0207367427647113,0.9175866842269896,1.271422028541565
1.3651923828125057,1.4496017192021011,1.6844821959614753,-0.8654378491729497,0.0393774062395095,0.9052273631095886,1.3211987018585205
1.3751562499999999,1.4230997889846562,1.915651835504174,-0.5783218660026789,0.0708493143320083,0.908041536808014,1.3754632472991943
1.3851210937500014,1.522689751766622,1.987846134099364,-0.3092576723515987,0.1032028868794441,0.919861912727356,1.449092149734497
1.3950864257812512,1.6328601452738043,2.02131235037148,-0.037370822495222,0.1194508299231529,0.9328096508979796,1.531876564025879
1.4050512695312563,1.7533055568188427,2.0746242538422344,0.2192372096866369,0.1119676083326339,0.951479971408844,1.615323185920715
1.4150163574218766,1.855779550604522,2.03638190920949,0.3554629586875438,0.0932133644819259,0.9559583067893982,1.6982377767562866
1.4249809570312557,1.9494239028550684,1.942475545021892,0.4613420847415924,0.0678404793143272,0.9686532616615297,1.77523672580719
1.434946044921876,2.069180455353111,1.9334581258296968,0.5930114856123924,0.0183895714581012,0.9665994048118592,1.8492579460144043
1.4449111328125,2.184135452788323,1.8287217400699851,0.5422884295910596,-0.0478356704115867,0.951735496520996,1.9060511589050293
1.4548762207031274,2.211921139205992,1.782019025605917,0.4586649744868278,-0.1138501018285751,0.9110777974128724,1.939697027206421
1.4648410644531253,2.218761360489577,1.7764432713001963,0.2759843483030796,-0.1808114349842071,0.8787937760353088,1.9525291919708248
1.4748051757812561,2.2315157742530105,1.7652444164156913,0.1374433080971241,-0.2401946038007736,0.8496904969215393,1.9617652893066408
1.4847700195312505,2.233863506422937,1.7833581652551889,-0.0408785383552312,-0.2902014553546905,0.8210580348968506,1.9635534286499023
1.4947351074218744,2.1891925900474187,1.796619797888398,-0.2811819169461726,-0.3258270919322967,0.788242518901825,1.9696624279022217
1.5047001953125054,2.1397335626125336,1.8127946876198051,-0.395633056512475,-0.3501023352146148,0.7738441824913025,1.981605887413025
1.5146650390624998,2.0726026848867534,1.873345894694328,-0.5146364525556564,-0.3751339018344879,0.7685610055923462,1.9937373399734497
1.5246301269531273,1.9500944955930115,1.94947227204144,-0.6557166558504104,-0.4017431139945984,0.774614691734314,2.0021047592163086
1.5345952148437476,1.8203278596036132,2.031377817311883,-0.7556085241883993,-0.4140330553054809,0.8023986220359802,2.0098917484283447
1.544560302734375,1.7076469445802271,2.0519529878288507,-0.899947437018156,-0.4192836284637451,0.843375027179718,2.0235483646392822
1.5545251464843766,1.6096134174600245,2.072193811824917,-0.9945715940862894,-0.418164849281311,0.8933226466178894,2.033327341079712
1.5644890136718779,1.5115801826007664,2.0852982080698013,-1.1236749438613651,-0.4070276618003845,0.9285247921943665,2.0433900356292725
1.5744541015625053,1.4475688982002437,2.070429724761844,-1.155156708317995,-0.383494108915329,0.965549647808075,2.04492712020874
1.5844191894531257,1.3827119567558168,2.032084504276514,-1.1767203053504227,-0.3472444415092468,1.002813696861267,2.0380635261535645
1.5943842773437495,1.303572076806426,1.9626573323071,-1.2061954061597584,-0.3001834452152252,1.0320628881454468,2.025809526443481
1.604349365234377,1.2239811651539056,1.9083394666641949,-1.1782815633177757,-0.2588259279727936,1.060892939567566,2.0018701553344727
1.6143139648437526,1.1940560555547477,1.8339520419389008,-1.1149264047384262,-0.2071337103843689,1.0774407386779783,1.969713568687439
1.6242792968749988,1.1520564042150974,1.7087559287354348,-1.092307745695114,-0.1587841361761093,1.0819687843322754,1.935807704925537
1.6342441406250003,1.147191428527236,1.5958365287810563,-0.9813228209346532,-0.124380886554718,1.087883710861206,1.8910791873931885
1.6442092285156278,1.1732611048072576,1.4604124515518546,-0.8968108925580978,-0.0984991118311882,1.0703233480453491,1.8475847244262693
1.6541740722656257,1.1439693246755749,1.3241381872341036,-0.784770321264863,-0.0877508595585823,1.0712467432022097,1.8041448593139648
1.6641394042968756,1.105107679100707,1.1786384139314292,-0.6763572928190231,-0.087731547653675,1.0807703733444214,1.7539434432983398
1.6741032714843769,1.0367029820468276,1.041604271157086,-0.6201525905162095,-0.1007448211312294,1.0885459184646606,1.706640362739563
1.6840681152343748,0.9661871380578726,0.9691384621441363,-0.5766881273210048,-0.124293714761734,1.098967432975769,1.6584640741348269
1.6940332031249987,0.8491446668241173,0.9125053052961826,-0.5486994656771421,-0.1421597898006439,1.1187074184417725,1.606308937072754
1.7039980468750002,0.7299620417565107,0.8861690870344638,-0.5318079521089792,-0.1484785079956054,1.1429353952407837,1.561923623085022
1.7139633789062536,0.5986139817945659,0.8905904106080531,-0.5415975247174502,-0.1607854962348938,1.1542237997055054,1.5166664123535156
1.7239282226562516,0.4812369813768193,0.9119853730753064,-0.5637473972052336,-0.1675117164850235,1.148122787475586,1.4701732397079468
1.7338933105468755,0.3434462846141308,0.905145297922194,-0.5737240168184041,-0.162221074104309,1.141300082206726,1.4295687675476074
1.743857910156251,0.1983375929882749,0.9071756347060204,-0.661888622483611,-0.1456567496061325,1.1402063369750977,1.3862109184265137
1.7538232421875009,0.0483440519303083,0.8919096765130757,-0.683888272845745,-0.1127608492970466,1.137468695640564,1.3399494886398315
1.7637883300781247,-0.0562305673964321,0.8681973770141601,-0.7018114675492048,-0.0712689757347107,1.1233103275299072,1.2914618253707886
1.773752197265626,-0.1214609817957505,0.8272358365505933,-0.7412935831099748,-0.0241147801280021,1.102869749069214,1.2339096069335938
1.7837172851562535,-0.1773702082833275,0.7510764337167143,-0.8117991979658603,0.0210115741938352,1.0617631673812866,1.1794832944869995
1.7936818847656255,-0.2634891517314128,0.6271069396987557,-0.8650286838501692,0.0579501539468765,1.010822296142578,1.129160761833191
1.8036472167968753,-0.3588305354245006,0.548824553361535,-0.8420990591615438,0.0762756019830703,0.9667660593986512,1.0712809562683103
1.8136123046875028,-0.4893783849194645,0.4457166455864906,-0.8602326817452907,0.0752108693122863,0.9304831624031068,1.0040130615234375
1.8235771484375007,-0.5998945961896329,0.3881014919638633,-0.8138520388424396,0.0649888813495636,0.9076290130615234,0.9348456263542176
1.8335422363281246,-0.7052644575472921,0.3204226249665021,-0.8310796524971723,0.0475915148854255,0.8907768130302429,0.8788292407989502
1.843507324218752,-0.801451480017975,0.2718044322699308,-0.8207698554068803,0.0355930253863334,0.8803780674934387,0.8302204012870789
1.853472412109376,-0.899353416647762,0.2834641826644539,-0.793222507789731,0.0286770649254322,0.8826279044151306,0.7818046808242798
1.8634362792968773,-0.9615990796152502,0.2768900649711489,-0.7891366997808218,0.0371487364172935,0.8776163458824158,0.7386276721954346
1.8734011230468752,-1.0137962998423724,0.3022986469939351,-0.8076566913336515,0.0641342774033546,0.8676329851150513,0.7016240954399109
1.8833662109375027,-1.0582122916087509,0.3173179369494319,-0.7866431293994188,0.1063721477985382,0.8339099287986755,0.6731695532798767
1.8933312988281266,-1.0739321310490368,0.2809770420238375,-0.7625567358911037,0.1538797318935394,0.7834931015968323,0.6414803266525269
1.903296386718747,-1.0238415277123452,0.196731947889924,-0.7022989588052034,0.1913556307554245,0.7073162794113159,0.6062432527542114
1.913261230468752,-0.9656991353452206,0.0454869089335203,-0.6267004047244786,0.2196799367666244,0.6229236721992493,0.5759780406951904
1.92322607421875,-0.94721560334526,-0.0833580821663141,-0.534775569742918,0.2306682467460632,0.5280793309211731,0.5427473783493042
1.9331909179687479,-0.9039556497462092,-0.2125786285802721,-0.4453314456611871,0.2177551239728927,0.4428730607032776,0.5097832679748535
1.9431562500000013,-0.8556248956888913,-0.3996566129401326,-0.3422586091995239,0.1818934082984924,0.3762848377227783,0.47536700963974
1.9531210937500028,-0.75506396898292,-0.5744821417093277,-0.2889274165064096,0.1207445636391639,0.3163232207298279,0.4511319696903229
1.9630852050781264,-0.6836486919362098,-0.7228481180980801,-0.3535702768087387,0.0462607629597187,0.2529453039169311,0.4377663731575012
1.9730502929687468,-0.6695381873887032,-0.8139473159104585,-0.4702472757309675,-0.0366173386573791,0.17832912504673,0.4351412951946258
1.983014892578126,-0.7277601477980613,-0.8885314322516321,-0.6506663867235183,-0.1144642233848571,0.1123045310378074,0.4259155392646789
1.9929802246093757,-0.8294759436275809,-0.9118962334871292,-0.8058125247716903,-0.1854854077100753,0.0535602606832981,0.4054145216941833
2.0029450683593772,-1.0217921209018677,-0.7300581956073642,-1.057864793345332,-0.2491342723369598,-0.0269798673689365,0.3645877838134765
2.012910156250001,-1.1685461320493369,-0.4863555299669503,-1.2206991478085518,-0.2942855060100555,-0.1052970364689827,0.3084568679332733
2.022875244140625,-1.31396166113466,-0.2405263736918568,-1.2675894937992096,-0.3317877650260925,-0.1728049218654632,0.2611593902111053
2.032840332031256,-1.4783764166571198,0.1370189452052116,-1.3308680800110102,-0.3467640578746795,-0.2139345109462738,0.2140552401542663
2.0428054199218764,-1.628001745457202,0.4639119352295994,-1.3212544484913349,-0.3052753508090973,-0.1972662955522537,0.177448496222496
2.0527690429687517,-1.724054327893257,0.7308508072897791,-1.2058721655547615,-0.2118377983570099,-0.1307509094476699,0.1559682339429855
2.0627341308593756,-1.6834909929670392,0.9877537307649852,-1.1535428433805703,-0.0872349962592125,-0.0864809527993202,0.1434937268495559
2.0726992187499995,-1.5685219670064747,1.161200956918299,-1.0747621521323918,0.0574212521314621,-0.0558620542287826,0.1383058875799179
2.082664306640627,-1.3577711383752524,1.2628168725699185,-0.854948603862524,0.1958183944225311,-0.0506675355136394,0.1362965255975723
2.092629394531251,-1.1075427242279052,1.2791659498244523,-0.6451935082703828,0.3178518712520599,-0.0809865593910217,0.1346403062343597
2.102594238281256,-0.8573871561210602,1.211621522861719,-0.4085188415706157,0.4041147232055664,-0.1330268532037735,0.1325401365756988
2.112559082031254,-0.6064107366180047,1.1354077594920993,-0.1336784026056528,0.4722610414028168,-0.1954034119844436,0.1185119301080703
2.1225241699218778,-0.3925149244919419,1.0150041412621735,0.0943050081163644,0.5243074893951416,-0.2571410238742828,0.0925807356834411
2.1324892578125016,-0.1918368510584346,0.8838196012988686,0.2450613867729902,0.5456122756004333,-0.3206028044223785,0.0681116133928299
2.1424541015624996,-0.0398172018671873,0.7766115647286176,0.4208896628439426,0.5388713479042053,-0.3687593936920166,0.0436685867607593
2.152418212890627,0.0528638400428462,0.6708347300052643,0.590858106970787,0.5015324950218201,-0.3979420363903045,0.0250187348574399
2.162383056640625,0.1016806149182841,0.5916477960437536,0.7646849800914526,0.4298334121704101,-0.4054103493690491,0.0137778017669916
2.172348144531256,0.1217263912662863,0.5543024002507329,0.8782470618635415,0.3391413390636444,-0.3916596472263336,0.0035424747038632
2.182313232421876,0.1136623455424793,0.5600643247783184,0.9092436731517316,0.2334886789321899,-0.3825080692768097,-0.0073828790336847
2.1922780761718776,0.0722245658692903,0.5984539689272642,0.9947253233432768,0.1299926340579986,-0.3461753726005554,-0.0267190262675285
2.2022431640625015,0.0285885089668445,0.6580307780116796,1.0524491980373858,0.0344067141413688,-0.2938144207000732,-0.0398297719657421
2.2122082519531254,-0.0094700583305209,0.7125707619726658,1.0258119510024786,-0.0438390895724296,-0.2295387387275695,-0.0537927262485027
2.222173339843753,0.0007889584206044,0.7453548411995172,1.0278560240507126,-0.1028347685933113,-0.1705828458070755,-0.059729978442192
2.232137939453125,0.0381025343032553,0.7510013226538896,0.9185387402415276,-0.1379546821117401,-0.1379135847091674,-0.0579054430127143
2.2421020507812557,0.1222771570168435,0.7492758140355348,0.8506769178926944,-0.1497427076101303,-0.1248556673526763,-0.0572718754410743
2.252067138671876,0.1760248580889776,0.7074380752593279,0.7384943077802658,-0.1407670527696609,-0.1384875774383545,-0.059695079922676
2.2620322265625,0.2112687880907207,0.6564288957729936,0.700281773763895,-0.1205753684043884,-0.170362651348114,-0.0724063515663147
2.2719973144531274,0.2195833562431856,0.5673635418757796,0.7015022554695606,-0.1018072739243507,-0.2035403102636337,-0.0942879468202591
2.2819621582031253,0.2529662050807848,0.430693263977766,0.7037211005628109,-0.0878390222787857,-0.2315121591091156,-0.1194391101598739
2.2919272460937528,0.2961905759098008,0.2888976058900356,0.754465783894062,-0.082190990447998,-0.2482932806015014,-0.144617423415184
2.3018923339843766,0.3211585380256175,0.184064774018526,0.8712421515375375,-0.0870294347405433,-0.2473435550928115,-0.1572261601686477
2.3118571777343746,0.2940770178219303,0.0813946731388568,0.945405119857192,-0.1056981980800628,-0.2425903528928756,-0.1623503565788269
2.3218222656249985,0.3134480001809075,0.0142477210611104,1.0257079061061145,-0.1276682019233703,-0.2461408376693725,-0.1716019064188003
2.331787353515626,0.327081936725229,-0.0350277665004134,1.0527391208946704,-0.1578351557254791,-0.2601658403873443,-0.1777599304914474
2.3417514648437496,0.3066941054739058,-0.1262871233105659,1.073389110213518,-0.1725878566503524,-0.2826393842697143,-0.179637461900711
2.3517163085937476,0.2941404749795794,-0.1787213671639561,1.08369890730381,-0.179231122136116,-0.3175715208053589,-0.1896363049745559
2.3616811523437526,0.2751824208030477,-0.2332008531093597,1.1201947005301711,-0.186512604355812,-0.3577911555767059,-0.199603721499443
2.3716462402343765,0.239083664070256,-0.316627616597712,1.1418325318425893,-0.1983357071876526,-0.3987042307853699,-0.2117360085248947
2.3816113281250004,0.2117075083015486,-0.3911363296151161,1.2235007612258195,-0.2248618602752685,-0.4223023653030395,-0.2193033844232559
2.391576416015628,0.1949169708898291,-0.4540624491274356,1.3420961609899995,-0.2685568630695343,-0.4185401201248169,-0.2277141809463501
2.401541259765626,0.1921229562571272,-0.554971677814424,1.3821721507906912,-0.3295243680477142,-0.389686107635498,-0.2286020964384079
2.4115063476562533,0.1271478317931294,-0.64157151838094,1.4110884486734867,-0.3964171111583709,-0.333498477935791,-0.2168375849723816
2.4214711914062512,0.1003279947329312,-0.6885293766498565,1.3866682931661605,-0.4532921910285949,-0.2490553259849548,-0.2010210454463958
2.431435302734375,0.0775456695605069,-0.7828162645876408,1.2950965094059703,-0.4883140921592712,-0.1440540850162506,-0.1689451336860656
2.441400390624999,0.1160696806788444,-0.855094149813056,1.181682896193862,-0.5036894679069519,-0.036624975502491,-0.1232098788022995
2.4513652343750003,0.1785592354048043,-0.9104460346788168,0.978635773807764,-0.4902479648590088,0.0461876094341278,-0.0898287519812583
2.4613303222656278,0.2693856076251715,-0.977777695673704,0.7381178756833076,-0.4359220564365387,0.0921474024653434,-0.0627563968300819
2.4712954101562516,0.4137088844943791,-1.095357196393609,0.4453378754019736,-0.3441205024719238,0.0898144766688346,-0.0417057015001773
2.481260253906253,0.5251956212971359,-1.2505302224487065,0.2637310159295797,-0.2381471991539001,0.0577910430729389,-0.0274298321455717
2.491225097656251,0.671295260189101,-1.3774512597486377,0.0853057091027498,-0.1379007548093795,0.0046122437343001,-0.0171548221260309
2.501190185546875,0.783993345542997,-1.4616881705760956,-0.1131505783617496,-0.039861112833023,-0.0739772319793701,-0.0214792601764202
2.5111552734375024,0.8595221953883767,-1.5657953185215592,-0.2590261992394924,0.0603981167078018,-0.1461662054061889,-0.0147491851821541
2.521119384765626,0.8555830293085426,-1.636167954647541,-0.3549614389061927,0.1506275087594986,-0.2170075923204422,-0.0132442275062203
2.5310844726562536,0.8266496341604739,-1.6002257036507128,-0.4022790703982115,0.2121918052434921,-0.2567198574542999,-0.0224270708858966
2.5410490722656256,0.7759439676653593,-1.6073191690430044,-0.3901590090155601,0.2401115596294403,-0.2559281587600708,-0.0291710011661052
2.551014160156253,0.7690437598228455,-1.6868106389090418,-0.3532230708062648,0.2446144372224807,-0.2026987671852111,-0.0245006140321493
2.560979248046877,0.869531621292606,-1.853105362959206,-0.3708604343056678,0.2111422568559646,-0.1091452538967132,-0.0104913152754306
2.570944335937501,1.0275787414792923,-2.000002143578232,-0.4472656285941601,0.1591940969228744,0.0037677083164453,0.0116113228723406
2.5809094238281247,1.154009584109485,-2.0909563799619675,-0.5808049149900675,0.1052022352814674,0.0899330005049705,0.0435093380510807
2.5908742675781262,1.2781751852214336,-2.205828375288844,-0.8777239147722721,0.0513781532645225,0.1290580332279205,0.0744257047772407
2.600839599609376,1.2669476887643336,-2.1836153744369744,-1.2449725883215663,0.0174274649471044,0.1282364428043365,0.0755404978990554
2.6108032226562514,1.1996057255711403,-2.113921368224919,-1.6345447373598814,-0.0026812646538019,0.1077945455908775,0.0505616404116153
2.6207683105468753,1.1122613502476364,-2.017535754442215,-2.012681300148368,-0.0054866261780261,0.0873962715268135,-0.0094617437571287
2.6307333984375028,1.0336407449319958,-1.9932763424545523,-2.3599773189932107,0.0153230475261807,0.1000638604164123,-0.0863224416971206
2.6406982421875007,0.9533588553406298,-1.9393050982922315,-2.6204735907852648,0.0532539375126361,0.123771883547306,-0.1765860170125961
2.650663574218747,0.9368187124934046,-1.7721721698522566,-2.844094130122661,0.0776229277253151,0.1529830396175384,-0.2642663121223449
2.660628173828126,0.960763724769652,-1.5978174734652042,-2.9870149928480383,0.1023032218217849,0.1939493864774704,-0.3113438487052917
2.6705932617187464,1.018406204790622,-1.4488772043198346,-2.8387597833573817,0.1197682321071624,0.2745299935340881,-0.3262170553207397
2.680558105468748,0.9691678343690932,-1.1576683988779783,-2.70879075666368,0.1233524158596992,0.3543964624404907,-0.3055847585201263
2.6905231933593754,0.8984291414096951,-0.8142825392141938,-2.503559275975823,0.1250925213098526,0.4490891396999359,-0.2608036994934082
2.700487548828125,0.786988727966696,-0.4038029189646244,-2.1675591426491736,0.1318807154893875,0.5629515051841736,-0.2151688337326049
2.7104523925781265,0.6621031420171261,0.0276683436483144,-1.9001035532385109,0.1508224457502365,0.6701096892356873,-0.1711153537034988
2.7204172363281245,0.5625071148205548,0.4717921670854091,-1.541030002838373,0.1955554038286209,0.7794126868247986,-0.1379046738147735
2.730382080078126,0.597552490042895,0.8397717852577566,-1.189560497701168,0.2554033100605011,0.8678054213523865,-0.1004606187343597
2.74034716796875,0.7431396493680775,1.1003241711512208,-0.9035942690879106,0.3068960309028625,0.910651683807373,-0.0569911822676658
2.7503122558593773,0.9792072900854052,1.2405503879651427,-0.6030085634917021,0.3567224442958832,0.9373152256011964,0.0126129295676946
2.7602773437500012,1.2369053094610571,1.269475745937228,-0.4030675904273986,0.3891031444072723,0.9148123264312744,0.098991759121418
2.7702421875000027,1.4208037870019674,1.2576657734170555,-0.3261123610407114,0.4100702106952667,0.8523286581039429,0.1859506368637085
2.7802072753906266,1.5042191523134707,1.2308026086717845,-0.276975697427988,0.4155302047729492,0.7647731900215149,0.2612448334693908
2.790171142578128,1.5108850399434566,1.138047460345924,-0.2600403447180986,0.4059391021728515,0.6820607781410217,0.3066477477550506
2.800136230468752,1.4468788701094686,1.1030249545425177,-0.2962731030941009,0.3809756934642792,0.6018078923225403,0.3226165771484375
2.8101013183593757,1.291571404019743,1.075851408673823,-0.3776566703170538,0.3510710597038269,0.5427861213684082,0.3199094831943512
2.820066162109377,1.1109048941373825,0.9736351890414952,-0.3603887246519326,0.3341460227966308,0.5265114903450012,0.3206860721111297
2.830031250000001,0.9772527950167657,0.999029742538929,-0.3639607379198074,0.2948561608791351,0.530550479888916,0.2938701510429382
2.839996337890625,0.818207895964384,1.1246399895012378,-0.314529475274682,0.2544597387313843,0.5424889922142029,0.2678236365318298
2.8499611816406265,0.6447513905260711,1.2313269248068333,-0.1118652147263288,0.2345566004514694,0.5922490954399109,0.2604831755161285
2.859926269531254,0.5876950763626024,1.3798860856801272,0.0835813695281744,0.2231031358242035,0.6596176028251648,0.2677908837795257
2.8698911132812555,0.5281275465631857,1.6067904689937829,0.2946948939919471,0.215329110622406,0.722136914730072,0.2955111861228943
2.8798552246093756,0.5116021263610572,1.713270483550429,0.4923842887371778,0.2178196907043457,0.7700960040092468,0.3337089121341705
2.8898203124999995,0.5103021496783942,1.8108347857236864,0.6903519159018993,0.2318838536739349,0.8028217554092407,0.3878887891769409
2.899785400390627,0.4601914534017443,1.8574410540759565,0.8814888202637433,0.2448955178260803,0.8088694214820862,0.4391463994979858
2.909750244140625,0.4292630119789391,1.9534172102749348,1.0518564928412435,0.2393124848604202,0.7838364839553833,0.4737147688865661
2.9197150878906264,0.4150818533480167,1.8966016825973984,1.123155303901434,0.2347069531679153,0.731930673122406,0.4947412014007568
2.9296804199218762,0.3734460668846964,1.798811754974723,1.2370745285481213,0.2172209173440933,0.6765270829200745,0.5020217895507812
2.9396452636718777,0.2701573226500302,1.7623662306308745,1.3930430888950824,0.1940149068832397,0.6447103023529053,0.4864214956760406
2.9496103515625016,0.2117754224386066,1.7590145821154115,1.501954714512825,0.1632639169692993,0.6224305629730225,0.4606825709342956
2.9595751953124996,0.2078029386110603,1.7063929989963769,1.6175918489933012,0.1272465139627456,0.617354691028595,0.4404239058494568
2.969539062500001,0.2556445209119469,1.7442998280644415,1.7734966964542864,0.079542376101017,0.6254746913909912,0.4350920021533966
2.9795043945312507,0.4141216300137341,1.7380881139427422,1.8445991081595416,0.024684976786375,0.6436008214950562,0.4502115547657013
2.9894692382812558,0.5553668876770883,1.6351970637887716,1.836174978685379,-0.0274975337088108,0.6498347520828247,0.4814557731151581
2.999434326171876,0.6703967039141804,1.5968787313103674,1.7795003207832574,-0.0755307078361511,0.6548923850059509,0.5136677622795105
3.0093991699218776,0.7920167121965438,1.559710153388977,1.7149316947609186,-0.1206081733107566,0.6471338272094727,0.5521256923675537
3.0193645019531274,0.8537138744357973,1.4393448213428257,1.553704775494337,-0.1528913974761963,0.6264036297798157,0.609120786190033
3.0293291015624995,0.8789183121886104,1.3755401654303072,1.4504530753344296,-0.1760156154632568,0.5947287678718567,0.6620913147926331
3.039294189453127,0.8662777340631932,1.3149948035746812,1.421654850873351,-0.1954859793186187,0.5694175362586975,0.7077954411506653
3.049259033203125,0.7827272711299359,1.26687988422513,1.2562760726243256,-0.2239455878734588,0.513789176940918,0.7467822432518005
3.0592231445312557,0.6319079102396965,1.2516273700356482,1.1718307797431946,-0.2438404858112335,0.4681591689586639,0.7769891619682312
3.0691884765625055,0.5111261063471436,1.1040256560176611,1.0916554192662238,-0.2664608657360077,0.4388359189033508,0.8090426921844482
3.0791533203125,0.3954325655043125,0.9470879583775996,0.924395649576187,-0.2848101556301117,0.4003719389438629,0.8386775255203247
3.0891181640625014,0.2602863553684205,0.810899034255743,0.7472755801290273,-0.3058600425720215,0.3764343857765198,0.8606406450271606
3.099083007812503,0.1385048729140311,0.6709206547230482,0.5842231990009545,-0.3244371712207794,0.3520884215831756,0.8708940744400024
3.1090483398437527,0.0339827874921262,0.524307367220521,0.352424613904953,-0.3316849768161773,0.3201512694358825,0.8805493712425232
3.1190134277343766,-0.05538834441863,0.3727116151303052,0.1181347965151071,-0.3323302865028381,0.2854565978050232,0.8870093822479248
3.1289782714843746,-0.1342018419578671,0.224395615363121,-0.1050327383577823,-0.3120060861110687,0.2399170696735382,0.8814631104469299
3.1389433593749985,-0.2511502782326191,0.0593839168608188,-0.3423205685198306,-0.2812808156013489,0.1867401450872421,0.8655245900154114
3.1489069824218774,-0.3906452581625431,-0.0897176803261041,-0.548489037796855,-0.2465348243713379,0.133119523525238,0.8366575241088867
3.158872314453127,-0.5650315187316387,-0.2232084514051675,-0.6872872676342725,-0.2041371613740921,0.0943867117166519,0.797556459903717
3.1688374023437476,-0.7400986742369831,-0.3480915531367063,-0.7920143010437488,-0.1510366648435592,0.0689615085721015,0.7444823384284973
3.1788022460937526,-0.8884221266582608,-0.3891635682374239,-0.838025526112318,-0.1039900481700897,0.0545283481478691,0.6862674951553345
3.1887673339843765,-0.9482376398693768,-0.489192799219489,-0.8781722430616616,-0.072817213833332,0.0298765301704406,0.6199646592140198
3.1987324218750004,-0.9715271108463406,-0.5399661241233349,-0.8789788832694292,-0.059518989175558,0.0118910372257232,0.5535091757774353
3.208697509765628,-0.8451540628179908,-0.693698303720355,-0.8430348787069321,-0.0526336506009101,0.0086758034303784,0.5043869614601135
3.218662109375,-0.6670735508408397,-0.8523521576285362,-0.7614987512707709,-0.0596397630870342,0.0120360711589455,0.4769137501716614
3.2286271972656273,-0.4973858964167535,-0.8984913929909467,-0.7769348053336143,-0.0862332880496978,0.0003631704021245,0.472377598285675
3.2385913085937474,-0.3658231707908213,-0.9436509696662424,-0.7669184382319449,-0.1083588227629661,0.0004813005216419,0.4762953519821167
3.248556396484375,-0.2932997133065015,-0.9812380652606488,-0.748988229265809,-0.1215079203248024,-0.007777961436659,0.4895805418491363
3.2585214843749988,-0.2081925224505365,-1.0183721563905477,-0.7741150717377662,-0.1353769749403,-0.010085230693221,0.5059725642204285
3.2684863281250003,-0.1073131774451583,-1.08949911801517,-0.7272130353093147,-0.1608346700668335,-0.015675738453865,0.5098913908004761
3.278451171875002,-0.085627415337786,-1.145040972495079,-0.6882967369377613,-0.193137377500534,-0.034182820469141,0.502716600894928
3.2884160156249997,-0.0639575814519077,-1.2334586761385202,-0.6445341675788164,-0.2405778616666793,-0.0420391447842121,0.4913749694824219
3.298383544921876,-0.0417727472485974,-1.289653441569209,-0.4645873502731323,-0.3142356872558594,-0.0246161203831434,0.4915044009685516
3.3083483886718774,-0.0656262818491086,-1.178694820293784,-0.3454986140340566,-0.4310722947120666,-0.0096158655360341,0.4917156100273132
3.318312500000001,-0.0981764427222311,-1.0854846216768026,-0.3013210341334342,-0.5854685306549072,0.0034202574752271,0.5014768838882446
3.328277343749999,-0.2093805997239425,-0.8715273982197046,-0.2762467986315489,-0.7548887133598328,0.0067801014520227,0.5144227743148804
3.3382424316406265,-0.4390034847486764,-0.516973955592513,-0.3157259915828704,-0.9283078908920288,0.0144490404054522,0.5197365880012512
3.348207519531254,-0.8161515479564666,-0.1174482755556702,-0.4797627075731754,-1.0863494873046875,0.0193601753562688,0.5105076432228088
3.3581723632812555,-1.2655087420023976,0.2868465185791254,-0.6407733537405729,-1.2030596733093262,0.0312944129109382,0.4616676867008209
3.3681372070312534,-1.6168280250139533,0.6831015063822269,-0.8311421963393688,-1.268612027168274,0.0530718825757503,0.3936939537525177
3.3781022949218773,-1.8934215912565588,0.9039224781289696,-1.090534306281805,-1.254169225692749,0.09438968449831,0.3325973153114319
3.388067382812501,-2.132496597096324,1.1169473891720174,-1.3029074754178522,-1.163335204124451,0.1427529454231262,0.2908560037612915
3.398032470703125,-2.2865239602476355,1.227813655988872,-1.5601830315977334,-0.9971864223480223,0.1954445093870163,0.245391845703125
3.407996582031256,-2.4128799110107124,1.3094567509308457,-1.7714134604394436,-0.7858667373657227,0.2103214710950851,0.2027975022792816
3.417961181640628,-2.4015407708726824,1.4025430309072136,-1.8673779262006285,-0.5570394396781921,0.1971049010753631,0.1379745751619339
3.4279262695312553,-2.351233894436806,1.4245727841466664,-1.8475901066690683,-0.3250711858272552,0.1542514413595199,0.0644486919045448
3.4378913574218757,-2.239879405711591,1.3779983722373843,-1.674236696279049,-0.1021720245480537,0.0981208756566047,-0.0111667001619935
3.4478564453124996,-2.0214213637039062,1.2808467425182462,-1.4773843368798494,0.0680287331342697,0.0028593381866812,-0.0902761667966842
3.457821533203127,-1.8260642112985253,1.1402250966459513,-1.243278059363365,0.1775045990943908,-0.1069678589701652,-0.1730072796344757
3.467786376953125,-1.7194389430522918,1.0474304930925369,-0.9129828596800564,0.2416505664587021,-0.2140743434429168,-0.2641028165817261
3.477751708984375,-1.66990772716403,0.9887821970298886,-0.6344143401026725,0.2648504376411438,-0.3229637742042541,-0.3576410412788391
3.487716308593747,-1.621008525568992,0.9304393136546016,-0.3831581903427839,0.2337151765823364,-0.4240781366825104,-0.4429572522640228
3.4976804199218776,-1.658138378915191,0.9153609869882464,-0.1111801550716161,0.1737874895334243,-0.4945490658283233,-0.5156019330024719
3.5076455078125015,-1.7354352613463997,0.8955936257228255,0.1826823797494172,0.0929978489875793,-0.4973139464855194,-0.567304253578186
3.5176103515624995,-1.874538757740706,0.9352867536857724,0.4376251090675592,-9.44230705499e-05,-0.4636683762073517,-0.5921944379806519
3.527575683593753,-2.01953584221825,1.0274845603898166,0.5666553936064243,-0.0803879350423812,-0.3977490365505218,-0.6171253323554993
3.5375405273437472,-2.105695245540887,1.1089631124198436,0.6902431948304176,-0.1326300948858261,-0.3193807601928711,-0.6340145468711853
3.5475053710937523,-2.1475315230123697,1.1457710403352974,0.7467793210446834,-0.1564046740531921,-0.2471108436584472,-0.640232264995575
3.5574702148437467,-2.1299442822650074,1.1598805219694972,0.8030933289408684,-0.1490701586008072,-0.1968810856342315,-0.6382998824119568
3.567435546875,-2.115386180080473,1.18368196105659,0.8928133473545312,-0.1271816492080688,-0.1667844504117965,-0.6443585753440857
3.5773996582031273,-2.077706145505607,1.229811259546876,0.9155524179071188,-0.0848521515727043,-0.1725501418113708,-0.67026686668396
3.5873645019531253,-2.000027716410905,1.2240507963240146,0.9738964703261852,-0.0254005398601293,-0.2064213007688522,-0.7081633806228638
3.5973295898437527,-1.8945741222925483,1.1731845324397083,1.0671201129466297,0.0377862714231014,-0.262051910161972,-0.7483318448066711
3.6072941894531247,-1.7436866646021605,1.071774076232314,1.129775598824024,0.1019106581807136,-0.3353274464607239,-0.778984785079956
3.6172595214843746,-1.5763088214904069,0.9464388468191028,1.2703811703443526,0.1566710770130157,-0.3993040025234222,-0.7989265322685242
3.627224365234376,-1.4069932883143423,0.7984232913032173,1.3800287090212109,0.2046468704938888,-0.4583137929439544,-0.8121627569198608
3.637189453125,-1.1814221994310616,0.6199886321261525,1.3804577480882405,0.2437372654676437,-0.5202270150184631,-0.8206632733345032
3.6471542968750015,-0.9570064180627464,0.5113090616986156,1.427891699436307,0.2886040806770324,-0.5946407914161682,-0.8384861946105957
3.6571193847656254,-0.7485800137910992,0.4018152522787451,1.4516110131978988,0.3151627480983734,-0.68401038646698,-0.8427715301513672
3.6670834960937526,-0.5251193411905318,0.2102799962490797,1.4668535905152558,0.3300844430923462,-0.776277482509613,-0.826361894607544
3.677048339843747,-0.2735527920409105,0.0474988332778215,1.5070990916639566,0.3295005261898041,-0.860863983631134,-0.7972123026847839
3.6870134277343745,-0.0691688132941722,-0.1575964538097381,1.5830886908888815,0.3011671602725982,-0.9283871054649352,-0.7627363204956055
3.696978271484376,-0.0096465679581859,-0.3236594149306416,1.6058400364011525,0.2401492297649383,-0.9740731120109558,-0.722724199295044
3.706943359375,-0.0141415846723597,-0.460596819332242,1.6580577148944138,0.1583337187767028,-0.9903333187103271,-0.6781178712844849
3.7169084472656273,-0.0317162490659393,-0.6217398597076534,1.6802181087762116,0.0475227795541286,-0.9680414199829102,-0.6363219618797302
3.726873535156251,-0.0666236314565408,-0.7085869530335068,1.6687918748766184,-0.0788474082946777,-0.921278715133667,-0.6027093529701233
3.7368383789062563,-0.1091726511741057,-0.8074825038105249,1.451815011337399,-0.2048768550157547,-0.8588573336601257,-0.5716584920883179
3.746802246093747,-0.1942208601181395,-0.9069850805699824,1.26967740598917,-0.3053885400295257,-0.7714797854423523,-0.5542052388191223
3.756767333984378,-0.2923325122421607,-0.9644558572858573,0.9865291574060916,-0.3744383156299591,-0.6744459271430969,-0.5480466485023499
3.766732421875002,-0.3523697784451767,-0.9947913743168116,0.616487053745985,-0.4225578904151916,-0.5985647439956665,-0.5494347214698792
3.7766975097656257,-0.3363168345930054,-0.969515771023929,0.208518831795454,-0.4339666068553924,-0.5516713857650757,-0.5627947449684143
3.786662353515627,-0.2935625289611518,-1.0544269278511404,-0.2443962008625269,-0.4065826535224914,-0.5256965160369873,-0.5755499005317688
3.796627197265625,-0.2711951412651687,-1.1489470400229096,-0.5855249292492866,-0.3570581376552582,-0.5014203190803528,-0.5894076824188232
3.806592529296875,-0.2276359124585986,-1.197289046126604,-0.87742931573987,-0.3093279004096985,-0.4747101068496704,-0.6052817106246948
3.8165573730468765,-0.1823962197517976,-1.340657068097591,-1.1297194847226142,-0.2651634812355041,-0.4359380006790161,-0.6215581893920898
3.8265224609375004,-0.1873621350634843,-1.484229380469024,-1.3082330543547869,-0.2476361542940139,-0.4063441455364227,-0.6340460181236267
3.8364865722656276,-0.199226906510815,-1.5811811037018897,-1.5237269858598708,-0.2373826056718826,-0.3675533533096313,-0.6571853756904602
3.8464511718749996,-0.2505215884076431,-1.5052280370950697,-1.5683511404842136,-0.2308485358953476,-0.2981095612049103,-0.6753004789352417
3.856416503906253,-0.2393237564364448,-1.7525994543761014,-1.8682523709475995,-0.2180401980876922,-0.2511936724185943,-0.6803666353225708
3.866381347656251,-0.1554418330591171,-1.7674518633320926,-1.913978933855891,-0.186549112200737,-0.1921250522136688,-0.6910661458969116
3.876346435546875,-0.2450621174253523,-1.7470915046095847,-2.104577493557334,-0.1589986979961395,-0.1654628217220306,-0.7156388759613037
3.8863112792968764,-0.3085631872814148,-1.6240467242211103,-2.216251569625735,-0.1321844011545181,-0.1472665071487426,-0.7625656127929688
3.896276611328126,-0.3325103915147483,-1.5914567062616347,-2.3366689241200684,-0.0896610394120216,-0.1185193881392479,-0.8160520195960999
3.9062414550781277,-0.2482021690167486,-1.675150303992629,-2.3819378063887355,-0.0265366621315479,-0.0770715475082397,-0.8656424880027771
3.9162053222656255,-0.145661174409464,-1.6978227390497922,-2.4382839629888533,0.0393713638186454,-0.0585965476930141,-0.921843945980072
3.9261704101562565,-0.0784543088380247,-1.5880667715623973,-2.5107038870334626,0.0840160697698593,-0.0579941384494304,-0.9773766994476318
3.936135253906251,0.0345239999630488,-1.4671373758926989,-2.3645021029412745,0.1000713258981704,-0.0732113867998123,-1.0274896621704102
3.9461005859375007,0.0801469198337756,-1.222487200269103,-2.1806793209850786,0.0751310884952545,-0.0842664390802383,-1.0629127025604248
3.9560654296875057,0.020818897878658,-0.8222121631696819,-1.9044786995828151,0.0206538625061512,-0.0902894288301467,-1.0738617181777954
3.966030517578126,-0.2081514963204041,-0.3494795003637671,-1.6273440122008322,-0.0302817560732364,-0.0550355724990367,-1.0671982765197754
3.9759951171875016,-0.3499264404136687,0.0931534999936819,-1.277698799881339,-0.0686925202608108,0.015823308378458,-1.0249842405319214
3.985960449218748,-0.3907813786976039,0.5049842425912618,-0.9749263978958128,-0.0601397790014743,0.1280907243490219,-0.9461913704872132
3.995924560546875,-0.2855102650066837,0.8192515597984195,-0.686723204010725,0.0064699947834014,0.2364266812801361,-0.838086724281311
4.005889404296877,-0.0706470874194987,1.017517293126881,-0.5511567957013845,0.1271692514419555,0.2982788681983948,-0.7011206150054932
4.015854492187501,0.1347559321766719,1.1747288392722606,-0.5113654680609703,0.2726595997810364,0.2702572047710418,-0.5706182718276978
4.025819091796876,0.3397143315441906,1.2438587818607687,-0.4975467860668897,0.445842832326889,0.1530389487743377,-0.4745671153068542
4.035784423828126,0.4736673133075237,1.1781702118977904,-0.4822247137725353,0.6028509736061096,-0.0285728797316551,-0.4124645888805389
4.0457492675781275,0.5600695124100893,1.0165510784432292,-0.4679202940881252,0.7303484678268433,-0.2323281317949295,-0.3953327536582947
4.055714355468748,0.5525927467886358,0.7238736617535352,-0.2969184152603149,0.8221740126609802,-0.3823844194412231,-0.4037741720676422
4.065679443359375,0.4363269224831834,0.4190548486322164,-0.1224386311888694,0.8437653183937073,-0.4759711027145386,-0.4309189915657043
4.075644531250003,0.3513476688558236,0.1969251323744654,-0.0112613987267017,0.8057020902633667,-0.5223098993301392,-0.465727299451828
4.0856083984375005,0.3091867990724742,-0.0263847335785627,0.1022615200787782,0.7332598567008972,-0.5097514986991882,-0.4949312210083008
4.0955732421875055,0.2873553631504066,-0.2299371751382946,0.1354500884532928,0.6454973816871643,-0.4596889019012451,-0.511878252029419
4.105538330078126,0.3233281006170436,-0.4537470995679497,0.0393926837116479,0.5594066977500916,-0.3922507166862488,-0.5249447822570801
4.11550341796875,0.3377284914892167,-0.6307666312500834,-0.0995318028539419,0.4925513863563537,-0.3139224946498871,-0.5262241959571838
4.125468505859377,0.2794208255577832,-0.6427236110255122,-0.1512690043538808,0.4364593625068664,-0.2300526201725006,-0.5363119840621948
4.135433593750001,0.2383473491523414,-0.5590525173872709,-0.2547673727512359,0.3998604118824005,-0.1716502755880355,-0.5429805517196655
4.145398437499999,0.1656855243769474,-0.4992772631213069,-0.3507897061794996,0.3848876059055328,-0.1284798979759216,-0.535258412361145
4.1553632812500005,0.0184339503873256,-0.3892693666994571,-0.3129851684421301,0.4052344262599945,-0.0809045135974884,-0.515373170375824
4.165327392578128,-0.1458091132464818,-0.272730899465084,-0.2339151388585567,0.4313616454601288,-0.0332006365060806,-0.4902113378047943
4.175292480468748,-0.2575530214143917,-0.1334381641089916,0.0051239188849925,0.4592570662498474,0.0414769649505615,-0.4666261076927185
4.185257568359376,-0.2986831416442059,-0.0706581750690937,0.1995487588763237,0.4735305309295654,0.1181160807609558,-0.4431482255458832
4.195222412109377,-0.3314731939541175,-0.027749299930036,0.38585108268857,0.4951836168766022,0.1924537271261215,-0.4090741276741028
4.205187500000001,-0.3473266331788152,0.0145835288867354,0.6489385400176048,0.5038231611251831,0.2465494573116302,-0.375841349363327
4.215152343749999,-0.3605385083861648,0.1600856402769684,0.8098077318876982,0.4908063113689422,0.2595889270305633,-0.3657178580760956
4.225117431640626,-0.359086775207892,0.3326242271527648,0.9492378298878668,0.4635579288005829,0.2346247434616089,-0.3757558465003967
4.235082275390628,-0.3337227264465764,0.4208259499579668,1.1573124250471591,0.4311487376689911,0.2010395675897598,-0.3902051150798797
4.245046386718748,-0.2994687207976356,0.602242255294323,1.2779612502098083,0.3874300122261047,0.1431759893894195,-0.4016867876052856
4.2550114746093755,-0.2432614977441728,0.7873714436739683,1.3954156632453203,0.3203997015953064,0.0974124446511268,-0.397624671459198
4.264976562500003,-0.1988981129478663,0.8673509893178939,1.434814192175865,0.2631957828998565,0.0716407746076583,-0.3763039410114288
4.274941406250001,-0.0919328356249257,0.9261831175148486,1.525433205255866,0.2087682485580444,0.0676059201359748,-0.332471489906311
4.284906249999999,-0.0628542598525062,1.0363216545790432,1.4633417830020188,0.149477481842041,0.0424659475684165,-0.2889426648616791
4.294872558593752,-0.0383747388407588,1.1403314796298742,1.39647949308455,0.0756201669573783,-0.0010482894722372,-0.235130026936531
4.304837646484376,-0.1203330372117459,1.153812307971716,1.3074053713589906,0.0147861167788505,-0.0353692434728145,-0.1817051619291305
4.314802734375,-0.2269778869412839,1.146814411908388,1.403234228041768,-0.0299613773822784,-0.0299666542559862,-0.1447966694831848
4.324767578125002,-0.3611185732964426,1.2104729373484848,1.3198568566530942,-0.0909163430333137,-0.0548080876469612,-0.1236762106418609
4.334731689453125,-0.4529961350701749,1.0996160228818654,1.2169061852663754,-0.1476660370826721,-0.0867119580507278,-0.1161288097500801
4.344696533203127,-0.3898376681067049,0.9125321933031082,1.2845365369468926,-0.1999694555997848,-0.0943794697523117,-0.1512465924024582
4.354661621093747,-0.3479035197513178,0.7156962005168199,1.2137713943719863,-0.2776895463466644,-0.1295362263917923,-0.2029598504304886
4.364626708984375,-0.3307713658276945,0.4965595285952091,1.0845312664747238,-0.3681025505065918,-0.1809091418981552,-0.239168182015419
4.374591552734376,-0.1793883797053247,0.3483499118119478,1.3287754916459322,-0.4896866381168365,-0.1689443439245224,-0.262716680765152
4.384556640625,-0.0904292626615613,0.2409703180670738,1.2777414699792862,-0.6454387307167053,-0.1848884224891662,-0.2503151297569275
4.3945217285156275,0.0122290747150778,0.0936766470849514,1.112526357859373,-0.7802901864051819,-0.175454095005989,-0.1872234940528869
4.404486816406251,0.1690769751798361,0.0534089341044425,0.8911614884942769,-0.8720725774765015,-0.147103413939476,-0.0967090353369712
4.414450683593753,0.2178101360255852,0.2343801260218024,0.4914040455281734,-0.9154059886932372,-0.1434047371149063,0.0105516286566853
4.424415527343747,0.1805515052005648,0.40889322784096,0.0392728567242622,-0.8916682004928589,-0.1543918699026107,0.1102427989244461
4.4343806152343745,0.0078371964316815,0.5432447074025869,-0.409827586081624,-0.7828524708747864,-0.099302627146244,0.174018308520317
4.444345703124998,-0.3883681800760328,0.6450842026770115,-0.8228308795899152,-0.585321307182312,0.0079127745702862,0.2116045653820037
4.454310791015626,-0.712978758251667,0.6410425260707736,-1.1827040559351445,-0.3265714347362518,0.1503569632768631,0.2197578698396682
4.464275634765627,-1.042987103817612,0.6656921064198017,-1.4160720823049544,-0.0989643931388855,0.2549598217010498,0.1992195695638656
4.474240478515625,-1.3091342409782112,0.7371110367283225,-1.5890730259954928,0.091759979724884,0.3100632727146148,0.1621416807174682
4.484205566406256,-1.4504517601601778,0.6905690657839179,-1.639379317909479,0.248417243361473,0.3503768742084503,0.1149502024054527
4.4941696777343765,-1.473595173729956,0.6139733173593879,-1.6290683517754077,0.3922123610973358,0.3443035185337066,0.0771514251828193
4.504134765625,-1.3733898555286228,0.5061407191500067,-1.6038655214577913,0.5189719200134277,0.2843640446662903,0.0174790434539318
4.514099609375002,-1.227470541639626,0.4298658732429146,-1.460918939769268,0.6139934062957764,0.1586846709251403,-0.0611076280474662
4.524064697265626,-1.0660110557261857,0.2829422046169638,-1.2932055810928345,0.6790876984596252,-0.0052350163459777,-0.1441287398338318
4.534029541015627,-0.954648529824987,0.0363528776243329,-0.9766285256385804,0.7151949405670166,-0.1679465621709823,-0.2249077707529068
4.543994628906251,-0.8597304313115776,-0.2105269567474722,-0.5619406400442123,0.6959162950515747,-0.3012247383594513,-0.3100812435150146
4.553959716796875,-0.7613562740601599,-0.4433855722904205,-0.1516080270498991,0.6128585934638977,-0.3993184268474579,-0.3854271173477173
4.563924560546877,-0.5669848082238808,-0.6590010843485593,0.1067284363597631,0.5016740560531616,-0.5004813075065613,-0.4488494992256164
4.573888671875,-0.4353413455119356,-0.9651122753679752,0.178673144108057,0.3629204034805298,-0.5830965638160706,-0.4788513481616974
4.583853515625002,-0.2946089327415451,-1.2148922150954604,0.4154354890912771,0.1826041489839553,-0.6010537147521973,-0.48780357837677
4.593818603515626,-0.1746911617998033,-1.427164261944592,0.5931196221619844,-0.0138099789619445,-0.5914928913116455,-0.4920435845851898
4.603783447265627,-0.1451230854773894,-1.4396192543700337,0.6411901178479195,-0.2209881991147995,-0.5963781476020813,-0.4736643135547638
4.613748535156251,-0.249977800387144,-1.3563190398707985,0.745513831153512,-0.439152717590332,-0.5647127628326416,-0.4254091680049896
4.623713867187501,-0.5744959510389716,-1.04464583081007,0.7145481995254754,-0.638360857963562,-0.5342952013015747,-0.3609119355678558
4.633678710937506,-0.9397682830139994,-0.6289671806126833,0.4480933115899562,-0.799762487411499,-0.5153061747550964,-0.3012714982032776
4.643643798828126,-1.363015322639048,-0.2712304317742586,0.2491688220918178,-0.9280738830566406,-0.5143746137619019,-0.2496682554483413
4.653607421875002,-1.801018471238762,0.1208683131322264,0.1926893945008516,-1.012214183807373,-0.5338068604469299,-0.2501127123832702
4.6635725097656255,-2.218570221831649,0.3353185808032751,-0.011154431220889,-1.0549778938293457,-0.5943530201911926,-0.31464883685112
4.673537841796875,-2.6593162393987178,0.619691110484302,-0.0813841517448425,-1.0388147830963137,-0.6167294979095459,-0.4374493062496185
4.683502685546877,-2.8672143089473248,0.7762643587261437,-0.2242787109851837,-0.9532848000526428,-0.6254497766494751,-0.5704854130744934
4.693467773437501,-2.9566303759783503,0.9310933936491608,-0.3659311612099409,-0.8191626667976379,-0.6072575449943542,-0.6935514211654663
4.703432617187506,-2.75794291010648,1.0245286331936716,-0.4702613042563199,-0.65358966588974,-0.6059496402740479,-0.7767775654792786
4.713397949218752,-2.423413141593337,1.049787577612698,-0.569278143325448,-0.4653700888156891,-0.6260964870452881,-0.824633002281189
4.723362548828128,-2.1103468707390127,1.078348193925619,-0.4723036237388849,-0.2801983654499054,-0.6641951203346252,-0.8610714077949524
4.733326660156251,-1.8788319248899816,1.0693573704794048,-0.3960129957407712,-0.1241496726870536,-0.7326892614364624,-0.8850257396697998
4.743291748046875,-1.7297566311880943,1.0317278970479964,-0.1127069262474775,-0.0169158894568681,-0.7891575694084167,-0.8923279047012329
4.753256591796877,-1.645052687370777,0.9688543845057488,0.1483516556024551,0.0184458345174789,-0.8527705669403076,-0.8972659111022949
4.763221923828127,-1.665277875406295,0.933107363820076,0.4937105689048767,-0.0403269343078136,-0.8745937943458557,-0.936945140361786
4.773186523437506,-1.7493026047877966,0.9227224556669592,0.8921908315420151,-0.1511509269475937,-0.8552899956703186,-1.001560926437378
4.783151611328126,-1.7964704525455832,0.9250979526266456,1.047692943421006,-0.2795115411281585,-0.8105036020278931,-1.066043257713318
4.793116455078128,-1.8083076053336264,0.9739961313083768,1.0732599308758974,-0.3845438361167907,-0.7439159154891968,-1.1177737712860107
4.803081787109377,-1.66297003685534,1.036762676344812,1.0666273609936237,-0.4417695701122284,-0.6627153158187866,-1.1432291269302368
4.813045898437501,-1.348903941308707,1.0750780862137674,0.9321528395742178,-0.4599951803684234,-0.6116254329681396,-1.1353332996368408
4.823010742187503,-1.064451697454974,1.0891682786256074,0.8203209425956011,-0.4282556474208832,-0.5697895288467407,-1.0893781185150146
4.8329755859375005,-0.8798415645133704,1.0643503559723495,0.7117489241957664,-0.3637280166149139,-0.5407761335372925,-1.020321249961853
4.842940429687506,-0.7582296664722263,1.0821420332506295,0.7086977199316025,-0.2934373617172241,-0.5140960216522217,-0.9493024945259094
4.852905761718752,-0.6813437759947031,1.0249372139945625,0.7216168227374553,-0.2338775098323822,-0.5032944679260254,-0.9075859189033508
4.86287060546875,-0.661347939735651,0.9064721626117824,0.7719441574394702,-0.2060557305812835,-0.5184574723243713,-0.8863450884819031
4.872835693359377,-0.6980630748011172,0.7246072367250919,0.8607078980416059,-0.2059057503938675,-0.5284985899925232,-0.9076524972915648
4.882800781250001,-0.7732684648457914,0.5402674451574683,0.9707271926403044,-0.2216207981109619,-0.518048882484436,-0.9788095355033876
4.8927644042968765,-0.7645606961246579,0.3745592888236045,1.0919751527398824,-0.2521098852157593,-0.4938250184059143,-1.0682533979415894
4.902729736328126,-0.589796578686498,0.1922416507333517,1.0544511855095624,-0.2753752768039703,-0.4804860353469848,-1.138682246208191
4.912694580078128,-0.3250854291457682,0.0620619038984179,1.0342506935238838,-0.2837390303611755,-0.4650097787380218,-1.16713547706604
4.922659667968752,0.0210871751597151,0.0077893387019634,1.0505039091885089,-0.3034794628620147,-0.4707430303096771,-1.1648502349853516
4.932624755859376,0.1772336493568495,-0.0644742257371544,0.8791419648766517,-0.3126701712608337,-0.480867326259613,-1.1343461275100708
4.942589599609377,0.2691819748118519,-0.1224830548524856,0.928864319422841,-0.3228386640548706,-0.4669685661792755,-1.0937446355819702
4.952554931640627,0.32302948299665,-0.1121916702017188,0.8616542389810085,-0.3437947928905487,-0.4460913836956024,-1.056424617767334
4.962519531249999,0.3241880419146269,-0.1635690984785556,0.796971046668291,-0.3690141439437866,-0.4091013967990875,-1.008328557014465
4.972483642578126,0.2932964619034901,-0.197483643040061,0.7439175018727779,-0.3841114640235901,-0.3489191234111786,-0.9612768292427064
4.982448730468747,0.233351367495954,-0.2805541404366493,0.650264235663414,-0.4108458757400512,-0.2893101274967193,-0.9189629554748536
4.992413574218748,0.185916502832435,-0.3415630281507968,0.6122481010019779,-0.448140412569046,-0.2284139990806579,-0.8925095200538635
