time,ax,ay,az,gx,gy,gz
0.0,-0.8522874218292534,0.4270668901741504,1.3862147041797637,-0.220034658908844,-0.8193826079368591,-0.5047805905342102
0.009964843750012164,-0.9097010615304112,0.4608423185259103,1.457888193771243,-0.4493640065193176,-0.7495726346969604,-0.5712863802909851
0.019929931640632503,-0.942344928568974,0.6057213295817375,1.360236797836423,-0.6566687226295471,-0.6574971079826355,-0.6218118071556091
0.02989575195313421,-0.9921757849909364,0.7734656679183244,1.0235621262490748,-0.8242443799972534,-0.5875523686408997,-0.6501550674438477
0.03986083984375455,-1.0473073781695217,0.9074760789573192,0.6510714603930712,-0.9183645844459534,-0.5113409161567688,-0.6558040380477905
0.049825927734374886,-1.0684796377968042,0.94779581438601,0.4010053972005843,-0.9387300610542296,-0.4169347584247589,-0.6576064825057983
0.05979174804687659,-1.1012688315901904,1.0353981099933385,0.1814192279458046,-0.8944270610809326,-0.3236688673496246,-0.6769620180130005
0.06975683593751114,-1.0722278113491832,1.1462409959346056,0.0126321025580167,-0.8044193983078003,-0.2344159483909607,-0.7074717283248901
0.07972192382813148,-0.9586283932413904,1.1393886458218097,-0.0002986906856298,-0.7090300917625427,-0.1593795269727707,-0.7280857563018799
0.08968798828125557,-0.7951007227517664,1.069642324900627,-0.0356266091763973,-0.6275064945220947,-0.114523097872734,-0.7125867009162903
0.09965283203125352,-0.6736897541102022,0.9322054465442896,0.0469990670621395,-0.5332992672920227,-0.0686057284474372,-0.667195200920105
0.10961791992187386,-0.5250605236753821,0.8107914822280406,0.2069429607808589,-0.4316253960132599,-0.0384158603847026,-0.6188601851463318
0.11958398437501216,-0.3913336057528853,0.689179364991188,0.3305477131396532,-0.3387461602687835,-0.0421082749962806,-0.5761114954948425
0.1295490722656325,-0.2543742269814945,0.5385971738576889,0.5378109919160604,-0.2566161155700683,-0.0699793174862861,-0.5426289439201355
0.1395148925781342,-0.1261146345541812,0.3940039940059184,0.7434113059163093,-0.1892460435628891,-0.1247040033340454,-0.5123263597488403
0.14947998046875455,-0.0549616251728497,0.2633627671390772,0.918545169982314,-0.1479638516902923,-0.1963749825954437,-0.487251341342926
0.1594448242187525,0.0144769449734129,0.142480717742443,1.073876016947627,-0.1309485733509063,-0.2673563361167907,-0.4567977786064148
0.1694106445312542,0.049607203733921,0.031158523851633,1.2310983767479655,-0.1448284387588501,-0.3102470934391022,-0.4332301318645477
0.17937597656251114,0.0115452754356898,-0.093882398790121,1.360346687951684,-0.1914162784814834,-0.322363942861557,-0.4042742848396301
0.1893408203125091,-0.0025896329007111,-0.2101028861165046,1.378479726013541,-0.245525062084198,-0.3188000917434692,-0.3771151304244995
0.19930688476563319,0.0024857889337465,-0.3135077310115098,1.3534189345151184,-0.2851831614971161,-0.3099902272224426,-0.336383044719696
0.20927172851563114,0.0385855685798451,-0.4100158021301031,1.2735299897640944,-0.3184255361557007,-0.2968179583549499,-0.283785343170166
0.21923706054687386,0.0651706287697889,-0.476130488550663,1.182775367605686,-0.3369905054569244,-0.2830919027328491,-0.2392965853214264
0.22920288085937557,0.0690004892562516,-0.4993114576518535,1.0693611698716878,-0.3433213531970978,-0.2834146916866302,-0.2004226893186569
0.23916772460937352,0.0354892465323209,-0.5618266582757234,0.8716846346080303,-0.354008287191391,-0.2982335090637207,-0.1684238016605377
0.2491340332031342,-0.091208576470986,-0.5571493141144513,0.6211275730282068,-0.3349669575691223,-0.3022452890872955,-0.1521281898021698
0.25909887695313216,-0.2360311994307674,-0.5420312399595976,0.3400508700221776,-0.2978782951831817,-0.2988607287406921,-0.1573502719402313
0.2690639648437525,-0.3019320056386291,-0.5870873562604189,0.0079752166628837,-0.2473890036344528,-0.2935653030872345,-0.1663922369480133
0.2790300292968766,-0.343772813154757,-0.5885264491528273,-0.1482394273996353,-0.1890575140714645,-0.2637411952018738,-0.1736769676208496
0.28899511718751114,-0.2672544042827561,-0.6298439634472132,-0.2607785958647727,-0.1378228217363357,-0.2291464805603027,-0.1648813486099243
0.2989597167968725,-0.1881128073003143,-0.6634925505489111,-0.3838414964318275,-0.1029701605439186,-0.1949196755886078,-0.1422260850667953
0.3089257812500108,-0.1088005390592385,-0.6826999398440122,-0.4707160622864961,-0.0858308523893356,-0.1612072438001632,-0.1044065356254577
0.31889086914063114,-0.0087603756912052,-0.7064151619523763,-0.5711129575371742,-0.0813409388065338,-0.1265274882316589,-0.0559374168515205
0.3288557128906291,0.0561586164050735,-0.7447223885148764,-0.7024965272039174,-0.0617999918758869,-0.0876245647668838,-0.0125523954629898
0.33882202148437557,0.028354581479961,-0.7540478507429361,-0.7489157485514879,-0.0264624990522861,-0.0172652266919612,0.0189802646636962
0.3487868652343735,-0.0037290395936463,-0.745114602702856,-0.7928829005718231,0.0106766140088438,0.0661652162671089,0.0440019965171813
0.3587529296875118,-0.0503668081958778,-0.7333136902719736,-0.7769915039569139,0.0481053590774536,0.1493648290634155,0.0600057765841484
0.3687177734375098,-0.0648357525259256,-0.6980711119771004,-0.7945183928191661,0.0712333172559738,0.2107885181903839,0.0614042058587074
0.3786831054687525,-0.0851412575223483,-0.640150253406167,-0.830522603136301,0.0861130058765411,0.2564395368099212,0.0549697875976562
0.3886489257812542,-0.0937045580051839,-0.61289692029953,-0.7940712335735559,0.102121002972126,0.3126708269119262,0.0504751689732074
0.3986193847656381,0.0231610588243231,-0.6421043100833892,-0.7872785046935081,0.1258009076118469,0.3527613282203674,0.0479422882199287
0.4085844726562584,0.2560247158685699,-0.7246767948299646,-0.8340507772624492,0.1673331707715988,0.3784861266613006,0.0549133792519569
0.4185505371093967,0.4287433720190077,-0.695469989567995,-0.8931851032763719,0.2032163888216018,0.3536448776721954,0.0696366354823112
0.42851513671875807,0.4945744191925972,-0.6125298405528068,-0.9642857614159585,0.2228556126356125,0.305962324142456,0.0886904895305633
0.4384804687500008,0.5421696620495989,-0.6439040529817343,-0.9491285242944956,0.2427922934293747,0.2742834985256195,0.1162837669253349
0.4484462890625167,0.681133713440597,-0.7794763065099716,-0.9146206900149584,0.2518137693405151,0.2560232579708099,0.1403912305831909
0.45841137695313705,0.9417194170817732,-0.9811024561822412,-0.8840402583122253,0.2639699280261993,0.2407297194004058,0.1528603881597519
0.46837744140626114,1.1789281175930053,-1.100858716419339,-0.8792910179585218,0.2621635198593139,0.2178132086992263,0.1679908633232116
0.4783422851562591,1.2305452729098498,-1.140033373466134,-0.7554559639751911,0.2379374057054519,0.2018589526414871,0.1865807324647903
0.48830737304687943,1.0881821901977062,-1.027380807754397,-0.6218821907877922,0.1694864332675933,0.1854363083839416,0.1999306380748748
0.4982734374999893,0.8355918692246079,-0.808325384375453,-0.5257967289954424,0.0618966370820999,0.1677958071231842,0.1978213191032409
0.5082385253906381,0.5851657405480742,-0.5313549476444721,-0.4974421566486358,-0.0744161903858184,0.1561719179153442,0.1726422011852264
0.518203369140636,0.3128331196855753,-0.1683522411018609,-0.4838257192283868,-0.2180186957120895,0.1579347401857376,0.1299682706594467
0.5281694335937601,0.0545170049441978,0.2273223164647817,-0.5851338841050863,-0.3496376872062683,0.1558201909065246,0.0809919312596321
0.5381345214843947,-0.1737888791978359,0.7555629314810037,-0.8017769856452941,-0.4438742697238922,0.1660211235284805,0.0368884056806564
0.5481003417968822,-0.348924241101183,1.170562367242575,-0.8645978912174701,-0.470749020576477,0.2322635352611541,0.0207118354737758
0.5580654296875167,-0.4049060579009353,1.4367325930178163,-0.8129320013880729,-0.4200201034545898,0.3385207653045654,0.0554017014801502
0.5680302734375147,-0.2397194777557626,1.5480588785618543,-0.7578139252781868,-0.3137557208538055,0.4550777375698089,0.1225330680608749
0.5779965820312611,0.0083203403061255,1.5723668058663605,-0.6889519859761,-0.1699217408895492,0.5349438190460205,0.2049269378185272
0.5879611816406367,0.2258529745645821,1.568574427846074,-0.6810971808224916,-0.0375202931463718,0.5321314930915833,0.2834853827953338
0.5979265136718794,0.3698118385681882,1.5277449893295765,-0.6535375582456588,0.0818318724632263,0.4683421552181244,0.3324257433414459
0.6078923339843953,0.4176900630850345,1.4775070864766835,-0.4511024302780628,0.1912113577127456,0.3807854056358337,0.3519768118858337
0.6178571777343791,0.4515349399438128,1.3600211092591286,-0.2546276720196008,0.2716816365718841,0.2949860394001007,0.350907415151596
0.627822509765636,0.5045896903157234,1.207844926932454,-0.0708878921717405,0.3040981888771057,0.2199799567461013,0.334732174873352
0.6377883300781093,0.6141708126928657,1.055503909432888,0.0896399389147758,0.2909269630908966,0.1605548560619354,0.3074894547462463
0.6477534179687581,0.7634560228183865,0.9129898739427328,0.209880183276534,0.2483515292406082,0.1255654394626617,0.2868925929069519
0.6577194824218822,0.8540428871944546,0.7885346422344446,0.2726280236124992,0.1788858920335769,0.0969040766358375,0.2789019346237182
0.6676845703125167,0.8916477376412599,0.7651368155121803,0.2187088018983602,0.1024430468678474,0.0664838552474975,0.2711628079414367
0.6776494140625147,0.8448376903451978,0.8245406061172484,0.1747872425854206,0.0382900573313236,0.0544240027666091,0.2661884427070617
0.6876154785156388,0.7216749826654791,0.9180167621940374,0.0164683197200298,-0.0310453381389379,0.0247569251805543,0.2595835328102112
0.6975805664062591,0.566999750064686,1.022407110995054,-0.1674240203410387,-0.1041432991623878,0.0119108287617564,0.2544535398483276
0.7075451660156347,0.3807416672529652,1.0894979489713907,-0.2440454877287149,-0.1532836854457855,0.0326224975287914,0.247359424829483
0.7175112304687588,0.1873120488440617,1.1192921987324953,-0.3254243787765503,-0.1872712522745132,0.0759361237287521,0.2372110188007354
0.7274763183593791,0.0299712868284434,1.1660288154661655,-0.3463444172084331,-0.2105856388807296,0.1174231171607971,0.2302875965833664
0.7374414062499994,-0.0888636207800358,1.2002829672455786,-0.3097445790857076,-0.2397143542766571,0.1481857150793075,0.2243415415287017
0.7474072265625153,-0.2038763762844726,1.1647475434839725,-0.2201122389554977,-0.2584648728370666,0.1877943724393844,0.2180394381284713
0.7573725585937581,-0.3375046196054667,1.143688973364234,-0.0532242251873016,-0.2735593318939209,0.2184795886278152,0.209981083869934
0.7673383789062598,-0.4109226147767156,1.1226748269081115,0.0233843827188014,-0.2800952494144439,0.2234897911548614,0.1960157305002212
0.7773032226562577,-0.4624067182984203,1.0806032793760298,0.1338806471794843,-0.2893548607826233,0.2243870049715042,0.1702873557806015
0.7872685546875147,-0.4775004251969978,1.0699416001081463,0.3098281657159328,-0.2957765460014343,0.2259183228015899,0.139634370803833
0.7972343750000022,-0.450321326370351,0.9775269357830284,0.4868722473174333,-0.3019384145736694,0.2307010143995285,0.1240206807851791
0.8071994628906367,-0.4319488169968128,0.8924982900559901,0.681989745748043,-0.3115151226520538,0.2429150640964508,0.1175092458724975
0.8171643066406347,-0.378629241676256,0.8174363270699977,0.7980331229418516,-0.3303534984588623,0.2359142750501632,0.1107254847884178
0.8271306152343953,-0.2747401569282636,0.7073831302016973,0.9222036924898624,-0.3486273288726806,0.2215707600116729,0.104080893099308
0.8370954589843791,-0.1541537294773385,0.6147001703292131,1.013472109389305,-0.360965222120285,0.2053973823785781,0.1005029380321502
0.8470615234375174,-0.0783068266587331,0.5173486341238022,1.076855909541249,-0.3640909492969513,0.1875427514314651,0.1045626625418663
0.8570263671875153,-0.0100342315519228,0.4348156046047806,1.0617781673967837,-0.3819989562034607,0.1455891281366348,0.1103698834776878
0.8669912109374991,0.000105360070616,0.3835933668896555,1.0143827944934367,-0.3957986533641815,0.0977779254317283,0.1165180578827858
0.8769572753906374,-0.0643331367660313,0.3501037697419524,0.9530804767906664,-0.4125328958034515,0.0526764504611492,0.0996240526437759
0.8869223632812577,-0.1082990466773509,0.3229804927557707,0.8175368648350239,-0.4189838767051697,0.0054359654895961,0.0701455250382423
0.8968874511718781,-0.1631988769266754,0.2915402293533086,0.6145312435030937,-0.399838775396347,-0.0306901223957538,0.0411419570446014
0.9068532714843798,-0.2027547518434002,0.25033961943686,0.4910024789899587,-0.3570678830146789,-0.0503288060426712,0.0251627266407012
0.9168183593750001,-0.1477590965367853,0.1795633709460496,0.3678805417120456,-0.318058967590332,-0.0745647028088569,0.0189220048487186
0.9267834472656347,-0.1273653104687109,0.1539607276558875,0.2346545590490102,-0.28058722615242,-0.0881188586354255,0.0141301779076457
0.9367492675781364,-0.1620261798854917,0.1191945347011089,0.1705167256593704,-0.2351821511983871,-0.087785467505455,0.0111002372577786
0.9467145996093791,-0.1722832604078575,0.0363809346750378,0.1230751755267381,-0.1877099722623825,-0.0734134539961814,0.0063622072339057
0.9566804199218808,-0.1466360473236069,-0.0868506004571914,0.0717652595281601,-0.1514711529016494,-0.0600364543497562,-0.0009293123148381
0.9666455078125153,-0.0039000761784613,-0.2128188670769333,-0.0276502234697341,-0.1164380759000778,-0.0654868707060813,-0.0222306046634912
0.9766101074218767,0.1519845322120934,-0.337924087126553,-0.0519166497200727,-0.0824929103255271,-0.0991944074630737,-0.0421583093702793
0.9865764160156374,0.2310861625103279,-0.4849634910866618,-0.0766004245996475,-0.0631389170885086,-0.1368973106145858,-0.051773652434349
0.9965412597656353,0.2520570543466136,-0.611082272092998,-0.0795259566575288,-0.0562536492943763,-0.1728246510028839,-0.0684341341257095
1.0065063476562557,0.2934878197571262,-0.6691895931467413,-0.1089934586822986,-0.0666708722710609,-0.21321602165699,-0.096898004412651
1.0164724121093798,0.384053093355894,-0.738357821919024,-0.2238461647868156,-0.0751005560159683,-0.2528932094573974,-0.1327824294567108
1.0264372558593777,0.4613481856888159,-0.859903888182342,-0.3059153761863708,-0.0712810531258583,-0.2665536403656006,-0.1611387133598327
1.0364023437500123,0.4291889603620394,-0.9298340412378312,-0.3460451420009136,-0.0567018687725067,-0.2506442964076996,-0.1743494123220443
1.0463684082031364,0.4415166000807657,-0.9635247139155864,-0.3325631446152925,-0.0599088482558727,-0.2270537614822387,-0.1837967187166214
1.0563334960937567,0.4940649353004991,-0.9438467844992876,-0.3379676340073347,-0.0734188929200172,-0.1997178196907043,-0.1939682364463806
1.0662993164062584,0.4963918073454871,-0.9157187143847346,-0.2951590043723583,-0.0871200561523437,-0.1615757644176483,-0.2007763385772705
1.0762644042968788,0.4786650119969621,-0.8552104696691035,-0.2308645191162824,-0.0970150977373123,-0.1200700104236602,-0.1926121562719345
1.086229492187499,0.4564273150952532,-0.7893100105211138,-0.2571902159839868,-0.1034471690654754,-0.0788634493947029,-0.188650444149971
1.0961953125000008,0.4799698109852149,-0.7000421197891235,-0.2980921352148056,-0.0889905169606208,-0.0570793896913528,-0.1748895794153213
1.1061606445312577,0.5066231323720887,-0.6445443967118859,-0.3075572981745004,-0.0557207129895687,-0.036531776189804,-0.1551765948534011
1.1161252441406333,0.5129039662072434,-0.6103963356554508,-0.2972439939528704,-0.0105640022084116,-0.0231680199503898,-0.1230526641011238
1.1260915527343798,0.5917369356319307,-0.5667267052769661,-0.3368412603259086,0.0337677747011184,-0.0468211509287357,-0.080158457159996
1.1360561523437553,0.6868656081560999,-0.5806228364214301,-0.3554565289467573,0.0868981778621673,-0.0803237482905387,-0.02061228454113
1.1460214843750123,0.7289215927928686,-0.6444324607700109,-0.3092120796442031,0.1458861380815506,-0.1036594286561012,0.0488115288317203
1.1559873046874998,0.793578773881495,-0.7444578923597931,-0.3044476417213678,0.2157371640205383,-0.1263805329799652,0.1283649057149887
1.1659523925781343,0.9264340235359966,-0.9205161777943373,-0.3830898012816905,0.2860536873340606,-0.1582332700490951,0.2067702263593673
1.1759184570312584,1.0382938314348458,-1.1407990971416235,-0.440603832617402,0.3778665959835052,-0.2026709765195846,0.2899847626686096
1.1858833007812564,1.0462082578212022,-1.2908511269211769,-0.5356792405843734,0.4632408618927002,-0.2675865888595581,0.356268435716629
1.1958483886718767,0.9753550716366618,-1.3291165601685642,-0.6144201843440532,0.5326626896858215,-0.3487482964992523,0.3985241949558258
1.2058144531250008,0.9380725119467824,-1.4426359718427062,-0.6122603759616613,0.5816933512687683,-0.4118306040763855,0.4344475567340851
1.2157795410156353,1.0196662147890776,-1.7172335419625042,-0.5366296731770038,0.5996431708335876,-0.4202367663383484,0.4601390063762665
1.2257443847656333,1.0776726327516135,-1.8759335730999709,-0.4467407279372215,0.5822838544845581,-0.4188418090343475,0.4673607051372528
1.2357104492187574,1.0244748571798206,-1.851732613301277,-0.4651116664081812,0.5124847292900085,-0.4316011667251587,0.4504000246524811
1.2456755371093777,0.9209499661017208,-1.7846601877644657,-0.4621376190334558,0.3927916288375854,-0.4624003469944,0.4203302562236786
1.2556401367187533,0.6484585744809359,-1.5816086814641952,-0.546221092864871,0.2133748829364776,-0.5263157486915588,0.3676879405975342
1.2656066894531364,0.3375822879515588,-1.201000760126114,-0.7897738286405801,-0.0207108613103628,-0.6117345094680786,0.2876189351081848
1.275571289062512,-0.1008908710463903,-0.715278267365694,-1.1565706667691469,-0.2433139085769653,-0.6865735650062561,0.1816288530826568
1.2855363769531323,-0.6883840498950332,-0.1529717166185379,-1.4696329921007156,-0.3954049348831177,-0.676716148853302,0.0530636794865131
1.295502197265634,-1.1235953027538954,0.4014417427912354,-1.6502683761924504,-0.4808442294597626,-0.5854772329330444,-0.0723857879638671
1.3054675292968767,-1.236001054097712,0.8540858495533465,-1.9158558336436748,-0.4851963818073272,-0.4604045748710632,-0.1673085689544677
1.3154333496093784,-1.235264264255762,1.1777037634298204,-1.9088368947923184,-0.3807578384876251,-0.2132701426744461,-0.21574667096138
1.3253981933593764,-1.158470070649683,1.4361016016378998,-1.7042115633040666,-0.1767104268074035,0.0777622312307357,-0.1970728486776352
1.3353635253906333,-0.9376316363114864,1.6427207372918724,-1.5025076722204684,0.0805029943585395,0.3750918507575989,-0.1375117599964141
1.345329345703135,-0.698017628224194,1.7262854479461909,-1.193652150928974,0.3374485075473785,0.5842652916908264,-0.0534456148743629
1.3552944335937553,-0.4015821376426145,1.6822528294742107,-0.963585504192114,0.5650640726089478,0.6568533182144165,0.0143477460369467
1.3652592773437533,-0.186291126564797,1.6512570949688552,-0.5290811574935913,0.7428572177886963,0.6481322646141052,0.0415055975317955
1.3752255859374998,-0.0799600554921664,1.6210405281424525,-0.0837128869533538,0.8708978295326233,0.5563564300537109,0.0386834107339382
1.385190429687512,0.0547670981145929,1.522484876844287,0.3228863847315311,0.945654571056366,0.4280935823917389,0.023008044809103
1.3951494140625158,0.1901773020820692,1.4031307676672935,0.7800970687568187,0.9624028205871582,0.3038683235645294,-0.0072451177984476
1.40511547851564,0.3149653094086795,1.2572867109715935,1.1743453929126262,0.9122560620307922,0.2032066881656646,-0.0393564477562904
1.4150805664062602,0.4150075460027903,1.0333628047734498,1.5474042140454054,0.8056380152702332,0.1552566885948181,-0.0633392482995987
1.425046386718762,0.5030316472187638,0.8413105391323566,1.7817437157958744,0.6582450866699219,0.1221440061926841,-0.0756792724132537
1.4350114746093965,0.5849408822836354,0.6467828232884406,1.822491321247816,0.4797634184360504,0.1075030714273452,-0.0966691076755523
1.4449765624999884,0.6131591514322906,0.4418593856364488,1.8323013521224256,0.2949882447719574,0.1052194088697433,-0.130374863743782
1.4549426269531125,0.4782384206153452,0.3717120826989412,1.7019553088098764,0.1135764494538307,0.1043613329529762,-0.1802893429994583
1.4649074707031104,0.2921395104207098,0.4203776216685772,1.5539444294691085,-0.0507091619074344,0.0908425971865654,-0.2430866807699203
1.4748725585937592,0.1218709234366659,0.5365075081020594,1.3199825288593767,-0.2000812739133834,0.0463129132986068,-0.3099865913391113
1.484838623046869,-0.0099002207755576,0.6352759253680705,1.1409691930115222,-0.3478944301605224,0.0022655595093965,-0.363988846540451
1.4948037109375178,-0.1121407619983889,0.7246656889140606,1.0794687223881485,-0.5010684728622437,-0.0154195521026849,-0.3932386040687561
1.5047685546875158,-0.2161176346276886,0.8185597781419753,0.9611702597439288,-0.6592509150505066,0.003129364689812,-0.3882161378860473
1.51473461914064,-0.2372383101982064,0.8517372406005859,0.83278119571805,-0.7934569120407104,0.0312766768038272,-0.3600892424583435
1.5246994628906378,-0.2019848451831377,0.8730302039980888,0.698551004448533,-0.8836296796798706,0.0935706719756126,-0.3274870812892914
1.5346643066406358,-0.140991849157866,0.8453414020836353,0.6190554429292678,-0.9110924005508424,0.1807294636964798,-0.2711896896362304
1.5446306152343965,-0.0624030820189043,0.7854255703032016,0.5257809469044208,-0.888473391532898,0.2596866190433502,-0.1902365088462829
1.5545954589843802,0.0735212546163238,0.7089315286874771,0.4271212507098913,-0.8276534676551819,0.3008047938346863,-0.1070751696825027
1.5645615234375185,0.2469128233259543,0.6167191089361905,0.3855594062656164,-0.739264190196991,0.2825195491313934,-0.0284533221274614
1.5745266113281104,0.4141367545176297,0.504159482204914,0.4085048130452632,-0.6406791806221008,0.2136927843093872,0.0511609986424446
1.5844916992187592,0.5650967294549569,0.3078039664119482,0.5363952798992395,-0.5564188957214355,0.1279547065496444,0.14289091527462
1.594457519531261,0.6804010883171111,0.0889414352566003,0.71978025496006,-0.4925052225589752,0.0333418026566505,0.2357555031776428
1.6044226074218813,0.73854011968337,-0.1185226267889141,0.9472767589479684,-0.4630884826183319,-0.0322382748126983,0.3224890828132629
1.6143876953125158,0.7034762589562684,-0.3117889443948864,1.1956208206534384,-0.4653545320034027,-0.0662839114665985,0.3821119666099548
1.624353515624989,0.6712615771152078,-0.4296072223067283,1.3083622336924077,-0.4959446787834167,-0.0810412839055061,0.4118911623954773
1.6343186035156378,0.5717352541539817,-0.4759218142360448,1.334842828860879,-0.5279794931411743,-0.0593629144132137,0.4148305058479309
1.6442836914062582,0.3718674924563616,-0.5411717005208134,1.386765908321738,-0.5555064678192139,-0.0135059468448162,0.3902945518493652
1.6542497558593965,0.268155463042017,-0.544440054666996,1.2919757470369335,-0.5722745060920715,0.0329844914376735,0.329438179731369
1.6642143554687578,0.1856324434603564,-0.4185571282431483,1.1121809054225682,-0.5531136393547058,0.074851781129837,0.2775651216506958
1.6741796875000006,0.2024926120421849,-0.3214347246184945,0.9496651153892278,-0.5097977519035339,0.1167453825473785,0.2479580789804458
1.6841455078125165,0.3458843254160136,-0.3300906170219183,0.8386948036760091,-0.4472861588001251,0.1584677994251251,0.2478646039962768
1.6941103515625002,0.4940528064712882,-0.4522857948437332,0.5920446864068508,-0.369891345500946,0.1546743214130401,0.287883996963501
1.7040754394531348,0.597049947348237,-0.5173594477787613,0.4396539845466613,-0.2913856208324432,0.1394841820001602,0.3415392339229584
1.7140415039062589,0.583955086116679,-0.4850672437220811,0.4651929149508476,-0.2165339440107345,0.1285274475812912,0.399460107088089
1.7240065917968792,0.5131789106911048,-0.5057315538272261,0.4530892201811075,-0.1675999462604522,0.1174431070685386,0.445751428604126
1.7339714355468772,0.3648949134973809,-0.578155569525063,0.4442044874578714,-0.1384323388338089,0.1270862072706222,0.4595418572425842
1.7439377441406378,0.1739209811449051,-0.6423869264170528,0.3826531634300947,-0.1259495615959167,0.1543242186307907,0.4421828389167785
1.7539025878906358,0.0350049884130246,-0.699606650981307,0.3550432719707488,-0.1261442601680755,0.2046245485544204,0.4031218886375427
1.76386865234376,-0.0800996466259472,-0.7060507125541567,0.3197311355710029,-0.142133891582489,0.2666754126548767,0.3533857762813568
1.7738337402343802,-0.0773635179266333,-0.7272948683738708,0.1753846239566802,-0.158287301659584,0.3199352622032165,0.3004457950592041
1.7837983398437558,0.0009505056578665,-0.775331461790204,0.010000000488758,-0.1551338583230972,0.3751194179058075,0.2595529556274414
1.7937646484375165,0.0825423453366383,-0.7946022717103361,-0.1265074880629778,-0.1351734846830368,0.4394668936729431,0.2486730515956878
1.8037294921875002,0.0921397198412567,-0.8490525315612554,-0.2581014856100082,-0.1066438406705856,0.4964558780193329,0.2522182464599609
1.8136945800781348,0.1109905873162671,-0.8476178225830197,-0.3955325187474489,-0.0932515487074852,0.5306638479232788,0.2558144927024841
1.8236604003906365,0.122940333633311,-0.8526707220584153,-0.5558458303004503,-0.0763687118887901,0.54604572057724,0.2651302218437195
1.8336257324218792,0.0303450885768979,-0.8533601656273007,-0.6617424920111894,-0.0709100738167762,0.5397814512252808,0.2776322960853576
1.8435905761718772,-0.050507257846184,-0.816975139299035,-0.7854255703032016,-0.0716437697410583,0.518255889415741,0.2826997637748718
1.8535563964843789,-0.1966479594008996,-0.781262020882964,-0.9902274274021386,-0.0786293223500251,0.4700082838535309,0.2911001145839691
1.8635214843749992,-0.4413603135405108,-0.6984323465049267,-1.1562643772989512,-0.0905229970812797,0.4386314749717712,0.2864513099193573
1.8734865722656338,-0.6717559365034103,-0.5283537200018763,-1.272862465766072,-0.0886923223733902,0.4344114959239959,0.2628587484359741
1.8834526367187578,-0.8819574606887995,-0.4716252860859036,-1.4816256277114153,-0.0683372467756271,0.4669792950153351,0.2316009551286697
1.8934174804687558,-1.0154954319104552,-0.4574593980893492,-1.50436995896101,-0.0258220080286264,0.5456775426864624,0.2087233364582061
1.9033828124999985,-1.046600472009182,-0.4814133973896503,-1.4729250193834305,0.0244733858853578,0.6580312848091125,0.1968863755464553
1.9133486328125002,-0.9161452692337334,-0.6263479380249977,-1.4536276137173174,0.0768116042017936,0.7515101432800293,0.2055359333753585
1.9233134765624982,-0.7156305148694664,-0.796320181544125,-1.4897563271969556,0.119303397834301,0.7769968509674072,0.2334160357713699
1.9332797851562589,-0.6251978912070393,-0.8445864920631051,-1.5318091700285672,0.1414079964160919,0.7423400282859802,0.2569260001182556
1.9432443847656344,-0.579454523294419,-0.8736126800611614,-1.5672306120216846,0.1714266091585159,0.6763258576393127,0.2773372828960418
1.9532094726562548,-0.6476987690895796,-0.9889239435881376,-1.533609497448802,0.1967182904481887,0.6438207626342773,0.2738928496837616
1.9631755371093789,-0.9296244901403784,-1.0567544940158724,-1.5175842453211543,0.2141894251108169,0.6261882185935974,0.24382284283638
1.9731406249999992,-1.2037391721140591,-1.0982549636617305,-1.543512467303872,0.2154769599437713,0.6280434131622314,0.1739509105682373
1.9831054687500114,-1.3710676961913704,-1.1097814430654047,-1.6128157206326723,0.192747414112091,0.6249858140945435,0.0680170133709907
1.9930715332031355,-1.490499546779692,-1.0629264606490731,-1.7670774770617483,0.1613968610763549,0.5847578048706055,-0.0552016459405422
2.003036621093756,-1.6136140314035117,-0.9109820412516594,-1.9944331112742424,0.1258521825075149,0.4911924004554748,-0.1676754504442215
2.013001708984376,-1.7396505409538745,-0.7131734040409327,-2.232943761229515,0.0868266522884368,0.3843944668769836,-0.2673488855361938
2.022967529296878,-1.8495673980914056,-0.3886372062757611,-2.4001392335116862,0.0639737993478775,0.2741870284080505,-0.3533253073692322
2.032932617187498,-1.8577065731443465,-0.0039119127467274,-2.5859961516439918,0.0715306177735328,0.1713720709085464,-0.4187992811203003
2.0428977050781327,-1.9084752218730747,0.3627706513524055,-2.7098341282367704,0.1372505128383636,0.1075920239090919,-0.4699152112007141
2.0528635253906344,-2.016456873164326,0.8359501811429858,-2.684944601652026,0.260396808385849,0.112858660519123,-0.5143776535987854
2.0628286132812548,-2.19247234237045,1.2787857183352112,-2.4852666634380816,0.4299240708351135,0.1715110540390014,-0.5380134582519531
2.0727934570312527,-2.249045439594239,1.6144640723615884,-2.247576682215929,0.6236758828163147,0.2432502806186676,-0.5473853349685669
2.082759521484377,-2.205447267016768,1.807222148184478,-1.8806921658039093,0.8194464445114136,0.3209133744239807,-0.5542469620704651
2.0927246093750114,-2.145269131038338,1.9268761170908808,-1.493065890136361,0.981230616569519,0.3753658831119537,-0.57062828540802
2.1026896972656317,-2.0412784490793943,2.016515763744712,-1.1280565199464558,1.107678771018982,0.4061032831668854,-0.6087042689323425
2.1126555175781334,-1.8889644657172264,2.1446809558868405,-0.7900602443665266,1.2017834186553955,0.3897661864757538,-0.6631046533584595
2.1226203613281314,-1.6968971486374735,2.1874922158703205,-0.5463602090746164,1.2501929998397827,0.3204385042190552,-0.6953049302101135
2.132586669921878,-1.4619181799396872,2.190548388570547,-0.3701397188156843,1.2485175132751465,0.2094787955284118,-0.7039608955383301
2.142551513671876,-1.2314657487556335,2.1686478146687147,-0.2432709962248802,1.2152855396270752,0.0746019408106803,-0.6888232231140137
2.1525166015625103,-1.08401571816802,2.171827906009555,-0.1322013157904148,1.1642816066741943,-0.0439399480819702,-0.6637932062149048
2.1624826660156344,-1.0205850101344287,2.159488064396381,-0.0041992052555084,1.091084122657776,-0.1460298299789428,-0.6395387053489685
2.1724477539062548,-1.0152503711082042,2.104562295988202,0.04487199190557,1.006507158279419,-0.235599860548973,-0.6263684630393982
2.1824123535156303,-1.148994970817864,2.0800293277561663,0.0227834942162036,0.911916971206665,-0.3059925436973572,-0.6362056732177734
2.192378662109377,-1.40944550377205,2.06482240627408,-0.0136743050873279,0.8039725422859192,-0.3555067479610443,-0.692330002784729
2.2023435058593748,-1.637860291648656,2.0819927367836235,-0.1080430260896682,0.6789629459381104,-0.4058391451835632,-0.7829254269599915
2.212308349609401,-1.8844347133331,2.1639263391047714,-0.2542956635862589,0.5517745614051819,-0.467644453048706,-0.9098000526428224
2.2222746582031334,-2.0267649166889488,2.2589573234081266,-0.4050210625827312,0.4038199782371521,-0.5592638850212097,-1.046041488647461
2.2322395019531314,-2.105044672677666,2.329715451720357,-0.5481190354406833,0.2392332851886749,-0.6265770196914673,-1.164398431777954
2.2422045898437517,-2.132474093003571,2.4409002829670903,-0.6338473538696765,0.08194300532341,-0.6719911098480225,-1.249800682067871
2.252170654296876,-2.08881191527918,2.504298696166277,-0.7616203318238258,-0.054445881396532,-0.6786612868309021,-1.2940044403076172
2.2621357421875103,-2.0440517131850124,2.56499837180078,-0.8601683843374252,-0.1609981656074524,-0.6335095167160034,-1.29548442363739
2.2721005859375083,-1.993427295232564,2.5874206314891577,-0.9118956489652394,-0.2287746369838714,-0.5573892593383789,-1.2482414245605469
2.282066406249996,-1.967537359433621,2.59498843639493,-1.032832643419504,-0.2520924806594848,-0.4686517119407654,-1.1729708909988403
2.2920317382812527,-1.9225467095844448,2.5746903292536736,-1.1476876876115798,-0.2153490632772445,-0.3751071691513061,-1.0769597291946411
2.3019965820312507,-1.9072298979870972,2.4991812070220707,-1.2679945674687625,-0.1082409843802452,-0.326255202293396,-0.9775042533874512
2.3119626464843748,-1.9098538167499004,2.450071431416273,-1.3963526518344878,0.0364626795053482,-0.3632066249847412,-0.8979750871658325
2.321927490234401,-2.0070251740828158,2.387211947399378,-1.4198831650257109,0.1838433444499969,-0.4777193367481231,-0.8646005988121033
2.331892578124993,-2.2158231150805947,2.3261779252439734,-1.3263392044097184,0.3251310288906097,-0.6329688429832458,-0.8801560997962952
2.341858398437509,-2.4290483710013326,2.3135148430258035,-1.1545943982601166,0.412750095129013,-0.7959063649177551,-0.9324914813041688
2.3518237304687517,-2.5646523348420858,2.306667753610015,-0.8887561809182166,0.4424843192100525,-0.9551735520362854,-1.0084940195083618
2.3617895507812534,-2.616372585207224,2.299004087114334,-0.7089823820918798,0.4411532878875732,-1.114037036895752,-1.0865451097488403
2.3717543945312514,-2.6419156072646377,2.256650800031424,-0.6076584351241588,0.4197736084461212,-1.2649869918823242,-1.1556386947631836
2.3817194824218717,-2.669155496367812,2.2351175981372595,-0.5056868379026651,0.3972573578357696,-1.3636575937271118,-1.2273733615875244
2.391690185546878,-2.6557152922973035,2.1916870372116564,-0.4045920235157013,0.3692571222782135,-1.4179680347442627,-1.3048778772354126
2.401655029296876,-2.620100081297755,2.157746189165115,-0.3946253407746553,0.3333140611648559,-1.445012092590332,-1.3871303796768188
2.4116201171875105,-2.5804168902069327,2.074433115184307,-0.4144833029329776,0.285229355096817,-1.4544826745986938,-1.4658453464508057
2.421585937500012,-2.500004506103694,1.9634166262418031,-0.4238432519525289,0.2409428805112838,-1.454938888549805,-1.5503252744674685
2.431551269531255,-2.479825933688879,1.8209481834590435,-0.4284358404397964,0.1923959702253341,-1.4409064054489136,-1.6464475393295288
2.4415158691406305,-2.47719441614151,1.7232751602143048,-0.4689309324353933,0.1347971111536026,-1.4421026706695557,-1.764714241027832
2.4514819335937545,-2.393634381662309,1.6540233448117971,-0.5766980641931295,0.0812783688306808,-1.4716793298721311,-1.8819562196731567
2.461447021484375,-2.2728097615413367,1.5379408046513794,-0.6790642136901617,0.0557365156710147,-1.5111428499221802,-1.9800188541412356
2.4714121093749952,-2.141904330780357,1.3703554562687874,-0.7059907990604639,0.0429039672017097,-1.555858135223389,-2.066654682159424
2.481377929687511,-1.940048610135913,1.244078269830346,-0.7485644508957863,0.0415151268243789,-1.6187838315963743,-2.142834186553955
2.4913430175781315,-1.6942751295708118,1.0537737246394157,-0.8359200782656669,0.0560932382941246,-1.6819777488708496,-2.208082675933838
2.501308105468752,-1.483039878423512,0.7875444621533155,-0.8258370756685733,0.0778502002358436,-1.7387441396713257,-2.265725612640381
2.5112739257812535,-1.305185357221961,0.5747510217785835,-0.7321241882264614,0.1008247509598732,-1.7759177684783936,-2.325274705886841
2.521239013671874,-1.1349036093622444,0.3657558046430349,-0.6219692845493555,0.1118608936667442,-1.8004242181777954,-2.3943846225738525
2.5312041015625084,-0.9728852474570274,0.2360027587875723,-0.5803121630370617,0.0930952504277229,-1.826292872428894,-2.4765820503234863
2.5411701660156325,-0.8725447585687041,0.2242567914143204,-0.5002671509414911,0.0669784247875213,-1.8186317682266235,-2.569332361221313
2.5511350097656305,-0.8290665591090917,0.2581678288444876,-0.3084276512682438,0.049413688480854,-1.7684634923934937,-2.661352634429932
2.561100097656251,-0.6322102541871368,0.3204588653236627,-0.1833779607981443,0.0218867249786853,-1.7150990962982178,-2.751739501953125
2.5710659179687525,-0.2299371751382946,0.2960045152857899,-0.1504968509376049,-0.0003626830875873,-1.679457187652588,-2.845250129699707
2.5810307617187505,0.2929299301460385,0.2776096114173531,-0.0409288072377443,0.0108952987939119,-1.66672945022583,-2.9246206283569336
2.590996093749993,0.8319929679498076,0.2570373635098338,0.0184188692659139,0.0446085073053836,-1.6952954530715942,-2.959416627883911
2.600961914062509,1.4013186036787926,0.2684162511363625,0.0412526323646307,0.0780301168560981,-1.7503068447113037,-2.935353279113769
2.6109270019531152,1.8794095786474645,0.3024097061529755,0.0828507171660661,0.1020790040493011,-1.7900582551956177,-2.850475788116455
2.620891845703113,2.158116191521287,0.294564545610547,0.2354173601150512,0.1107116416096687,-1.7474790811538696,-2.709745168685913
2.630858154296874,2.4579461103141305,0.3978454718649387,0.4609668216884136,0.092201642692089,-1.6516118049621582,-2.5601367950439453
2.640822998046872,2.619515267147124,0.358828927989304,0.4209428543359041,0.0318466909229755,-1.551526665687561,-2.4200592041015625
2.6507880859375206,2.653621242627501,0.2086617473974824,0.3547872513830661,-0.07099349796772,-1.4523988962173462,-2.2874677181243896
2.6607541503906305,2.5151632045298813,0.120645318031311,0.2260550730079412,-0.1934618800878524,-1.368884563446045,-2.2004265785217285
2.6707189941406284,2.3523430247224866,0.054161506037414,-0.0506517443507909,-0.3068713843822479,-1.3203974962234497,-2.168914318084717
2.6806850585937525,2.1451078029967845,-0.0938064109444618,-0.3912561566025018,-0.3846662938594818,-1.2632020711898804,-2.184153318405152
2.6906501464844013,2.0121756887137887,-0.0670125120431184,-0.5289215830177069,-0.4162658452987671,-1.157745599746704,-2.2168288230896
2.700614990234399,1.941886931478977,0.0066010057002305,-0.6896966668635607,-0.391129583120346,-1.0233508348464966,-2.218109130859375
2.7105808105468725,1.813502543628216,-0.1091638468131423,-1.0113204843133687,-0.329742968082428,-0.9149278402328492,-2.173152446746826
2.7205461425781152,1.7690508229613302,-0.089313191178441,-1.4485995564222336,-0.2599537670612335,-0.861068069934845,-2.157045125961304
2.730510986328113,1.9409873522907493,0.1576017145067453,-1.6088170063853262,-0.1851844787597656,-0.7509955167770386,-2.1861321926116943
2.740476806640629,2.1499021976664663,0.2773535908296704,-1.624696128040552,-0.0981023013591766,-0.5720795392990112,-2.17276382446289
2.750442138671872,2.031850987781584,0.1810521481990814,-1.723317830312252,-0.0054037747904658,-0.3912638425827026,-2.1007790565490723
2.7604069824218698,2.1287739233113823,0.2999398089081049,-1.627562623387575,0.1088700667023658,-0.2015013694763183,-2.047677755355835
2.770373046874994,2.389311842288077,0.4426575502768158,-1.5080939479202031,0.2020960003137588,-0.0881654024124145,-1.980640292167664
2.780337890624992,2.437658232305944,0.3701277361169457,-1.3774515520095825,0.2748133242130279,-0.0254160054028034,-1.8498921394348145
2.7903032226562487,2.3733353977382183,0.3160717362806201,-1.040820719563961,0.3160804808139801,0.0683978721499443,-1.6829899549484253
2.8002690429687505,2.24111756920442,0.2681745513349771,-0.7550842080533504,0.3443459272384643,0.199907973408699,-1.492531657218933
2.810234130859399,2.1326285529129207,0.2235699781939387,-0.5741840355455875,0.3612105250358581,0.3634547591209411,-1.3171029090881348
2.820198974609397,2.081180397487432,0.3274979701802134,-0.4078185843467712,0.3710732758045196,0.5495556592941284,-1.153535008430481
2.8301647949218705,2.0427833006843925,0.4013476347669958,-0.2914583962887525,0.3861030042171478,0.7261876463890076,-0.9786425828933716
2.840129882812519,1.986531836630404,0.4278346596762538,-0.2004524297177791,0.3803692162036896,0.8962674736976624,-0.768581211566925
2.850094726562517,1.7478189421012995,0.4303153705760836,-0.095838793554902,0.3614550232887268,1.0763108730316162,-0.5160359740257263
2.8600610351562494,1.3736362315051256,0.3917345877692103,-0.0017763620227575,0.3375089466571808,1.242047667503357,-0.2820380628108978
2.8700258789062616,1.025754521726817,0.3686822134837508,-0.0163958390057086,0.3341903388500213,1.32476544380188,-0.117582619190216
2.879990966796882,0.6681779318861663,0.3621814532876014,-0.2254676285088062,0.3694636523723602,1.2328534126281738,-0.0637228488922119
2.889957031249992,0.3006450345680117,0.3321732685148715,-0.2887807015120983,0.4515317678451538,1.028583288192749,-0.1040268838405609
2.8999221191406406,0.1006347956597805,0.3474038631334901,-0.3702180447489023,0.5769189596176147,0.7098404765129089,-0.2145866751670837
2.9098869628906385,0.0983262264564633,0.2279904249846935,-0.3667372168958187,0.7208815217018127,0.3667897880077362,-0.3523082733154297
2.9198530273437484,0.0571872835993766,0.0851473036706447,-0.3953787894904613,0.8603536486625671,0.009828208014369,-0.4842519164085388
2.929818115234397,0.1026546110495924,-0.0635471740201115,-0.3574386426746845,0.9775813221931458,-0.3200019001960754,-0.5971953868865967
2.9397839355468705,0.1558227221354842,-0.3016781770080328,-0.0769236652046441,1.0646677017211914,-0.536186695098877,-0.6786900162696838
2.949749267578113,0.1182370878458023,-0.5578741212576628,0.2241407638192176,1.108508825302124,-0.6826715469360352,-0.7097867131233215
2.959713867187517,0.1085398696959018,-0.8152157284110784,0.4472527691125869,1.094113826751709,-0.7610270977020264,-0.7172718048095703
2.9696799316406413,0.0960761094421148,-0.9924582551941274,0.616643705612421,1.0089746713638306,-0.7941637635231018,-0.7182777523994446
2.9796450195312616,-0.1109764491930603,-1.107485441082716,0.7449380770921706,0.863487720489502,-0.8101009130477905,-0.7186462879180908
2.989610107421882,-0.422597343544662,-1.0768109013557434,0.7914391315042972,0.6535404324531555,-0.8476727604866028,-0.728413462638855
2.999575927734398,-0.8674442205592989,-0.9557046878144144,0.689453505757451,0.4012937843799591,-0.9108775854110718,-0.7407841086387634
3.009540771484396,-1.3594333724990486,-0.7309934306308626,0.5203431397646665,0.1384394615888595,-0.9953604340553284,-0.77109295129776
3.0195061035156385,-1.8926795407176016,-0.3629512686163186,0.1207622224092483,-0.1145738884806633,-1.1042959690093994,-0.8247721195220947
3.029471923828112,-2.284252362053841,0.0016138649374246,-0.151499890500307,-0.294749766588211,-1.1244657039642334,-0.9007947444915771
3.0394370117187606,-2.5234774438887837,0.1387742644399404,-0.2299509114027023,-0.3752683103084564,-1.0619994401931765,-0.9695340991020204
3.049402099609395,-2.6637577289775014,0.2358177576094865,-0.370306307554245,-0.3598865568637848,-0.9516216516494752,-1.042924880981445
3.059368164062519,-2.7813550576150416,0.3555766481950879,-0.5502993020892143,-0.278310477733612,-0.848288357257843,-1.1113483905792236
3.069333007812517,-2.8004981495022774,0.3600447335198521,-0.5844283661842345,-0.1447468400001526,-0.7815083861351013,-1.1753309965133667
3.07929833984376,-2.653228151656687,0.2939426143199205,-0.5596861391156912,0.0157602727413177,-0.8391817808151245,-1.2337501049041748
3.0892641601562616,-2.430577188003808,0.1974821817353367,-0.5300093782544135,0.1520669907331466,-1.060008525848389,-1.3124558925628662
3.099228759765637,-2.1791275614984333,0.090079791636765,-0.234970200869441,0.2550658285617828,-1.3612589836120603,-1.4145662784576416
3.1091938476562575,-1.9151082301467657,-0.1045209894433617,0.0979734674960374,0.3253545761108398,-1.6708126068115234,-1.5139081478118896
3.119159912109396,-1.7939076163202523,-0.3223907101690769,0.4805144027233123,0.3643379509449005,-1.9258859157562256,-1.5932092666625977
3.129125000000002,-1.6949280405215918,-0.4393406808137893,0.8513327514529228,0.3770847916603088,-2.08890700340271,-1.6385961771011353
3.13908984375,-1.6287484721712766,-0.4692907056584954,0.9454624030023812,0.3499826192855835,-2.1915924549102783,-1.6482290029525757
3.1490561523437606,-1.7700439256519078,-0.4502466902315616,0.8622241478234529,0.2795441150665283,-2.153074026107788,-1.664517521858215
3.1590209960937585,-1.868260992645472,-0.2971390722736716,0.8256406763136387,0.221506118774414,-2.05856990814209,-1.6628910303115845
3.1689868164062602,-1.8734924635581671,-0.2594479317829012,0.6995914534121751,0.1509262472391128,-1.94569730758667,-1.650105357170105
3.178952148437517,-1.7269412815064191,-0.2770546078830957,0.6632873833656311,0.088494561612606,-1.838038206100464,-1.6343411207199097
3.188916992187515,-1.6018153109297155,-0.20847031647861,0.5615963566511869,0.0204785801470279,-1.8135292530059812,-1.6189255714416504
3.198883056640639,-1.5191253372833131,-0.1992559134095907,0.406060342502594,-0.0402478836476802,-1.857923150062561,-1.6027841567993164
3.2088481445312595,-1.4892580222859977,-0.1882277389168739,0.3844493991971016,-0.0961237549781799,-1.9029672145843504,-1.606608510017395
3.2188129882812575,-1.5398524834915994,-0.1302782387733459,0.4367039025694131,-0.1377297788858413,-1.9084855318069456,-1.639194130897522
3.228779052734396,-1.5962652755871414,-0.0473792985513806,0.3738502637714147,-0.146247386932373,-1.9171998500823972,-1.6803090572357178
3.238744140625002,-1.481551247300953,0.0257800456836819,0.2382370937108993,-0.1102702096104621,-1.9482219219207764,-1.7204698324203491
3.248708984375,-1.293022771871835,0.1217655542328953,0.2583160051435232,-0.0466293282806873,-1.941718339920044,-1.7214922904968262
3.258674804687516,-1.0969705498743805,0.1215282383456826,0.6350748498380184,0.0074802455492317,-1.7752492427825928,-1.6681580543518066
3.268639892578136,-0.8847488449729979,0.0807736186310648,0.8717582843661308,0.0672672688961029,-1.61868155002594,-1.553362250328064
3.2786049804687565,-0.5831651778480038,0.0551028785407543,0.781032888302207,0.1281663179397583,-1.5542652606964111,-1.4364856481552124
3.2885710449218806,-0.225515741966851,0.0247153390616178,0.850949889615178,0.200437530875206,-1.5624691247940063,-1.33820378780365
3.2985358886718785,0.0545334446223452,-0.0474962029293179,1.0125918194234371,0.2939978241920471,-1.6177371740341189,-1.2374396324157717
3.3085012207031355,0.1300100893564522,-0.0903325973540544,1.0214286213517187,0.3995430171489715,-1.6871873140335083,-1.146153450012207
3.318467041015637,0.0999678744499571,-0.1306760059192776,0.7896049018144607,0.5402463674545288,-1.779358148574829,-1.084202766418457
3.3284321289062575,0.4051684716967865,0.0906304112568497,0.6684656627863645,0.5571551322937012,-1.77055823802948,-1.1344221830368042
3.338398193359396,0.6863797974005341,0.2392173369199037,0.9433487718492746,0.4908743798732757,-1.6204942464828491,-1.183596968650818
3.3483630371093795,0.7715314119201153,0.0710825379610061,1.064659275791049,0.412535697221756,-1.4636499881744385,-1.1491351127624512
3.3583278808593775,0.9890681012991815,-0.1560033393993973,1.129692012193799,0.3610402941703796,-1.264788031578064,-1.0569583177566528
3.3682941894531098,1.1741818729139863,-0.2830465417742729,1.3474796075940132,0.2847075760364532,-1.0257281064987185,-0.9568932056427002
3.378259033203136,1.298141283929348,-0.3424515014231205,1.3117828557908535,0.1441089361906051,-0.7729224562644958,-0.8579261302947998
3.388223876953134,1.4592930921331049,-0.386380659520626,1.227940204977989,-0.0285043623298406,-0.5220060348510742,-0.7608921527862549
3.398185791015635,1.6242442926198244,-0.4565247475877404,1.135087149235606,-0.1973775327205658,-0.2753704488277435,-0.6665789484977722
3.408150634765633,1.7537144298806786,-0.520459751881659,0.9801602068960666,-0.3385874330997467,-0.0563572980463504,-0.5677766799926758
3.4181157226562533,1.9101817335300144,-0.5864613333165645,0.7238233928710222,-0.4309312105178833,0.1165830492973327,-0.4532178342342376
3.4280817871093774,1.9904513481616968,-0.6737538323223591,0.3424585156857967,-0.4621683955192566,0.2339470982551574,-0.3386632204055786
3.438046875000012,1.979264622106403,-0.7480337050199508,0.0689221450567245,-0.4318054318428039,0.3490342795848846,-0.2166044265031814
3.4480117187499957,1.9806923168219623,-0.8008888046339154,-0.193248197427392,-0.3756844997406006,0.4395206570625305,-0.0984311997890472
3.457977783203134,2.115680340721458,-0.8700693083658814,-0.5053939924359321,-0.2782301306724548,0.4979661107063293,0.0025228448212146
3.4679428710937543,2.2394161721140144,-0.9549895252823828,-0.7993827839851378,-0.1417582035064697,0.4945496618747711,0.0739470794796943
3.477908691406256,2.290017209190875,-1.1042673558190463,-1.0180915858834982,0.0291490890085697,0.4627730846405029,0.1206418797373771
3.4878740234374987,2.3029164382524785,-1.2978496075063943,-1.043586092624068,0.201908677816391,0.4332141876220703,0.1549620628356933
3.497838867187511,2.2509157635107635,-1.4325120527133344,-0.988624668380618,0.3595659732818603,0.4098303020000458,0.1817092597484588
3.507804931640635,2.211569987680763,-1.4920914921462536,-0.941906171825528,0.4617596864700317,0.3674046993255615,0.1929066777229309
3.5177700195312553,2.175746979149431,-1.5354194694802163,-0.8707552448034286,0.5135461688041687,0.3292413353919983,0.2054368555545807
3.5277348632812533,2.04915721963048,-1.5749460087046026,-0.6878811418741941,0.5235296487808228,0.3027615547180176,0.2328976690769195
3.537700683593755,1.9412065479993816,-1.5372542836919425,-0.5599813226699829,0.4838927090167999,0.2858653962612152,0.2668878734111786
3.547665527343753,1.8883413653828205,-1.534049350170791,-0.4692945050507783,0.4092925488948822,0.2678927481174469,0.2985683977603912
3.5576308593749957,1.8310978215515608,-1.5712088680028915,-0.4055500548928976,0.3208931982517242,0.2476361989974975,0.3302099704742431
3.5675966796875116,1.7468990507774054,-1.5342217841282486,-0.5131798240065575,0.2418350130319595,0.2055952250957489,0.3565372824668884
3.577561767578132,1.60862352963984,-1.4951444499760864,-0.6653577598989009,0.1760203093290329,0.1865797340869903,0.3564443588256836
3.587527832031256,1.4949593026675283,-1.44570588080734,-0.6653384706765413,0.1405276805162429,0.2033949196338653,0.3290643095970154
3.5974929199218764,1.4166744321122764,-1.512998963357508,-0.7643874584496021,0.1130952537059784,0.208143338561058,0.307651937007904
3.6074577636718743,1.371252989630401,-1.624647904984653,-0.8510743927776813,0.0881436020135879,0.2132641375064849,0.2891442477703094
3.6174238281249984,1.3353968094818294,-1.6407365777373313,-0.8825736928910016,0.0780611485242843,0.243972510099411,0.2607964873313904
3.627388916015633,1.388725079565495,-1.6574258467316627,-0.8444464990705252,0.0532964766025543,0.2992671132087707,0.2368655800819397
3.637353759765631,1.382917123939097,-1.7565405932173133,-0.8141822937101125,0.0144577352330088,0.3564294874668121,0.2358264178037643
3.6473200683593774,1.3454013400152325,-1.7638284121379255,-0.7175339373379945,-0.0192902199923992,0.4290509521961212,0.2480600029230117
3.657284667968753,1.3313365743055938,-1.7016344062924385,-0.7285346393018961,-0.0874120146036148,0.4753622710704803,0.2856830060482025
3.6672497558593733,1.1661955503351986,-1.5390768229439853,-0.931436215737462,-0.1894813477993011,0.4332254528999328,0.3455502390861511
3.6772158203125116,0.9609975335255264,-1.0975029762506483,-1.3785574674248695,-0.3192721009254455,0.3393474519252777,0.3758567571640014
3.687180908203132,0.6438116985231638,-0.667356824761629,-1.7027379836201666,-0.4224824607372284,0.257457822561264,0.3851876258850097
3.6971467285156336,0.1733129870480857,-0.1213365151658654,-2.015019972229004,-0.4835311770439148,0.1946439743041992,0.3752495050430298
3.7071115722656316,-0.3404545554522424,0.5407347704082727,-2.300232752126455,-0.4594955742359161,0.1965403109788894,0.3421249091625213
3.7170769042968743,-0.7514822380386292,1.138533782558143,-2.334959197592735,-0.3567481637001037,0.2785307765007019,0.3123806118965149
3.727042724609376,-0.9235178438283502,1.523639015315473,-2.3271230971395966,-0.1834620237350464,0.3953731656074524,0.3247783482074737
3.7370078125000106,-0.8579073075376451,1.729968520373106,-2.210645420181751,0.0409433953464031,0.5357105731964111,0.3794533014297485
3.746972900390631,-0.6986374406229704,1.835143005289137,-1.9215420625865456,0.2831167876720428,0.6732462644577026,0.4723304510116577
3.7569387207031326,-0.5057995410295203,1.8313140946507451,-1.708878970593214,0.5171351432800293,0.731870174407959,0.5887030959129333
3.766903808593753,-0.2952220231385901,1.7540505299672484,-1.3953829300194978,0.7119988203048706,0.7134612798690796,0.7012774348258972
3.776869873046877,-0.1567376815559342,1.6153139671891927,-0.9385732280105352,0.8511732220649719,0.6154526472091675,0.7802742719650269
3.7868349609375116,-0.1223707901170477,1.4242822767674923,-0.4662304413050412,0.9277627468109132,0.4564919769763946,0.8137989044189453
3.796799560546873,-0.1788446647500619,1.2411115289792418,-0.0356359615266323,0.9460434913635254,0.2797299921512604,0.8039934039115906
3.806766113281256,-0.2079156417379155,1.0670768583267929,0.4166588934063911,0.9111462831497192,0.1127014681696891,0.7740022540092468
3.8167307128906316,-0.2636693854028359,0.962104325723648,0.6885954276233911,0.8342757225036621,-0.0281424671411514,0.7377715706825256
3.826695800781252,-0.3507042929183691,0.8665601312011479,0.8585241242617369,0.7283432483673096,-0.1119665801525116,0.689935564994812
3.836661865234376,-0.3533848737718537,0.837096720829606,1.0122036968886852,0.6048035025596619,-0.1135066896677017,0.6165431141853333
3.846626708984374,-0.3515857153953984,0.8314888178199529,1.1231517967700957,0.4816923141479492,-0.0617620199918746,0.545407235622406
3.8565927734375123,-0.3408851288892328,0.899341287818551,1.0343927323430775,0.3701993525028229,0.0079867001622915,0.4861830770969391
3.8665576171875102,-0.3099063455186784,1.0702812073260546,0.9529729247629642,0.2828911244869232,0.0962529852986335,0.4330116808414459
3.876522949218753,-0.2719293007586151,1.1803981170803308,0.8199252212762832,0.2330527156591415,0.1770378500223159,0.4103851914405823
3.8864887695312547,-0.2088773629095405,1.3498077582806347,0.7460568519890308,0.1886859834194183,0.2310603708028793,0.4017515480518341
3.896453857421875,-0.1599124208682216,1.4660750073581934,0.6629249797940254,0.1570146083831787,0.2468526512384414,0.408411830663681
3.9064189453125095,-0.1456224681005813,1.4640841258019208,0.6666302640527486,0.1381902545690536,0.2488330900669098,0.4299647212028503
3.9163847656250113,-0.1622286071224138,1.4510405198335647,0.7915256407439708,0.1120108440518379,0.254677951335907,0.4436224699020386
3.9263498535156316,-0.1513036190095357,1.4369780922114848,0.9323726198047398,0.0912554189562797,0.2354849278926849,0.4496467411518097
3.9363159179687557,-0.1321331824576482,1.3993798907011747,1.027142907345295,0.0566100887954235,0.1999381184577942,0.447486937046051
3.946281005859376,-0.0729712377844378,1.3018237718343737,1.1569219644248483,0.0160505250096321,0.1657694876194,0.4430902302265167
3.9562456054687516,-0.015763304122677,1.1677987477481364,1.2841893309444188,-0.0289454460144042,0.1239176467061042,0.4312037527561188
3.9662119140625123,0.0213520823067519,1.0584779568076133,1.4113836322277784,-0.082691453397274,0.0911962017416954,0.4103255271911621
3.9761767578125102,0.0538958682380151,0.9543588261634112,1.4870710336357351,-0.1427814215421676,0.0484021343290805,0.3911084234714508
3.9861418457031306,0.0384529186435043,0.7984469644397497,1.5421277349472045,-0.2104600071907043,0.0164817254990339,0.3914850056171417
3.9961079101562547,0.0171520459341816,0.6063514441788196,1.684104010298848,-0.2496431022882461,0.0473280549049377,0.3992193639278412
4.006072753906253,0.0557599359436891,0.2192728655219078,1.7505740860283374,-0.2603344321250915,0.1097633466124534,0.4055241048336029
4.016038818359377,0.0538047741547692,0.053607671546936,1.561101315486431,-0.2999436259269714,0.1383547782897949,0.3836100101470947
4.026003662109375,-0.0331007530937437,-0.0299690218061208,1.4119944576025008,-0.3503755033016205,0.1622700095176696,0.3283023238182068
4.035968994140632,-0.1906355307109654,-0.1094523083657026,1.4073679668456316,-0.3957206010818481,0.1947768181562423,0.2456572502851486
4.045934814453133,-0.3095593221792951,-0.092561963841319,1.2816998522162435,-0.4378993809223175,0.1908456683158874,0.1502490043640136
4.055899902343754,-0.261469409406837,-0.0601765285432338,1.1308271537035703,-0.4672804176807403,0.1742674857378006,0.0552239492535591
4.065865966796878,-0.14891480591055,-0.0442506451368331,1.0406523772597311,-0.4797926247119903,0.1666682064533233,-0.0149857066571712
4.075830810546876,-0.0182293837089557,-0.0976741922885179,0.9775403797864912,-0.4527769684791565,0.177511528134346,-0.0342728532850742
4.085795654296874,0.184271329441294,-0.1385790341287851,0.9077893826901912,-0.4208958148956299,0.1881060153245926,-0.018682274967432
4.095761962890634,0.3783031515270471,-0.1577139427095651,0.8943810350626706,-0.3825620114803314,0.2052860707044601,0.006663295906037
4.105726806640632,0.4694598882129415,-0.2314414422214031,0.8392787410438061,-0.322674036026001,0.224742591381073,0.0473660752177238
4.115692626953134,0.4359918087773025,-0.2597021988049149,0.726468354421854,-0.2612218558788299,0.2154132723808288,0.0847541987895965
4.125657714843754,0.4252145403057336,-0.2998155980065465,0.5369979219675064,-0.1967855840921402,0.1715181320905685,0.1035173684358596
4.135622802734375,0.3897665025666356,-0.4124818999826908,0.4227010961800813,-0.1315400004386901,0.1079740524291992,0.0989234149456024
4.145588623046876,0.3030001280604861,-0.4842769701272248,0.3091360917985439,-0.0888490378856659,0.0085651259869337,0.0769800841808319
4.155553955078133,0.2041254374084062,-0.5917948032990098,0.2016851863831281,-0.0787697657942771,-0.1082421839237213,0.0514776557683944
4.165519775390635,0.0845157551683019,-0.6694792237430811,0.14343758007586,-0.0889290943741798,-0.2035177648067474,0.0208311229944229
4.175484863281255,0.0668758526519406,-0.7246645198702811,0.1400496912032365,-0.1042571812868118,-0.2567021548748016,-0.0081011923030018
4.185449707031253,0.0567884296080563,-0.7519269130662083,0.0495955132961273,-0.123482346534729,-0.2903863787651062,-0.0165107659995555
4.195415771484377,0.0662701966426801,-0.695346947710216,-0.0783867234945297,-0.1424043625593185,-0.291968286037445,-0.0062298979610204
4.205380859375012,0.0968836629653349,-0.6488324492946267,-0.1392787068307399,-0.143044963479042,-0.2639419734477997,0.0252540111541748
4.215345947265632,0.063332019732357,-0.5714087256133557,-0.1924210989534854,-0.1262462735176086,-0.2120289653539657,0.0718364268541336
4.225312011718756,-0.0638057838571025,-0.4820180852845311,-0.3645242170214652,-0.11515873670578,-0.1832596510648727,0.1184514090418815
4.235276611328132,-0.2009594841907732,-0.3854781577229499,-0.5394751257359981,-0.0821512565016746,-0.1490007489919662,0.145531490445137
4.245242919921878,-0.2749765777663328,-0.3698848672717809,-0.6173726044088602,-0.0199129581451416,-0.1037352532148361,0.1630066335201263
4.255207763671876,-0.3124932567393407,-0.3965852426707744,-0.6939572469174862,0.0630042999982833,-0.079917274415493,0.1774718612432479
4.265172851562511,-0.2396600757187232,-0.4417369283005595,-0.7521896556556225,0.1500478684902191,-0.0921155288815498,0.1798177510499954
4.275138671874998,-0.0689665687203407,-0.5360740851208567,-0.6688350806206464,0.2210911512374878,-0.1406114250421524,0.1843821406364441
4.285103759765633,0.0792356502077542,-0.6199082603663205,-0.591980973520875,0.2501646280288696,-0.2319547086954116,0.1931961923837661
4.295069824218757,0.1873828125253319,-0.679994188016653,-0.464845124426484,0.2461240887641906,-0.3266748189926147,0.2076462358236313
4.305034667968755,0.2403790924419648,-0.7963812640815973,-0.3207154704332352,0.2073285281658172,-0.3985383212566376,0.2310539633035659
4.315000000000012,0.1898625918434001,-0.8840972491964697,-0.2396609890341758,0.1579812169075012,-0.4320794939994812,0.2480276226997375
4.324965820312499,0.0970904375838115,-0.975097955070436,-0.2541378426760435,0.0991797223687172,-0.4282212555408478,0.2496674358844757
4.334930908203134,-0.0343096448263153,-0.986045465542376,-0.3147247055858373,0.0231137201189994,-0.4042402803897857,0.231825590133667
4.344896972656258,-0.1429267810095101,-0.999286932170391,-0.310549465727806,-0.0520579516887664,-0.356497198343277,0.2040734738111496
4.354861816406256,-0.1486484831245616,-1.0265820585921406,-0.3838642927855253,-0.1236280053853988,-0.3309590816497803,0.1706702411174774
4.364826904296876,-0.2547691993821412,-0.8594935538157821,-0.4683785592496395,-0.1976533234119415,-0.3314288258552551,0.1289817541837692
4.3747929687500005,-0.4687110060743987,-0.5845660210892558,-0.4941805245041847,-0.273457795381546,-0.3448671400547027,0.0824107974767685
4.384758056640635,-0.6392752972025424,-0.2748024450421333,-0.547522823113203,-0.3720018565654754,-0.382857084274292,0.0421904772520065
4.394723144531255,-0.7563056396070867,0.0115150812268257,-0.6906506065875292,-0.4901884198188782,-0.4351061880588531,0.0030625162180513
4.404688476562512,-0.8918016860939562,0.3354965677186846,-0.871608646762371,-0.5987240672111511,-0.4694873392581939,-0.0240773633122444
4.41465332031251,-1.0756013063702732,0.6397644689589739,-1.012392497459054,-0.6753495931625366,-0.4472744464874267,-0.029393296688795
4.424619140625012,-1.215624109566584,0.9141562873736024,-1.0983137081116436,-0.7114144563674927,-0.3717146813869476,-0.0246275141835212
4.434584472656255,-1.339174720585346,1.148686927781999,-1.1727648457229136,-0.6863839626312256,-0.2486968785524368,-0.0113449990749359
4.444550292968756,-1.3482821561485527,1.2569240151390433,-1.1380816548764705,-0.6047942638397217,-0.0782898962497711,0.0104619394987821
4.454515380859377,-1.2270070157811044,1.268446695150435,-0.9845534734189508,-0.4783561527729034,0.0875302329659462,0.0291543994098901
4.464480468750011,-1.130011964863166,1.2112713942497968,-0.7980103265881537,-0.3359051346778869,0.203770026564598,0.034613974392414
4.474446533203135,-1.0779550298895686,1.1057371361106634,-0.5538344904780388,-0.2081990838050842,0.2451896369457245,0.0247435010969638
4.484411376953133,-1.068464951684326,1.0463967661306262,-0.3420651324540376,-0.1169711202383041,0.2118439972400665,-0.0125824147835373
4.494377441406257,-1.0215570700369774,1.0622434468209745,-0.1398784262895584,-0.0834507122635841,0.1197060719132423,-0.0912758931517601
4.504342529296878,-1.1367879618041217,0.9519573179796338,0.1172597672462463,-0.0918162241578102,0.0470069348812103,-0.1763533353805542
4.514307373046876,-1.240409518189728,0.826615366564691,0.3138882547616958,-0.1263406425714492,-0.0140766594558954,-0.2561293840408325
4.524273681640636,-1.2580951047450304,0.7076049562588334,0.4011369146257639,-0.1596961468458175,-0.0423615537583828,-0.3398523330688476
4.534238281250012,-1.2165442200861871,0.633072570104897,0.5285621020555495,-0.2052628248929977,-0.0398443341255188,-0.4060995280742645
4.544204101562499,-1.15350601850152,0.5955521100059151,0.5681885945230722,-0.2423501163721084,-0.0287594590336084,-0.4530269801616668
4.554169189453134,-1.1390110446810722,0.6259031168669462,0.3522416585534811,-0.2902406752109527,-0.0701993107795715,-0.4904190897941589
4.564134521484377,-1.0895353583723306,0.6837146698445081,0.2744195832043886,-0.339624285697937,-0.0956162437796592,-0.5274433493614197
4.574100341796878,-1.0048813911765813,0.754249510794878,0.3646615796655416,-0.37600839138031,-0.100161463022232,-0.5462830662727356
4.584065185546876,-1.0052876338899135,0.7361322548240423,0.3907359321206808,-0.4036884903907776,-0.1125576794147491,-0.5384209156036377
4.594031494140637,-1.0222728170908988,0.6977128000587225,0.4533727132976055,-0.4281682670116424,-0.1088058203458786,-0.5345553159713745
4.603996337890635,-0.9273680164504796,0.7341355280488729,0.6427449460744857,-0.4529965221881866,-0.1069090142846107,-0.5510943531990051
4.613961425781255,-0.8014312409475445,0.7133093053802847,0.5694587605893612,-0.4807879328727722,-0.1542006283998489,-0.5652543902397156
4.623927490234379,-0.765679105695337,0.7059025362551212,0.4854682257384061,-0.4981636703014374,-0.2179988920688629,-0.5774960517883301
4.633892333984377,-0.7217314620930702,0.7377835291624069,0.5221294386595488,-0.4947638511657715,-0.2601756453514099,-0.5773634314537048
4.643858398437516,-0.5940234026012942,0.651976300278306,0.6386532928466796,-0.4595737159252167,-0.2669460475444793,-0.5501918196678162
4.653823486328136,-0.3921802857100963,0.4792983049318194,0.6672820059597492,-0.4145399332046509,-0.2621670067310333,-0.4992871284484863
4.663788574218756,-0.198995399309881,0.2820332730785012,0.7292272977411747,-0.3626279830932617,-0.2129679024219513,-0.4381772875785827
4.673754394531258,0.0113627767419442,0.1336550217300653,0.9155886582642792,-0.3132494986057281,-0.1163335070014,-0.3629837334156036
4.683719482421878,0.2346128753317519,-0.0759404993861913,1.0066688591152428,-0.2627144157886505,-0.0131886322051286,-0.2730622589588165
4.693685546874988,0.4084018641274422,-0.2900134581774473,1.0746136835724114,-0.218220978975296,0.1025480851531028,-0.1787064522504806
4.703650146484378,0.5124082916447893,-0.3855699276596308,1.148614154806733,-0.2002113908529281,0.2260621935129165,-0.0952252522110939
4.713615234374998,0.6009728929456323,-0.4778595043003559,1.145591007593274,-0.2004377543926239,0.3300056159496307,-0.0244370996952056
4.723581298828137,0.727347621474415,-0.6021914018899202,0.9855740486383436,-0.1944064199924469,0.3472927510738373,0.0098161278292536
4.733546386718757,0.8786663101889193,-0.6986670320436358,0.6639765346735715,-0.1809699833393097,0.2961009442806244,0.0159240886569023
4.743512451171881,0.890369607464224,-0.7259314710661768,0.6784960584133863,-0.1476466655731201,0.2643017768859863,0.0030969360377639
4.753477539062516,0.7581802743725479,-0.6084215284511446,0.6537006398528814,-0.1211641952395439,0.2304503470659256,0.0025134375318884
4.763442382812499,0.6470860440187156,-0.6294660700455308,0.438528195387125,-0.0957961305975914,0.2303256541490554,0.0296307541429996
4.773408203125001,0.6820281780622899,-0.8557800862506032,0.3930009544432163,-0.049978844821453,0.3024842739105224,0.090357482433319
4.783373535156258,0.8203733303699642,-1.043073759187758,0.1052548566758632,0.000845038332045,0.3351806402206421,0.1775101721286773
4.79333935546876,0.980768548052758,-1.148147998599708,-0.5415419951379299,0.0700126588344574,0.2715920805931091,0.2737165987491607
4.80330444335938,1.0832152885053306,-1.088460422617197,-0.4989969848752021,0.1708592474460601,0.2817121744155884,0.3884325325489044
4.8132695312500005,0.982654946321249,-0.9897200624018908,-0.5378291120946407,0.2856489419937134,0.2454402148723602,0.514243483543396
4.823235351562516,0.9360446593809872,-1.0307228116586804,-0.6624719753295183,0.4308235049247741,0.1759814321994781,0.6479091644287109
4.8332001953125,0.8880497862145305,-1.1394479747936128,-0.3962064724862575,0.5455064177513123,0.1975612938404083,0.7674869894981384
4.843166503906261,0.857053686382994,-1.2200307470276952,0.0735123954564332,0.6093448400497437,0.3191325068473816,0.8842480778694153
4.853131347656259,0.8877145629107952,-1.4754121600240468,0.2039449480086564,0.5849055051803589,0.4643160700798034,0.967808187007904
4.863096191406257,0.7017350413121283,-1.723729918244481,0.3616775954186916,0.4981424212455749,0.5978131890296936,1.0031592845916748
4.873062499999989,0.3350624140851199,-1.663146562466025,0.4992448221564292,0.3726180493831634,0.6865105628967285,1.002233862876892
4.883027343750001,-0.0066238568528555,-1.6299053871214388,0.6597703151553869,0.2788158357143402,0.7265697121620178,1.0061362981796265
4.892993164062517,-0.1703237238379195,-1.9002777407616376,0.567392475709319,0.2212577313184738,0.683585524559021,1.0425148010253906
4.90295849609376,-0.1116118975523859,-1.8660005003675817,0.3602086919099092,0.1466809064149856,0.6188448667526245,1.0262326002120972
4.912923339843758,0.1919026828362606,-1.3298600720122455,0.3456026589304208,0.0812574177980423,0.4939729869365692,0.9382792711257936
4.922889404296882,0.3121463429978117,-1.08416535577178,0.0806920778274536,0.0574045218527317,0.2356782406568527,0.8343667984008789
4.93285424804688,0.3388190266722813,-0.8448933660551905,-0.3075467767804861,0.0885797441005706,-0.1109651997685432,0.7515829801559448
4.942819580078137,0.3643565323043614,-0.4468579245761037,-0.5297112720906734,0.1586249619722366,-0.4567839801311493,0.6990777254104614
4.952785400390638,0.4528231165908277,0.1158057690456509,-0.6441156499058008,0.239683598279953,-0.7675855755805969,0.6825339198112488
4.962750488281259,0.6653017188627273,0.3262468010753393,-0.7229249827265739,0.3593403100967407,-1.055133819580078,0.7200261950492859
4.972716552734397,0.8388235446222126,0.0508750317126512,-0.6382260073453188,0.5285953283309937,-1.2720997333526611,0.8044321537017822
4.982681152343758,0.8536200586725026,-0.2469768650054931,-0.4765016599506139,0.7010059356689453,-1.4041316509246826,0.8961007595062256
4.992646240234379,0.8632963801648468,-0.0440557070866227,-0.3725537942200899,0.8209919929504395,-1.4669606685638428,0.9108511805534364
