time,ax,ay,az,gx,gy,gz
0.0,0.199261210639216,-0.4072194494098424,0.5232873765230178,-0.487924575805664,-0.175324946641922,-0.8656757473945618
0.009964599609375568,0.2432461905771866,-0.4369084852308034,0.4452303233742714,-0.5068256855010986,-0.1368306279182434,-0.8334611058235168
0.01992968749999946,0.333873715757206,-0.4567015654593706,0.2834218048274516,-0.5054352283477783,-0.1220474243164062,-0.7818064093589783
0.029894531249997414,0.4367226438025012,-0.4762643440634012,0.0950391676098108,-0.4663203060626983,-0.1278914511203766,-0.7189933657646179
0.03985986328125435,0.4992393422637134,-0.4469079011976719,-0.0900537804126739,-0.3930985629558563,-0.1541366428136825,-0.6453729271888733
0.04982397460937449,0.499369507982023,-0.4386059367984533,-0.3056482496827841,-0.2901979088783264,-0.207975834608078,-0.5617328882217407
0.059788818359375995,0.4696755037249997,-0.4760778815805911,-0.3991623996824026,-0.1755959689617157,-0.2580770850181579,-0.4663284122943878
0.06975366210937395,0.3852482579572126,-0.548078703430295,-0.4506061711937189,-0.0627151802182197,-0.2977175414562225,-0.3632254302501678
0.07971850585937545,0.2413457637833431,-0.6125286715090275,-0.3962584949344396,0.0351519957184791,-0.3084825575351715,-0.2688733637332916
0.08968383789062528,0.0348559535974636,-0.5918240293934941,-0.3069640084564685,0.1081381663680076,-0.3184198141098022,-0.205093577504158
0.09964868164062324,-0.1922464730389416,-0.5692626534953713,-0.2149988414645194,0.1565808057785034,-0.3355404734611511,-0.1668287366628646
0.10961376953125423,-0.3172406704621389,-0.5319043982207775,-0.120790863981843,0.1820918768644333,-0.34696164727211,-0.1595338135957718
0.11957861328125219,-0.3181973135998472,-0.5660425224050879,-0.0814385122805833,0.1992570161819458,-0.3404099941253662,-0.1570296436548233
0.1295424804687464,-0.1725686897531151,-0.7635051226571202,-0.0374526555597782,0.2270339131355285,-0.3289940953254699,-0.1475610435009002
0.13950781249999977,0.084548534059897,-1.0464449891865253,-0.0286310512006282,0.2476284056901931,-0.3250342309474945,-0.1397736817598343
0.14947265625000128,0.2679937148753553,-1.117696453973651,0.0902618702054023,0.2099424302577972,-0.3378642797470093,-0.137249544262886
0.15943774414062517,0.3463683826059103,-1.1712673006415366,0.1590016444325447,0.1237841099500656,-0.3397655189037323,-0.1386040300130844
0.16940258789062312,0.3894060717564075,-1.2333870722070337,0.3474041553944349,-0.0076902988366782,-0.3062616288661957,-0.1408698409795761
0.17936791992187295,0.4527917350718751,-1.274589727950096,0.3927881884753704,-0.1756649166345596,-0.2485679686069488,-0.152435153722763
0.18933276367187446,0.538086374791339,-1.329505559486151,0.2700929521769285,-0.3590185344219208,-0.1666508167982101,-0.1586139649152755
0.19929663085937577,0.7276506960742175,-1.420935012166202,-0.018830957198143,-0.5039458870887756,-0.0755994692444801,-0.1551566570997238
0.20926171874999966,1.00457174070552,-1.5580325755655764,-0.378301397961378,-0.58771812915802,-0.0137506574392318,-0.1376700550317764
0.2192265624999976,1.2467923510946333,-1.5711007314532994,-0.8331529516398907,-0.6283941864967346,0.000816301209852,-0.1320670396089553
0.22919189453125455,1.2993547513723374,-1.415108497969806,-1.1188865405410529,-0.6332752108573914,-0.0179419480264186,-0.1310347914695739
0.23915673828124895,1.150261410557106,-1.1624077023595571,-1.2123854929715394,-0.6288080215454102,-0.0256565921008586,-0.136185884475708
0.2491218261718764,0.9042963529426604,-0.8088681129500269,-1.191634381365776,-0.6412650942802429,-0.0498407483100891,-0.1573361903429031
0.25908666992187435,0.645307563104108,-0.4027633467838168,-1.1323632772296666,-0.6868706345558167,-0.0847758278250694,-0.1875769048929214
0.26905175781249824,0.4039190561575815,-0.0194660402312874,-1.0437538504064083,-0.7495922446250916,-0.1010528057813644,-0.2170351892709732
0.2790158691406255,0.2917864591993391,0.3057897039800882,-1.0007277786284683,-0.7990476489067078,-0.0973201170563697,-0.2474466264247894
0.28898071289062344,0.3177894634513184,0.5031368611589074,-0.9867495221585034,-0.8126077055931091,-0.0467920675873756,-0.2576329410076141
0.2989418945312501,0.4056613332476466,0.6437281118929385,-0.9922282458305358,-0.789974570274353,0.0044122636318206,-0.2416526675224304
0.308906982421874,0.4495795315597206,0.7356374570444226,-1.1205974361121651,-0.7355121374130249,0.0633149445056915,-0.205311968922615
0.3188720703125014,0.5906613057570531,0.7801561054676771,-1.1145376976817845,-0.6474459171295166,0.1316010504961013,-0.1531435698270797
0.3288369140624994,0.761129333436489,0.73506404107064,-1.221377777722478,-0.5481426119804382,0.1756451576948166,-0.0944413691759109
0.33880175781250443,0.9173062758371232,0.7053523550264537,-1.2488923921138049,-0.4416353702545166,0.2048419266939163,-0.0415456630289554
0.3487668457031248,1.0676205367494374,0.6850374428808689,-1.2485218052357434,-0.3301530480384826,0.2108742594718933,0.0034577562473714
0.358730957031252,1.1414684477705508,0.6639439475782215,-1.3518068231433629,-0.2235831916332245,0.172974020242691,0.0345544219017028
0.3686960449218759,1.2008313949085772,0.651499768807739,-1.325429688349366,-0.111688494682312,0.1473181843757629,0.0435013100504875
0.3786611328124998,1.2827541835747658,0.589834316881001,-1.312803431010246,-0.0042584361508488,0.0938448384404182,0.0407566577196121
0.38862573242187537,1.3362456813961268,0.536237751249969,-1.2714794869750738,0.0846023336052894,0.0307885333895683,0.0362905412912368
0.39859082031249926,1.3694379030324515,0.4867877839043736,-1.0852502283990382,0.1452667415142059,-0.0350458733737468,0.0434555113315582
0.4085556640625043,1.30897305906713,0.4635626834005117,-0.8428378948301076,0.1625135093927383,-0.0555847026407718,0.0627311989665031
0.4185209960937506,1.232260114003718,0.4540571884304284,-0.5331354013204574,0.14314965903759,-0.0340162925422191,0.0999203771352768
0.4284851074218743,1.1334296643521635,0.4446307500459253,-0.2626958276629448,0.0963412895798683,0.0257258564233779,0.1586952954530716
0.4384499511718758,0.9921345031324772,0.5018598269604146,-0.0170884974449872,0.032129019498825,0.0937147662043571,0.2325111925601959
0.44841479492187375,0.899663943901658,0.5262435959801077,0.1858335372567176,-0.0352613590657711,0.1700240820646286,0.3180897235870361
0.45837963867187526,0.8321741697356104,0.5832585917524993,0.399655736157298,-0.0894532278180122,0.2597723603248596,0.4003340005874634
0.4683449707031251,0.7319978584330529,0.6299500541701912,0.5041109668880701,-0.1201858147978782,0.3341419696807861,0.479742556810379
0.47830981445312304,0.6796295924879611,0.5882362340345978,0.5782178211063146,-0.1168563365936279,0.3853138089179992,0.5553292036056519
0.4882749023437505,0.6487963550679385,0.5820308035232127,0.6413245578825474,-0.1015426367521286,0.3829814493656158,0.6156447529792786
0.4982399902343744,0.5974154196597635,0.5617340115562081,0.6499000785261392,-0.0735623985528945,0.3363364636898041,0.6480894684791565
0.5082036132812497,0.5360856659607961,0.5120328459285199,0.6992658747196198,-0.0329502671957016,0.2585952579975128,0.6580888628959656
0.5181689453124996,0.4987848034292459,0.4868500354856252,0.8009288443833589,0.0122441099956631,0.1907390058040619,0.6352959275245667
0.5281337890625011,0.4296232601260766,0.365035673674941,0.7990583743363618,0.0580921806395053,0.1115703955292701,0.6043518781661987
0.538098876953125,0.3160268376929685,0.2544863638527691,0.9093442109167575,0.0891401171684265,0.0554522648453712,0.5785783529281616
0.5480639648437453,0.2870780257800593,0.2210086032733321,1.0003004931271076,0.0975832641124725,0.0157321263104677,0.5450219511985779
0.5580290527343763,0.2043176172459498,0.1888182521559298,1.0861001232266425,0.0909682363271713,0.0103354956954717,0.504524827003479
0.5679941406250002,0.1643976582571864,0.093158760690689,1.2293477336883545,0.0774894282221794,0.0320966802537441,0.47641521692276
0.5779587402343758,0.1469357974551618,-0.0105373222358524,1.209469313263893,0.0606462694704532,0.0497316010296344,0.4736266136169433
0.5879228515624995,0.1126829243173822,-0.0317876155354082,1.251622109338641,0.0370541252195835,0.0752174109220504,0.4663620293140411
0.5978879394531234,0.0810019109616056,-0.035517011322081,1.2105004098773002,0.0262193195521831,0.091047503054142,0.4586854875087738
0.6078530273437508,0.0618481880825012,-0.0540083613023161,1.2405892586708067,0.0305457562208175,0.1110433712601661,0.458038866519928
0.6178181152343747,0.0473587306873872,-0.0755024002298712,1.1871318092495202,0.0325207561254501,0.1005529090762138,0.4560039341449737
0.6277827148437503,-0.0364225453270599,-0.0972922072336077,1.1021206991791723,0.0356057621538639,0.0843574330210685,0.4483705163002014
0.6377478027343741,-0.0800588944904506,-0.1405189161501824,1.0642477723807096,0.0397459119558334,0.0721452385187149,0.4218222796916961
0.647712890624998,-0.0770478030409663,-0.2093539674453437,1.0040472784399983,0.048010766506195,0.0647648200392723,0.374241441488266
0.6576779785156255,-0.0978217840656638,-0.3439560607671737,0.7535434083521365,0.058158740401268,0.0277189202606678,0.3130233585834503
0.6676420898437456,-0.1554870239077135,-0.4223346009552478,0.4957108028113842,0.0654467642307281,-0.0185170844197273,0.2447436302900314
0.6776069335937507,-0.162397826209478,-0.4254151774443686,0.301685191270709,0.0644749775528907,-0.0847256630659103,0.1635694056749344
0.6875717773437451,-0.2370540214061736,-0.4394743901960551,0.086974519097805,0.0582267940044403,-0.1507488787174224,0.0761242434382438
0.6975368652343761,-0.3482837512405589,-0.3904620836153626,-0.1549041459858417,0.0431636944413185,-0.2272817343473434,-0.0020832056179642
0.707501953125,-0.4926021692715585,-0.348124724753946,-0.3684358375072479,0.0372637175023555,-0.2635480463504791,-0.0717016980051994
0.7174667968750015,-0.6794394767433405,-0.303318929952383,-0.5064496389687061,0.0197776705026626,-0.2659893631935119,-0.13025663793087
0.7274318847656254,-0.8415891368780285,-0.2093631736651063,-0.6444523345142602,-0.0103646488860249,-0.2343009859323501,-0.1896807998418808
0.7373959960937455,-0.9821054957449435,-0.0736103028729558,-0.8208090183734893,-0.0332100428640842,-0.1816913038492202,-0.240472599864006
0.7473608398437506,-1.0896328273974358,0.0126965460963547,-0.9508686459600924,-0.0350256711244583,-0.105581983923912,-0.2679679095745086
0.7573259277343745,-1.1671183642685412,0.1198958148382604,-1.116331010839343,-0.0111693385988473,-0.0408605076372623,-0.2722710371017456
0.767290771484376,-1.1494715022884308,0.217704008769989,-1.2300976752728223,0.036341592669487,0.0105416933074593,-0.2725999355316162
0.7772558593749999,-1.074734825734049,0.2519135907553136,-1.3335983817577362,0.097961276769638,0.0348379760980606,-0.2661553621292114
0.7872209472656237,-0.9216810568552464,0.1666249789178371,-1.389636495321989,0.1869489401578903,0.0425225831568241,-0.2522048950195312
0.7971860351562547,-0.7939694536995142,0.1111763556793332,-1.3566226989924908,0.2780285179615021,0.0295162368565797,-0.240316554903984
0.8071508789062491,-0.6869412306755781,0.0368663801044225,-1.244202772992849,0.3523617684841156,-0.0082444613799452,-0.22886922955513
0.8171147460937505,-0.4691981685368344,-0.0282239317044615,-1.0609838021486997,0.3954908549785614,-0.0516121760010719,-0.2160429060459137
0.8270798339843743,-0.2100680705314502,-0.2622115512773394,-0.9627695116341114,0.4065315127372741,-0.1175470948219299,-0.1836340874433517
0.8370449218749982,0.0393008041771128,-0.5789952352195978,-0.9084832101732492,0.393237292766571,-0.1766506284475326,-0.134764552116394
0.8470100097656257,0.2226406979871913,-0.8979980565160512,-0.7598252651005983,0.3341764807701111,-0.2066581100225448,-0.1031272709369659
0.8569748535156236,0.1804396423239261,-0.927816271674633,-0.6351636971652508,0.199128657579422,-0.2487435191869735,-0.1106970384716987
0.8669396972656251,-0.0544275000298395,-0.7521908246994018,-0.5448959817409516,0.0027673840522766,-0.315696656703949,-0.1657776087522506
0.876905029296875,-0.5041360647967085,-0.4068655214056372,-0.4928174194574355,-0.2269435822963714,-0.408451110124588,-0.2601547241210937
0.8868688964843763,-1.0372573279939592,0.0842442173510789,-0.5205015451967716,-0.4830097258090973,-0.5123481750488281,-0.3933316767215729
0.8968339843750002,-1.5248507291927933,0.6641293871477246,-0.6026525896608829,-0.72472083568573,-0.5729310512542725,-0.5533064603805542
0.9067988281249981,-1.842154345355928,1.0959306123673915,-0.6411562155783176,-0.8955991268157959,-0.5429450273513794,-0.6644744873046875
0.9167639160156256,-1.967559132874012,1.3766115940541028,-0.6871814691722392,-0.9690754413604736,-0.4495751559734344,-0.7049736976623535
0.9267292480468754,-2.0752255807362494,1.681593781043589,-0.8310089253485202,-0.9121406674385072,-0.2882012128829956,-0.6946238279342651
0.9366938476562545,-2.0230960189178586,1.839017947026342,-0.8863964660495519,-0.7383968234062195,-0.089389331638813,-0.6339051127433777
0.9466589355468749,-1.7454706254094838,1.8435786790706217,-1.0981629014641046,-0.4972589313983917,0.0588848255574703,-0.5355119705200195
0.9566237792968764,-1.4385560090526937,1.8335938761509956,-1.1734212638050316,-0.2140690386295318,0.1370139718055725,-0.4484492242336273
0.9665878906250001,-1.2240330414716154,1.761587939734757,-1.1713619931876658,0.076541893184185,0.1003478392958641,-0.3833599686622619
0.9765532226562499,-1.1099335648871955,1.544662367991358,-1.016473044770956,0.3447429835796356,-0.0145310750231146,-0.354474812746048
0.9865178222656255,-1.0193574411008506,1.326838093842566,-0.6624678836762905,0.5390418767929077,-0.1629306674003601,-0.3921657204627991
0.9964829101562493,-0.976644380794838,1.064331359010935,-0.3259942876189947,0.6626807451248169,-0.3098527193069458,-0.4661265015602112
1.0064477539062544,-1.0193404899660496,0.6929889864072203,0.0530079520881175,0.7161549925804138,-0.4303475618362427,-0.5306152105331421
1.0164130859375042,-1.0636835626266896,0.3939864583492279,0.4462584973782301,0.679007887840271,-0.5212713479995728,-0.5951278805732727
1.0263779296874986,-1.1464980394355953,0.3055585255727172,0.7552005279093981,0.5618131160736084,-0.5904285311698914,-0.6771657466888428
1.0363420410156259,-1.2549198357097804,0.2164475789681076,1.0213865357756615,0.3898413479328155,-0.6184026002883911,-0.7630018591880798
1.0463068847656238,-1.3453566240906714,0.170114574599266,1.2059510760098695,0.1761607378721237,-0.629255473613739,-0.8433318138122559
1.0562717285156253,-1.4798285151615738,0.2043570359408855,1.2537684737175705,-0.045973252505064,-0.5956125855445862,-0.9223395586013794
1.0662370605468752,-1.5362565048262475,0.2811149891898036,1.3553309056162834,-0.2471903860569,-0.512156069278717,-0.9696812629699708
1.0762019042968731,-1.5318793126553296,0.3894584595307707,1.3887111971706152,-0.4084434509277344,-0.3825352191925049,-0.9761516451835632
1.0861669921875041,-1.492090323102474,0.494933388698101,1.4006243378043175,-0.523432195186615,-0.2259596884250641,-0.9434845447540284
1.0961318359374985,-1.374375943956524,0.6172478089854121,1.3994494488060474,-0.59711092710495,-0.0679221153259277,-0.8909398317337036
1.106096923828126,-1.213504633194581,0.7099203935943543,1.3274708387881518,-0.6300837397575378,0.0445590503513813,-0.838455319404602
1.1160610351562497,-1.023818658293411,0.7960093620292842,1.2334639368355274,-0.606909990310669,0.1002995446324348,-0.7916784882545471
1.1260258789062547,-0.8860415151320398,0.8448442662164568,1.0488426979780197,-0.5363264679908752,0.0836682096123695,-0.7500445246696472
1.135990966796875,-0.8411035453181713,0.89189243311733,0.9300134894579648,-0.4364195764064789,0.0279191955924034,-0.7334263920783997
1.145955810546873,-0.7413052004825323,0.8531063369967042,0.939392143177986,-0.3221594393253326,-0.0463629737496376,-0.73100346326828
1.155920898437504,-0.6632330228298902,0.7538289472952485,0.9374170437127352,-0.2092115879058838,-0.1565182358026504,-0.7327379584312439
1.1658859863281243,-0.6560322976708411,0.5749680255301296,0.9483739065349102,-0.1096608936786651,-0.2696987986564636,-0.7500823140144348
1.1758508300781259,-0.66455754943192,0.4030044620633125,1.099771505704522,-0.0278808064758777,-0.3550664484500885,-0.7896584868431091
1.1858159179687462,-0.6438914126958698,0.191767311219871,1.243651568850875,0.0173134393990039,-0.4162385761737823,-0.8298115134239197
1.1957797851562546,-0.6388895858205854,-0.0083957801625132,1.382525202012062,0.0305522792041301,-0.4586440920829773,-0.8508909344673157
1.2057451171875044,-0.5822993182662874,-0.2186525416664779,1.512620485433936,0.0059388075023889,-0.4790551662445068,-0.8664405941963196
1.2157099609374988,-0.5390197101186961,-0.3361239058367908,1.6120225244283677,-0.0397043116390705,-0.4780753850936889,-0.8825745582580566
1.225674804687504,-0.4969679632656276,-0.4720400043666362,1.669107516697049,-0.0992500558495521,-0.4730014204978943,-0.881199300289154
1.2356398925781242,-0.4463987095665186,-0.6193155551701783,1.5903244873613118,-0.1692930608987808,-0.4545768797397613,-0.8765731453895569
1.2456047363281257,-0.4106761657349765,-0.7339201317325234,1.5582640462338924,-0.2516864538192749,-0.4261574447154999,-0.8759379982948303
1.2555700683593756,-0.3926061829719692,-0.7979597654446959,1.5168343037366867,-0.3372663557529449,-0.3833711147308349,-0.8739597797393799
1.2655339355468733,-0.3922729324296116,-0.8482748251870275,1.4647113177895543,-0.4261673092842102,-0.3242450058460235,-0.8718069195747375
1.2754990234375043,-0.3774651663329452,-0.8733753641739487,1.329817694175243,-0.5105589032173157,-0.264625608921051,-0.8723179697990417
1.2854638671874987,-0.3245924579970538,-0.813113641565293,1.0841419748961925,-0.5783142447471619,-0.216432973742485,-0.87888103723526
1.295429199218745,-0.2891590333051979,-0.7534364408463239,0.7469587692648172,-0.6067149639129639,-0.1716292798519134,-0.8860577344894409
1.305394287109376,-0.254728940436989,-0.6766222273655236,0.4525549671739339,-0.5987726449966431,-0.1415522992610931,-0.8892673850059509
1.315359130859374,-0.1746821747757494,-0.6315519364088773,0.1474105753600597,-0.5638018846511841,-0.1162658482789993,-0.8860718607902527
1.3253244628906238,-0.0346573988180607,-0.6328158188648522,-0.0956073228865861,-0.4958527982234955,-0.0942432060837745,-0.8637785315513611
1.335288330078125,0.0900369754083454,-0.6967730349905789,-0.3533019812613725,-0.4244065880775451,-0.0819804146885871,-0.8283259868621826
1.345253173828123,0.2519082569930702,-0.8083325447686016,-0.5346989973753691,-0.3543144166469574,-0.0782264769077301,-0.7736470103263855
1.3552182617187505,0.3804964968528598,-0.9659596859775484,-0.6447159538865089,-0.2872981131076813,-0.0804289132356643,-0.7123962044715881
1.3651831054687484,0.4099372570011764,-1.0533369406573474,-0.7543120546370744,-0.2369254976511001,-0.0892250165343284,-0.6438078284263611
1.3751484374999983,0.3542883619502187,-1.064049327199161,-0.7672942858070134,-0.2104720473289489,-0.0978395417332649,-0.585832953453064
1.3851132812499998,0.2574585845965892,-1.029798390290141,-0.8295809383720159,-0.1939349025487899,-0.1063406616449356,-0.5520169138908386
1.3950783691406237,0.1742895952615887,-0.9735573014996944,-0.9634791212081908,-0.1718876659870147,-0.1051622107625007,-0.5397903323173523
1.4050432128906252,0.2263899309854954,-1.0965119193866848,-1.1456570585668089,-0.1258371919393539,-0.0919487848877906,-0.5181598663330078
1.4150070800781265,0.3167548231739551,-1.3247700553968549,-1.331772919896245,-0.0798715725541114,-0.0686956569552421,-0.4828117787837982
1.4249724121093763,0.3715205056495964,-1.3219270870558917,-1.4169739995807409,-0.0570004805922508,-0.0638088658452034,-0.4578872323036194
1.4349372558593743,0.3958293828021734,-1.2134415778957306,-1.5449047984451054,-0.0651082098484039,-0.0676989406347274,-0.4461150169372558
1.4449023437499982,0.4458243437446653,-1.203909194918722,-1.6457120280623434,-0.0599611103534698,-0.0659891963005065,-0.4377670586109161
1.4548671874999997,0.5715992066841572,-1.3266015086077152,-1.8414385983020063,-0.0392084270715713,-0.0625164285302162,-0.4208743572235107
1.4648325195312495,0.7087338141582906,-1.4684851372398435,-2.071187849652767,-0.0145712606608867,-0.0786709487438201,-0.4080927968025207
1.474797119140625,0.803643217908591,-1.4860530887648462,-2.228482690167427,-0.0201737508177757,-0.1316803842782974,-0.4127312302589416
1.4847612304687452,0.7758196836985647,-1.3781531244076788,-2.342262214082479,-0.0610021390020847,-0.1988660097122192,-0.4396059811115265
1.4947263183593762,0.6056308748193084,-1.111776416274905,-2.424846973788738,-0.1348987370729446,-0.2620353996753692,-0.4818551540374756
1.5046911621093741,0.2924769256815314,-0.7164307984016836,-2.532905781969428,-0.2221826463937759,-0.2989964485168457,-0.5358922481536865
1.514656494140624,-0.048306861725077,-0.2232388465434312,-2.5336136379778385,-0.2883483469486236,-0.2927832901477813,-0.5887051224708557
1.5246213378906255,-0.3881983764670789,0.2377376197561621,-2.4605834730803964,-0.3261716067790985,-0.2097048163414001,-0.6259568929672241
1.5345861816406234,-0.534669844346121,0.6936832522816956,-2.2988649709045887,-0.3159908950328827,-0.0540923252701759,-0.6388066411018372
1.544551025390625,-0.4620836968891322,1.0265952103346585,-2.180952877229452,-0.2384902536869049,0.1100364401936531,-0.6157447695732117
1.5545163574218748,-0.2297417986966669,1.225433336723596,-2.037958949267864,-0.0949780941009521,0.2783330082893371,-0.5546970963478088
1.5644804687499985,0.0903661342974752,1.330352677834779,-1.8902070131242277,0.0910153537988662,0.4010153114795685,-0.4633174240589142
1.5744453125,0.3869056332428008,1.382611857382208,-1.8002759823083876,0.2838508486747741,0.4458600282669067,-0.36148402094841
1.5844104003906239,0.6011518297091126,1.4565262577682732,-1.6152882482260464,0.4634922742843628,0.4250836372375488,-0.2798559665679931
1.5943749999999994,0.7326306033786386,1.4766260658584534,-1.34666478407979,0.6106036901473999,0.3664645254611969,-0.2351047545671463
1.6043403320312493,0.7407102302640676,1.4047040083333848,-1.0477800371825694,0.7256671786308289,0.3060825765132904,-0.2095146924257278
1.6143051757812543,0.7105273465115577,1.3238416885055602,-0.7443459564179181,0.7936086654663086,0.2547118067741394,-0.20217926800251
1.6242702636718747,0.7056275917712599,1.2083619365438818,-0.4540799847841262,0.822087824344635,0.2194195389747619,-0.1955978274345398
1.6342343749999984,0.694457305394113,1.0649097434207797,-0.2148456967294216,0.8106256127357483,0.200862631201744,-0.186951607465744
1.644198974609374,0.70525890458934,0.9460700135067104,-0.0421989733040332,0.7777166366577148,0.1872196197509765,-0.1683832257986068
1.6541643066406237,0.68348517193757,0.87831998096928,0.0504857401341199,0.7206128835678101,0.1698206514120102,-0.138647973537445
1.6641291503906253,0.6095183107119053,0.848634744540602,0.1960164930969476,0.6403948068618774,0.1638667583465576,-0.104961410164833
1.6740942382812491,0.5067613352663815,0.881414878244698,0.3014180647671222,0.5453647375106812,0.1627767235040664,-0.0708692222833633
1.684059326171873,0.3336591962236911,0.972270622690022,0.3225783416956663,0.4658849835395813,0.1698123067617416,-0.0420833565294742
1.6940241699218745,0.171844321001321,1.0705158928647636,0.2982137157678604,0.4248131811618805,0.1910992115736007,-0.0324309952557086
1.7039895019531244,0.0117156818328425,1.1231243242412805,0.2969154926508665,0.4023002684116363,0.210059106349945,-0.0201325267553329
1.7139531249999997,-0.0990403295425698,1.173334754565358,0.3742091602116823,0.3912377655506134,0.2326922565698623,0.0022888923995196
1.7239182128906236,-0.1620049179017543,1.1746680489957333,0.5439087242692708,0.3735442459583282,0.264217734336853,0.0251454673707485
1.7338833007812546,-0.2208801545880734,1.1570803698569536,0.6923977425158023,0.3494679629802704,0.2964989840984344,0.0502769164741039
1.743848144531249,-0.2791093849884346,1.1111118148863317,0.8980985942810773,0.3249776363372803,0.3405476212501526,0.0779133513569831
1.7538134765624989,-0.297820917057991,1.0503305984482167,1.1119693084985016,0.2959403991699219,0.3727782666683197,0.1026458591222763
1.763778320312504,-0.3448298113944009,1.0578510570809243,1.2156903797358274,0.2650721371173858,0.3824742436408996,0.1145722940564155
1.7737431640624983,-0.3418374246453866,1.026738125936687,1.3549462902128695,0.2427130192518234,0.3760062158107757,0.1225101128220558
1.7837072753906256,-0.3384716014740988,0.9483020103424789,1.4132745605409145,0.2254495918750763,0.3458039462566376,0.1223655045032501
1.7936721191406235,-0.3310045900616795,0.9160252961158752,1.5022668492019176,0.2045443058013916,0.296800434589386,0.1075439453125
1.8036374511718734,-0.3231747366862371,0.8772387616038322,1.5260978066444395,0.1885590702295303,0.2330695241689682,0.0824628174304962
1.8136022949218749,-0.364530719827488,0.8448632631778716,1.538836876708269,0.166703313589096,0.1681959927082061,0.0542836412787437
1.8235673828124987,-0.4203856223119422,0.8002598590806126,1.583434727847576,0.1403480172157287,0.1063202470541,0.0239182971417903
1.8335319824218743,-0.4649229754356667,0.7379755446031689,1.655063793775439,0.1135734021663665,0.0716943591833114,-0.0012648208066821
1.8434973144531241,-0.5004962835222483,0.6375944314435124,1.6303572225421663,0.0707790553569793,0.0428350791335105,-0.0225275047123432
1.8534621582031257,-0.5294429034780711,0.5263529015734791,1.6602847432941197,0.0223928876221179,0.0487121418118476,-0.0299646481871604
1.8634262695312493,-0.5822779101520776,0.4063187011778354,1.7499603380441664,-0.0349728055298328,0.0865876227617263,-0.0273688696324825
1.8733913574218732,-0.6256882320072501,0.3293000511661171,1.7906565055698156,-0.1058773398399353,0.139831393957138,-0.0235874466598033
1.8833559570312524,-0.6407409858409315,0.2472498367279768,1.772570813781023,-0.1765672117471695,0.2059893161058426,-0.0178145058453083
1.8933212890624986,-0.6413789184182882,0.2009121561840176,1.7540987530231475,-0.2451758384704589,0.251621276140213,-0.0124876517802476
1.9032861328125001,-0.639698344920203,0.1974377580717206,1.5042097999632358,-0.3080469369888305,0.2506457567214966,-0.0277632754296064
1.913251220703124,-0.6224653975032269,0.2246983977019786,1.2554559884130954,-0.3400759994983673,0.2191384136676788,-0.0659985467791557
1.9232160644531255,-0.6525255316589027,0.1829725948676467,1.023173419192433,-0.3494890332221985,0.1762124747037887,-0.1056311726570129
1.9331801757812492,-0.649910380724445,0.1553796545431018,0.8307090656191111,-0.360986977815628,0.1105868518352508,-0.1445572674274444
1.943145507812499,-0.6596058453086763,0.1653711794644594,0.6300964769035577,-0.3794279098510742,0.0366170220077037,-0.189211294054985
1.9531101074218746,-0.7118051844276487,0.1654915909737348,0.4108668660014867,-0.3947666585445404,-0.0327031947672367,-0.2365345954895019
1.9630751953124985,-0.8007244809176772,0.1334641753330826,0.213626968589425,-0.3944609463214874,-0.0791574567556381,-0.2765656411647796
1.9730400390625,-0.9009266573138536,0.0981143372714519,-0.0029226094484329,-0.3900520801544189,-0.1191051378846168,-0.3156369030475616
1.9830053710937463,-0.986209716193378,0.1178258766964077,-0.2077963627398014,-0.3871264457702636,-0.1487775593996048,-0.3605726361274719
1.9929702148437514,-1.0300033382777125,0.0931315804228186,-0.362754869261384,-0.3718071281909942,-0.1544333100318908,-0.4044892489910126
2.0029353027343753,-1.0321534289836882,0.0823813460886478,-0.4983329680085182,-0.3538499474525451,-0.151828646659851,-0.4335091710090637
2.012899169921873,-1.0322427877675742,0.0188236506745219,-0.6379243940502405,-0.3348323106765747,-0.1340560466051101,-0.4560829102993011
2.0228640136718745,-0.9891266996186228,0.0169691088490188,-0.688161127859354,-0.3144654035568237,-0.1099073514342308,-0.4638958275318146
2.0328293457031243,-0.9134737119369208,-0.0411971027851104,-0.7747638910353183,-0.2837202847003937,-0.0675308629870414,-0.4614659547805786
2.042794189453126,-0.8337357199639082,-0.1025398986287415,-0.7746189296066761,-0.2404878586530685,-0.0356145165860652,-0.450229287147522
2.052759277343746,-0.7856508304264396,-0.1631573028072714,-0.8793389487534761,-0.1953869611024856,-0.0251136738806962,-0.4444345235824585
2.0627243652343736,-0.7358065300010145,-0.1979075675405562,-0.8653092543572187,-0.1467692106962204,-0.0281765889376401,-0.4542200267314911
2.072689208984375,-0.6935063613448291,-0.2966530423223972,-0.8507908996611833,-0.09668979793787,-0.0607563704252243,-0.4761533141136169
2.082653320312499,-0.6474227286271751,-0.3464344335794448,-0.8197299909651279,-0.0520521625876426,-0.1037986427545547,-0.5099866390228271
2.092618164062504,-0.5929536910105496,-0.399386417696625,-0.7819944268107414,-0.0157703217118978,-0.1580192744731903,-0.551241397857666
2.1025832519531242,-0.5727813291408121,-0.4156434327535331,-0.7793529723912477,0.0302837044000625,-0.2236609607934951,-0.5862348079681396
2.112548339843748,-0.5361300896244123,-0.4982362296357751,-0.7567863357961178,0.0844782367348671,-0.2663407623767853,-0.6206367015838623
2.1225134277343756,-0.4243791854601353,-0.6059253277212381,-0.773043058592081,0.1468730419874191,-0.2981115579605102,-0.6433095335960388
2.1324782714843735,-0.2935703469414263,-0.7236208560362458,-0.7997130388528109,0.2021163254976272,-0.3324130773544311,-0.6588402986526489
2.142443115234375,-0.1236579255844466,-0.8233587028563022,-0.8274275597304105,0.2460126727819442,-0.3768860995769501,-0.6736506819725037
2.152408203124999,0.0640766777869314,-0.9280245075978338,-0.8750181629449129,0.2863768637180328,-0.4391113817691803,-0.6858263611793518
2.162372314453126,0.2471810458080842,-1.0222713557861745,-0.90503160841465,0.3077246248722076,-0.4966799616813659,-0.7016945481300354
2.1723374023437465,0.374885561635904,-1.078240349636972,-0.8534300159931182,0.3127720952033996,-0.5379707217216492,-0.7181968092918396
2.182302490234374,0.3540004118543118,-1.0246516750514507,-0.7586293333142995,0.2757734954357147,-0.5683257579803467,-0.7252840399742126
2.192267089843746,0.2825161612246185,-0.8802700921237469,-0.5832488010108471,0.1940557211637497,-0.581007182598114,-0.7302316427230835
2.2022321777343734,0.1693550614688545,-0.6925546866431832,-0.379161229661107,0.0856273844838142,-0.5634928941726685,-0.7286680936813354
2.2121972656249973,-0.0363795464355498,-0.4221498920381069,-0.2120832462787628,-0.0368050523102283,-0.5126899480819702,-0.7148532271385193
2.2221623535156247,-0.3060407561317086,-0.0444309701398015,-0.0642769495993852,-0.1614388525485992,-0.4358684420585632,-0.7015611529350281
2.2321271972656263,-0.5644619021501391,0.4022748326145112,-0.019420155262947,-0.2697820961475372,-0.331874668598175,-0.6805064678192139
2.242091064453124,-0.7335946991704404,0.7487089739330113,-0.0053922144323587,-0.3253990411758423,-0.2090567648410797,-0.6545230150222778
2.2520561523437514,-0.7901511375203728,0.9723435417957604,-0.13963292709589,-0.3198287785053253,-0.0996746122837066,-0.6230351328849792
2.2620212402343753,-0.7318548697657883,1.162456071545929,-0.3357090414255857,-0.2567853629589081,-0.0281736887991428,-0.5873701572418213
2.2719863281249992,-0.6246488790221512,1.3097969426706433,-0.5009358439832925,-0.1440689414739608,0.014053925871849,-0.5612969994544983
2.281951171874997,-0.5729873000416904,1.408263308250159,-0.5998562369406223,0.000355509109795,0.0279180631041526,-0.5377434492111206
2.2919160156249987,-0.5094613514726981,1.395544111930579,-0.5396726941347122,0.1410391181707382,0.0451564379036426,-0.5107868909835815
2.301881103515626,-0.3326847251683473,1.303244598417729,-0.3794254335552454,0.2432496398687362,0.0297579895704984,-0.4826618134975433
2.311844970703124,-0.2085178819473832,1.219668197325617,-0.2304869179755449,0.3057420551776886,0.0102828247472643,-0.4629560112953186
2.3218100585937513,-0.0498650874851271,1.0466051481842995,-0.0745528444200754,0.3446597456932068,-0.0406965650618076,-0.4466601610183716
2.3317749023437457,0.0625669308111071,0.8760916373953223,0.0012087912678718,0.3623204827308655,-0.0926404595375061,-0.4370810389518738
2.341739990234373,0.1716987019855529,0.711906452845037,0.1385825412601232,0.3585168421268463,-0.1418102830648422,-0.4200711548328399
2.351705078124997,0.217149845485948,0.571695141339302,0.2344014610707759,0.3269109725952148,-0.1856304705142974,-0.3864343762397766
2.3616701660156245,0.2001331711681559,0.5081000365242362,0.3863765678673982,0.2769249081611633,-0.2225447297096252,-0.3470602929592132
2.371635009765626,0.1284867887793108,0.4518675694316625,0.5640285522341728,0.1957214027643203,-0.2392265051603317,-0.3004733622074127
2.381599853515624,-0.0068904536334797,0.4125666556566953,0.6759697548061608,0.0962820276618003,-0.2458023726940155,-0.2573485076427459
2.3915639648437512,-0.1525603228060528,0.4102940345495939,0.7357686822086572,-0.0146527420729398,-0.255258709192276,-0.2237727344036102
2.401529052734375,-0.3421126248575746,0.3950967576786875,0.7470528772890568,-0.1163414269685745,-0.2548355460166931,-0.1997800469398498
2.411494140624999,-0.5683189794370904,0.3844681038975715,0.7381909409195184,-0.2020222544670105,-0.2249926924705505,-0.1884696036577224
2.4214592285156264,-0.7511075595073401,0.3955088456109166,0.7637748795092105,-0.278350681066513,-0.2028339058160781,-0.1841190606355667
2.4314238281249985,-0.8990418664805591,0.4080556079730391,0.6350444546997547,-0.3392119109630584,-0.1844309419393539,-0.1721340417861938
2.441388916015626,-1.0276005879849195,0.4495800430163741,0.6844166806340217,-0.3711998164653778,-0.1497924327850341,-0.1733036935329437
2.45135400390625,-1.1084035788409412,0.4662707733154296,0.5875386071592569,-0.3820570111274719,-0.1297449469566345,-0.1749972105026245
2.4613190917968737,-1.148840803169459,0.5097105404607951,0.5559194800585509,-0.3670675158500671,-0.1168169602751731,-0.1833083927631378
2.4712832031249974,-1.1559452283471825,0.5118194954387844,0.56103112398386,-0.3214110732078552,-0.1096842139959335,-0.2000769972801208
2.481247802734373,-1.1147848773758855,0.4848747898899018,0.5340981088727712,-0.2528024613857269,-0.1193753033876419,-0.2266262918710708
2.4912128906250004,-1.014678854830563,0.383419179366529,0.5654682296484709,-0.1771305948495865,-0.1434923559427261,-0.2461720407009124
2.5011779785156243,-0.8554774500422179,0.2277707908846437,0.6901824045538902,-0.104141741991043,-0.1844894886016845,-0.2614058554172516
2.5111430664062517,-0.6844631501242519,0.0604356178708374,0.8417460079401731,-0.0499858260154724,-0.2240408957004547,-0.2760607004165649
2.5211079101562497,-0.5394254779079929,-0.1302022509276867,0.9729548055619,-0.018206188455224,-0.283761203289032,-0.2835846543312073
2.5310729980468736,-0.4467566561587154,-0.2824960682846605,1.049155417189002,-0.006034477148205,-0.3304791748523712,-0.281806468963623
2.541036865234375,-0.3973685750681907,-0.4595918800733983,1.2201356687068938,-0.0103228474035859,-0.3540239036083221,-0.2780482172966003
2.5510019531249988,-0.390064024208486,-0.6186499308682978,1.2771978646218776,-0.0337437503039836,-0.376298576593399,-0.2812948524951935
2.5609670410156262,-0.400992099327594,-0.7752244942843913,1.2668541652619838,-0.075378268957138,-0.3852036297321319,-0.2859167754650116
2.570931884765624,-0.4118600417573004,-0.893955210866034,1.287601769736409,-0.1258347779512405,-0.4024356305599212,-0.294590950012207
2.5808969726562516,-0.4407152571026235,-1.001732717887312,1.2630214552313088,-0.1834970116615295,-0.4124858975410461,-0.3086471259593963
2.5908620605468755,-0.478669140182808,-1.098672896812856,1.2454086416512726,-0.2481228858232498,-0.4024431109428406,-0.3306256532669067
2.6008271484374994,-0.5668401755888015,-1.1759954982072114,1.212845511698723,-0.3109986484050751,-0.3898330330848694,-0.3570548892021179
2.610791748046875,-0.6668104429252445,-1.2342618092149495,1.1371505115061995,-0.3766985535621643,-0.3634922504425049,-0.3879198431968689
2.6207558593749987,-0.7120447653371841,-1.2544744300298392,1.1121329746276138,-0.450420618057251,-0.3144463002681732,-0.4284590482711792
2.630720947265626,-0.7513153570391238,-1.2521366347320375,1.0503706381976603,-0.511178731918335,-0.2616419494152069,-0.4796375334262848
2.64068603515625,-0.76702343297638,-1.2303621714279054,0.8831184672921896,-0.5607563853263855,-0.2237625867128372,-0.5217737555503845
2.650651123046874,-0.6807534088861197,-1.1804643141843378,0.6963070249140262,-0.6026902794837952,-0.1972492188215255,-0.5526944398880005
2.6606159667968754,-0.5524232354406267,-1.093652438302338,0.4890606972724199,-0.6213529109954834,-0.1806993782520294,-0.5813681483268738
2.6705808105468734,-0.4291360976636409,-1.087628647968173,0.2404687982857227,-0.6091745495796204,-0.1775464564561844,-0.5861448049545288
2.680546142578123,-0.3288564721170812,-1.0912043144978585,-0.0138081606000661,-0.5765514969825745,-0.1705638170242309,-0.5796927213668823
2.6905109863281247,-0.1908696317277848,-1.0622111519865691,-0.2316436867952346,-0.5319570899009705,-0.167049765586853,-0.5645737051963806
2.700475097656252,-0.1338331547759473,-1.0401932353153824,-0.4405225840747356,-0.4679600298404693,-0.157782182097435,-0.5412244200706482
2.71043994140625,-0.0664791358187794,-1.0417129922285675,-0.6020511166363954,-0.4038699865341186,-0.1507043093442917,-0.5125904083251953
2.720404785156255,-0.0104109193772077,-1.0516849356666207,-0.7374936063051223,-0.3536245226860046,-0.1476516276597976,-0.4731766879558563
2.7303701171875012,0.0306983589939773,-1.0753368832804262,-0.7737269492030143,-0.3106373846530914,-0.1359470337629318,-0.4301394820213318
2.740334960937499,0.0334086408659815,-1.0687927223339675,-0.8272241461127996,-0.2839726209640503,-0.1147231236100196,-0.3859632313251495
2.750300048828123,-0.0026944997809827,-1.0466732449844478,-0.856319307693839,-0.259074717760086,-0.0846826657652854,-0.3448655903339386
2.7602648925781246,-0.0311010215107351,-1.004247331056744,-0.8844991079956293,-0.2356390655040741,-0.0475876554846763,-0.3108176290988922
2.7702302246093744,-0.0141788205433636,-0.9697622931309045,-0.9267162014782429,-0.2170496582984924,-0.0215997323393821,-0.279075413942337
2.780194335937498,0.0703572193611413,-0.9706032739996908,-0.9796142634510994,-0.18504698574543,0.0005608031060546,-0.2411807477474212
2.7901589355468737,0.1724173716489225,-0.9917135743066668,-1.0389689542174338,-0.152149498462677,-0.0031801389995962,-0.2043865174055099
2.800124023437501,0.1996190476335585,-0.9500169975668192,-1.0833902797460555,-0.1236775070428848,-0.0209891758859157,-0.1747034639120102
2.810088867187499,0.1688829139124602,-0.8529417940847576,-1.186783434203267,-0.096224308013916,-0.0648956522345542,-0.168889507651329
2.8200541992187453,0.1113570460084825,-0.7431900643810629,-1.278527067399025,-0.0522799976170063,-0.1064105555415153,-0.1690969616174698
2.8300190429687504,0.0680546415071934,-0.694567487770319,-1.3680384114980697,0.0012538004666566,-0.1460437327623367,-0.1848532855510711
2.8399841308593743,0.0909396233364939,-0.6798081639252602,-1.4986884061932564,0.0512350648641586,-0.1840015947818756,-0.2038429528474807
2.8499479980468756,0.1393644123528152,-0.6104078799627721,-1.5480658928245306,0.0997229740023613,-0.2160998731851577,-0.225020945072174
2.8599128417968736,0.1758422315310686,-0.5835559672638774,-1.5334540146261453,0.127472311258316,-0.2376376986503601,-0.2290223538875579
2.8698781738281234,0.2039401257030665,-0.5538977649725974,-1.4781921461313965,0.1227257549762725,-0.2452974915504455,-0.2301858961582183
2.879843017578125,0.1657811485048383,-0.4441461813993752,-1.4255746546655892,0.0950716510415077,-0.2354501485824585,-0.2283472269773483
2.8898081054687452,0.0712208504531532,-0.3450336268708109,-1.3903589643776415,0.0554288960993289,-0.2039851695299148,-0.2226062566041946
2.8997729492187503,0.0127156161230057,-0.2179829718418419,-1.3560183033585549,0.0148618733510375,-0.1507976651191711,-0.2168447822332382
2.909738037109374,-0.0681450962696224,0.0077020988099277,-1.3515139776766298,-0.0133844120427966,-0.0932779163122177,-0.2169262766838073
2.9197028808593757,-0.1033723308648914,0.2678267608106136,-1.3339350663661955,-0.0216699130833148,-0.0343849286437034,-0.2204120904207229
2.9296669921874994,-0.1080653840519487,0.4996512110002338,-1.265568801626563,-0.0002727466635406,0.0199566073715686,-0.2188046127557754
2.9396320800781233,-0.0529458466373383,0.7464261236928403,-1.1502934861958023,0.0559203550219535,0.0708708688616752,-0.208299770951271
2.9495969238281248,0.0783830702327191,0.9533139932855964,-1.032353335469961,0.1393372118473053,0.0941152051091194,-0.1929269284009933
2.9595622558593746,0.2537861796941608,1.0593911261297762,-0.8284721003472805,0.2599567472934723,0.1110621616244316,-0.169041022658348
2.9695268554687466,0.4819295302182436,1.1012206815995276,-0.5758633669346571,0.3905738890171051,0.1077553108334541,-0.1327645182609558
2.979491943359374,0.6982483682401478,1.0848362407706678,-0.2980032878875732,0.5067616701126099,0.0890344604849815,-0.0937185809016227
2.989457031249998,0.8852991723321377,1.0362846835695207,0.0173562084704637,0.5984697937965393,0.0676282420754432,-0.0614450611174106
2.9994218749999995,1.0065505664978176,0.9583515490613878,0.3072574384450912,0.6545779705047607,0.0436889939010143,-0.0272325091063976
3.0093862304687455,1.080439686312154,0.856014333397895,0.559624764317274,0.6643738746643066,0.0326091796159744,-0.0096966614946722
3.0193510742187506,1.1545653913613407,0.7458011236622929,0.7032008760809898,0.6465687155723572,0.0163244288414716,0.002046279143542
3.029315917968745,1.2059190734364091,0.634718437615782,0.8074193754464387,0.6028431057929993,0.0189854595810174,0.0167405363172292
3.039281005859376,1.324903910909593,0.4984671157822012,0.8537573482513428,0.5333343148231506,0.019396536052227,0.0425084941089153
3.049245849609374,1.4745213486641644,0.3443450600847602,0.826225782725215,0.4636058509349823,0.0307474620640277,0.0695960372686386
3.0592111816406238,1.558648661637306,0.2350691311992704,0.8068547273010015,0.3894605040550232,0.0381901450455188,0.106378823518753
3.0691760253906253,1.5795564251095056,0.188257257272303,0.7885790658980607,0.3149647116661072,0.0453417971730232,0.1356847882270813
3.079141113281249,1.5409844101309775,0.2005782480545342,0.787441001778841,0.227782666683197,0.0433475151658058,0.1546118706464767
3.0891047363281245,1.472369723588228,0.2643621534399688,0.7414899824649095,0.1330787986516952,0.0436034426093101,0.1553136110305786
3.0990698242187484,1.4252669038906691,0.3067272770911455,0.7042074227750301,0.0343490317463874,0.0471728257834911,0.1601957231760025
3.1090351562499983,1.3591370199009776,0.3500101001091301,0.6931254722684621,-0.0647096410393714,0.0622854642570018,0.1682280749082565
3.1189999999999998,1.293571491795778,0.4438118348784744,0.6482575720161199,-0.1636225283145904,0.0804122760891914,0.1855724304914474
3.1289650878906237,1.2520889961980282,0.5241676664888858,0.6083247900784016,-0.2381404340267181,0.1204201504588127,0.2107374370098114
3.138929931640625,1.2415616108343004,0.553757625849545,0.5568079533308744,-0.2878189086914062,0.163029134273529,0.2500366568565368
3.148895263671875,1.2388697414018213,0.5586036045759916,0.4687637591749429,-0.3079292178153991,0.2024689465761184,0.2975253462791443
3.158859863281254,1.2853513604611158,0.5825372917406261,0.4787713584482669,-0.2991222739219665,0.2299442887306213,0.3476257920265198
3.1688239746093743,1.2634905340477824,0.5879268758244812,0.4477501972407102,-0.2688964605331421,0.2471965104341507,0.396953135728836
3.178789062499998,1.2245994431827216,0.5843146766766906,0.4917594348371029,-0.2290704846382141,0.2416335791349411,0.4380843341350555
3.1887539062499997,1.1940845509968698,0.5600504423834383,0.5115589448064566,-0.1821692883968353,0.2150118201971054,0.4721376299858093
3.1987192382812495,1.1579741038262843,0.4638235262937843,0.6036094519942998,-0.1390878409147262,0.1864781230688095,0.4981798827648163
3.208683837890625,1.1128830623425543,0.333665406768769,0.6355068115144967,-0.097070887684822,0.1516335904598236,0.5175884962081909
3.218648925781249,1.0533026730615644,0.1473908477462828,0.6766115598410367,-0.0589865148067474,0.1331673711538314,0.5426341891288757
3.228613769531254,0.9827797417446972,-0.0525160769179463,0.8017366536349058,-0.0417332202196121,0.1347543448209762,0.5687576532363892
3.238577880859374,0.8858806985471397,-0.2501250999033451,0.9293278452813624,-0.0464277155697345,0.1692065894603729,0.5936592817306519
3.248543212890624,0.7937988463729619,-0.4116289364151656,1.0095353544622658,-0.0712254717946052,0.2212729901075363,0.6223127841949463
3.2585080566406255,0.7247749214421957,-0.544356906428188,1.060401618346572,-0.1128245890140533,0.297120600938797,0.6625112891197205
3.2684729003906234,0.6764978703334927,-0.6225120131239295,0.9828677122890948,-0.1517155319452285,0.357337087392807,0.7026296854019165
3.278437744140625,0.596843026599288,-0.6282043795466423,0.7868716774582862,-0.1621628552675247,0.3853023648262024,0.7300192713737488
3.2884030761718748,0.4659967056144029,-0.6278128960110246,0.5419470688074827,-0.1402602195739746,0.3814279735088348,0.7419536709785461
3.2983725585937513,0.2899691075790673,-0.6271902340680361,0.3085527389526367,-0.0935247913002967,0.3623677790164947,0.740388810634613
3.3083376464843752,0.0818401518840342,-0.6349630600266158,0.1559124462455511,-0.0321077704429626,0.3456423282623291,0.7229975461959839
3.318301513671873,-0.110836675396189,-0.6372152228675783,0.0285948108434677,0.0315367206931114,0.3117317855358124,0.6914936900138855
3.3282663574218745,-0.3157003456849604,-0.6464654279023409,-0.0660977352857589,0.0946784019470214,0.2822260856628418,0.6480783224105835
3.3382316894531243,-0.4499024068385362,-0.683176032923162,-0.1408481481045484,0.1560521721839904,0.2531659007072449,0.5983437895774841
3.348196533203126,-0.5630274854328483,-0.7353725224979222,-0.2033300309807062,0.2109479159116745,0.2326382249593734,0.5438117980957031
3.358161621093746,-0.6292066153917462,-0.776397191325575,-0.2549532507121563,0.2667622864246368,0.2005420923233032,0.4872263073921203
3.3681264648437512,-0.6922339302562177,-0.8200855264045298,-0.3016127105563879,0.3136504292488098,0.171434536576271,0.4274663031101227
3.3780917968749975,-0.728138479591161,-0.8925487050689757,-0.3479191191792488,0.3403544723987579,0.1422677040100097,0.3628838360309601
3.388056396484373,-0.7809899990085512,-0.9469421201661228,-0.3633259471476078,0.3553574085235595,0.1273713111877441,0.3019070625305176
3.398020507812504,-0.8035026403941213,-0.9804641582787036,-0.3280009512662887,0.3521551191806793,0.1221095323562622,0.2460408508777618
3.407985595703124,-0.825729888967052,-0.978174878297746,-0.3493184645831584,0.3205873370170593,0.1226062104105949,0.192340612411499
3.4179504394531257,-0.8167967870574444,-0.9585646072901784,-0.3513584459781647,0.291172444820404,0.1348970234394073,0.148124948143959
3.4279157714843755,-0.802824960328266,-0.9228057500362395,-0.3586819207340478,0.2553710341453552,0.14532570540905,0.1087272018194198
3.437880371093751,-0.7958774792779236,-0.8271461124405264,-0.3858049054592847,0.2192235440015792,0.1410755515098571,0.0760400965809822
3.447845458984375,-0.8195788920566439,-0.7295879477471113,-0.4016968865960836,0.2007390707731247,0.1323845982551574,0.0460249409079551
3.457810302734373,-0.8828386274375021,-0.5875038281068206,-0.3439765190333128,0.1858729124069214,0.1238865107297897,0.0149783380329608
3.4677756347656263,-0.9660742522679268,-0.4584145068570971,-0.2951215949714184,0.1644485741853714,0.1073362976312637,-0.0099001135677099
3.4777397460937465,-1.028365361812338,-0.3185379802636802,-0.2189730057924985,0.1417407244443893,0.0927344039082527,-0.0409488528966903
3.487704589843748,-1.0231643591031432,-0.2257676343686878,-0.1363145963281393,0.1248373687267303,0.07613305747509,-0.06246879696846
3.497669433593746,-0.9892132088582962,-0.2298803303845226,-0.1546516325294971,0.118343785405159,0.0597779937088489,-0.076934278011322
3.507634277343751,-0.8989588643722236,-0.2358171730875969,-0.1549865635722875,0.1323807835578918,0.0310488790273666,-0.0825279802083969
3.5175996093749973,-0.7846096508104353,-0.2245087203487753,-0.1876198361515998,0.1487779915332794,-0.0169402156025171,-0.0976177230477333
3.5275644531249988,-0.6831402309574186,-0.1680348457157612,-0.2245160268723964,0.1769787371158599,-0.0699296668171882,-0.1175914257764816
3.5375295410156262,-0.5853591442283242,-0.1260134209357202,-0.2314110470831394,0.2147933542728424,-0.1406626403331756,-0.125983327627182
3.54749462890625,-0.4690565681090578,-0.1402003517203033,-0.2644756968170404,0.2488168478012085,-0.220825120806694,-0.1269833445549011
3.5574582519531255,-0.3447384067839011,-0.199204037091881,-0.1977776575505733,0.256545752286911,-0.3074608445167541,-0.1314784884452819
3.5674235839843753,-0.2302432819453999,-0.3072363956570625,-0.1104582705378532,0.2367360740900039,-0.3825893998146057,-0.1341144889593124
3.5773884277343733,-0.2189873265787959,-0.3795395614542067,-0.0247211842805147,0.1741537898778915,-0.4507690966129303,-0.1488769203424453
3.587353515624997,-0.3177097127459943,-0.4268436028122901,0.0254962603062391,0.0849930197000503,-0.486587256193161,-0.1674790978431701
3.5973186035156246,-0.3505613773163408,-0.4393526635125279,0.1383393801540136,-0.0334205776453018,-0.4988494515419006,-0.2012607604265213
3.607283691406252,-0.458357296777144,-0.3078536507725715,0.1944464673012494,-0.1703704446554184,-0.5108826756477356,-0.232901245355606
3.617248779296876,-0.6365543478060514,-0.0485958347342908,0.2147229471325874,-0.3258103430271148,-0.5250421166419983,-0.2677620053291321
3.6272133789062515,-0.874071018287912,0.2986713964074849,0.2833323729783296,-0.4872618019580841,-0.5119093060493469,-0.3064928948879242
3.637177490234375,-1.154956728766486,0.6674651074416935,0.255190566599369,-0.6403750777244568,-0.4887119233608246,-0.3520097732543945
3.647142578124999,-1.4618513983137904,1.0290354430936277,0.0789887810409069,-0.7551471590995789,-0.4400975108146667,-0.4003802537918091
3.657107666015623,-1.6540075627207755,1.2624853025279938,-0.0703103845447301,-0.8111383318901062,-0.3804759085178375,-0.4450500011444092
3.667072753906254,-1.6891734225176274,1.4583577109791337,-0.2798170583337545,-0.7995301485061646,-0.3003754913806915,-0.4868664443492889
3.677037597656252,-1.6437962575688958,1.5950620372772215,-0.464336005860567,-0.7030972838401794,-0.2099658250808715,-0.4953190088272095
3.68700244140625,-1.5135815855510533,1.5938219740882515,-0.5850660795658826,-0.5299209952354431,-0.1294587254524231,-0.4785522818565368
3.6969675292968738,-1.3521826707184317,1.5582381811402737,-0.6770043585509061,-0.3209227919578552,-0.0986977666616439,-0.4488753378391266
3.7069316406249975,-1.1510163205776365,1.435881236885488,-0.6514028843045234,-0.1110680997371673,-0.1085258945822715,-0.4236906170845032
3.716896728515625,-0.9985841907285152,1.2408584310010076,-0.3953045552104711,0.0629219412803649,-0.1601138710975647,-0.4150398671627044
3.7268615722656264,-0.8488660690784454,0.9346789970509708,-0.0390372944027185,0.1755715161561966,-0.2205332815647125,-0.4444046914577484
3.736826660156254,-0.7309118167620152,0.6440586590215563,0.3364741805791855,0.2132766991853714,-0.2802805006504059,-0.4883524477481842
3.746791503906252,-0.5988027092996985,0.3039176264978945,0.7007645888447761,0.1933879405260086,-0.3173775374889374,-0.5235876441001892
3.7567565917968757,-0.504328920487687,-0.0112630061618983,0.9426906002014876,0.0987212359905242,-0.356873095035553,-0.5410151481628418
3.7667214355468737,-0.4512365049865096,-0.2077510622933507,1.1654694280177351,-0.0539343506097793,-0.3753759264945984,-0.5583789348602295
3.776686523437501,-0.5044456056699157,-0.2887222493231296,1.345879771181941,-0.2588439881801605,-0.3791310787200928,-0.5797255039215088
3.786651367187499,-0.6635190732296555,-0.2924006455749273,1.3538345295786858,-0.4706084430217743,-0.3574249744415283,-0.5995197296142578
3.7966154785156263,-0.7908877081666141,-0.2566178229235112,1.2475818940371275,-0.6480376720428467,-0.3157324194908142,-0.6236538290977478
3.80658056640625,-0.9224006033014506,-0.1504075652189552,1.0060796610504388,-0.778468668460846,-0.2660572826862335,-0.6427177786827087
3.8165454101562517,-0.9842579976037144,-0.0015359773956239,0.8320026125609874,-0.8485212326049805,-0.193012923002243,-0.6568309664726257
3.8265104980468756,-0.951781303825602,0.1252925593152642,0.6660241148531436,-0.8674877285957336,-0.1549206674098968,-0.6730099320411682
3.8364753417968736,-0.9115328070022164,0.2749301630750298,0.3244149094730615,-0.8285322189331055,-0.1442729234695434,-0.6908416152000427
3.8464406738281234,-0.847299404283613,0.3682181031033396,0.2195423301130533,-0.743472695350647,-0.1301736086606979,-0.696800708770752
3.856405517578125,-0.7416168237149715,0.3338582989923656,0.0451630838066339,-0.6167140603065491,-0.1284212470054626,-0.6903505325317383
3.866369384765626,-0.6750928258411586,0.349813554623723,-0.0325537776023149,-0.4648276269435882,-0.1371383070945739,-0.671323299407959
3.87633447265625,-0.5790408279269933,0.2229864792175591,-0.0217670106500387,-0.3092730641365051,-0.1413896828889846,-0.6529187560081482
3.8862993164062516,-0.4958749073319137,0.1002146705515682,0.1042851348608732,-0.1866371482610702,-0.150553360581398,-0.6331535577774048
3.8962646484375014,-0.4085169418744742,-0.0324606924913823,0.2392722819775342,-0.0982725471258163,-0.1855859011411667,-0.6342100501060486
3.9062294921874994,-0.3173996238835155,-0.1856704556494951,0.4078934031486511,-0.0349596217274665,-0.2448185980319976,-0.6586485505104065
3.9161945800781233,-0.2557027539052069,-0.3723915893957019,0.4825426936805247,0.0098266350105404,-0.3106214106082916,-0.6899263262748718
3.9261594238281248,-0.1943890380255878,-0.5716388811074197,0.6436199753433466,0.0364151000976562,-0.3606821894645691,-0.7178311944007874
3.936124511718745,-0.1562877092987299,-0.7442243758648633,0.7890928606390952,0.0352405272424221,-0.3867908716201782,-0.737372100353241
3.946088623046876,-0.1359555537573993,-0.8801751073166727,0.9415320778161288,0.0068459035828709,-0.3891957104206085,-0.7489747405052185
3.956053466796874,-0.135934657099843,-0.9944912223264576,1.033802949756384,-0.0417685210704803,-0.3726907670497894,-0.7578989863395691
3.9660185546875013,-0.1434919406116008,-1.0368807497665284,1.0978542739063502,-0.1002195850014686,-0.3591046333312988,-0.7634748220443726
3.975983642578125,-0.1821814444899558,-1.0366671070158482,1.0523065746963025,-0.1669470816850662,-0.3347791135311126,-0.7742757797241211
3.985948486328123,-0.1937380267709493,-1.0226602089732886,1.046786934491992,-0.2204009890556335,-0.2958684861660003,-0.7879524827003479
3.9959135742187506,-0.2188032021835446,-1.0102040475040674,0.9463397703588008,-0.2643926739692688,-0.2616577446460724,-0.7969291806221008
4.005878417968745,-0.2117607363261282,-1.0278545627459883,0.8451222063750028,-0.291464239358902,-0.2125855684280395,-0.7970839142799377
4.015843505859376,-0.1553413683593273,-1.0579470648013054,0.7511620661735534,-0.3216824531555176,-0.1581852734088897,-0.7995670437812805
4.0258076171875,-0.101503833579272,-1.0076790590710938,0.5801870753526688,-0.3533793985843658,-0.1138569563627243,-0.8094851970672607
4.035772705078124,-0.015655688162893,-0.9627928925096988,0.3969032225787639,-0.3671004176139831,-0.0612586215138435,-0.8163215517997742
4.045737548828125,0.1066622392557561,-0.9273618059054016,0.1433972480654716,-0.3579034507274627,-0.0267243478447198,-0.8022952079772949
4.055702392578123,0.2678375744655728,-0.9012819004923104,-0.0974894833713769,-0.3191436529159546,-0.0145434755831956,-0.7722086906433105
4.0656674804687505,0.4440526578970253,-0.92659535157755,-0.280858676341176,-0.2731482088565826,-0.0152185857295989,-0.7255716323852539
4.075632568359374,0.5620163356289267,-1.0107887155242263,-0.4980874688148498,-0.2256073355674743,-0.0255448315292596,-0.6713451743125916
4.085597656249998,0.6255474352970719,-1.0946448103405535,-0.6151899996727704,-0.1799138784408569,-0.0315643735229969,-0.6013383865356445
4.0955615234375,0.630966099344939,-1.1402692280486226,-0.7465127790629863,-0.1366020888090133,-0.0245084911584854,-0.536597728729248
4.105526367187501,0.6445853132441639,-1.1891213756315409,-0.8721879079550504,-0.0981345921754837,-0.0213350672274827,-0.4750771224498749
4.115491455078125,0.6203240015603602,-1.2297896322369577,-1.031894485786557,-0.0580866336822509,-0.0236814245581626,-0.4110818803310394
4.125456542968745,0.5427709524109959,-1.176004996687919,-1.1822060432851311,-0.0187999457120895,-0.0360552705824375,-0.3594655692577362
4.135421630859376,0.4795065408550202,-1.1107219387859106,-1.3085901972293852,0.0210658609867095,-0.0387418828904628,-0.326080709695816
4.145386474609374,0.4815782325625419,-1.1288798190280795,-1.4455647187709808,0.0655334666371345,-0.0379317477345466,-0.2914955615997314
4.155351562499998,0.5176290585003793,-1.1752077088303865,-1.6183172406584023,0.1101235300302505,-0.0427257865667343,-0.2603821456432342
4.16531640625,0.5336396975807846,-1.1427883712626994,-1.722019607195258,0.1506882607936859,-0.0487812831997871,-0.2291339486837387
4.175280517578123,0.4492578253246843,-1.0670577152349054,-1.7457511959165333,0.1801660060882568,-0.0506974309682846,-0.2105325609445572
4.185245605468751,0.3783965288989245,-0.9361838486559688,-1.7513959238052368,0.1941286921501159,-0.0398354604840278,-0.2009997814893722
4.195210449218745,0.3541957152307033,-0.857700386788696,-1.765865763184428,0.2024018168449401,-0.0038342734333127,-0.2016612887382507
4.205175537109376,0.4046395159192383,-0.8108427740238606,-1.7887766831725835,0.2229891121387481,0.0470009408891201,-0.206213429570198
4.215140625,0.5410141718715429,-0.7203646307192743,-1.8065946639359,0.2582103610038757,0.0876871198415756,-0.2078835070133209
4.225105468749998,0.7818735769100487,-0.6875739756211638,-1.8161346456974743,0.2977391183376312,0.1032570302486419,-0.1995856165885925
4.2350705566406255,1.0428978180989623,-0.6965335271462798,-1.8106266959309576,0.3454178273677826,0.0883010402321815,-0.1805741339921951
4.245034423828123,1.2672155459202823,-0.6791955849848688,-1.73091193870306,0.3930391371250152,0.0479136742651462,-0.1770041584968567
4.254999511718751,1.3902705554418264,-0.5958915710933507,-1.6568664592832325,0.4214082062244415,-0.0203298348933458,-0.1882709264755249
4.264964599609375,1.4544504744075235,-0.5229078756861388,-1.4821096118360757,0.4224769175052643,-0.0877046138048172,-0.1937109678983688
4.2749296874999985,1.3869029787048697,-0.3873097570642829,-1.2562433393985033,0.3779763281345367,-0.1533981561660766,-0.1952950060367584
4.28489453125,1.232659780845791,-0.1448591373115778,-0.966330418986082,0.2753239870071411,-0.174780398607254,-0.189026728272438
4.294858398437501,1.0666485499121248,0.1460331495270133,-0.7131412553369999,0.1436174511909485,-0.1610241085290908,-0.1766169220209121
4.304823730468751,0.8947218113243579,0.4483705210961401,-0.5820592989653348,0.0407089218497276,-0.0823037326335907,-0.1458417028188705
4.3147885742187455,0.8151607833534479,0.6620077188186347,-0.4891320089429616,-0.006912138313055,0.0306544713675975,-0.101654015481472
4.324752441406254,0.8105893837846815,0.9118953567042948,-0.4794242693990468,-0.0076037612743675,0.1403500735759735,-0.0437971055507659
4.334717529296874,0.9076821229234338,1.1344152413234114,-0.4388584502547979,0.0399661511182785,0.2459467947483062,0.0284954663366079
4.344682373046876,1.055185783394426,1.2809974030353128,-0.3432680785030126,0.123902603983879,0.3315847516059875,0.1082062721252441
4.354647705078126,1.2032082070425152,1.338778560874611,-0.2927057660013437,0.2126456648111343,0.367471843957901,0.1899099349975586
4.3646125488281236,1.3650921289131044,1.412472450377792,-0.1758726997345686,0.2913870811462402,0.3543107807636261,0.2534154057502746
4.374577636718751,1.4897171642303466,1.442716051341593,-0.1328004507273435,0.3605667054653168,0.2975509464740753,0.3048032224178314
4.384542724609375,1.6097085483975708,1.4227623737238346,-0.0378442852258682,0.4301721453666687,0.2576354742050171,0.3372282981872558
4.394507812499999,1.6982219675004482,1.3407384627707302,0.068096800148487,0.4769534468650818,0.1968766897916793,0.3666513860225677
4.4044716796875,1.767825518950075,1.274938395257294,0.0738110861420631,0.5071611404418945,0.1480441689491272,0.40208899974823
4.414436523437498,1.8639751320198177,1.1863356904357671,0.2025344966888427,0.5099408626556396,0.11878652125597,0.4402531683444977
4.4244016113281255,1.898498456129432,1.107002041479945,0.2622223649322986,0.494498997926712,0.1011470705270767,0.4931464791297912
4.434366699218746,1.8986609532147645,1.0759146831683817,0.4052145393282175,0.4612461626529693,0.1136272698640823,0.5542439818382263
4.444331787109373,1.8405998093903064,1.0510191652342675,0.4249176031857729,0.4072180986404419,0.1303005218505859,0.6252118945121765
4.454296630859375,1.740014990352094,1.0450544116109608,0.5057867911458015,0.3479149341583252,0.1748495101928711,0.6996344327926636
4.464261474609376,1.6034730150088667,1.0340718298256395,0.5843284129410982,0.2874164283275604,0.217104285955429,0.7709600329399109
4.4742255859375,1.4682234175637363,1.049879055288434,0.5642752204716205,0.2347974330186844,0.2513656914234161,0.8284310102462769
4.484190673828124,1.3163864040635525,1.0622836327008902,0.6117027420789003,0.1883766651153564,0.2778708040714264,0.8650804162025452
4.494155761718751,1.1732310749951749,1.0761752338007091,0.6493377684682607,0.1579733490943908,0.2884575128555298,0.879157304763794
4.504120849609375,1.076723442267999,1.08355891431123,0.6785621093869209,0.1380166858434677,0.285603404045105,0.8928470611572266
4.514085449218751,0.999831414310634,1.0678209546923636,0.766595782148838,0.1291528791189193,0.2882407009601593,0.9051255583763124
4.524050537109375,0.9455154483638704,1.006095004750043,0.8809516446471214,0.116004854440689,0.2888103425502777,0.9182610511779784
4.5340156249999986,0.9197696702759712,0.9327440834656358,0.9927800344944,0.0963006690144538,0.3005326092243194,0.9277381896972656
4.543979736328126,0.8670615048520266,0.8405287411049008,1.0980535958707331,0.0709045007824897,0.3083671033382416,0.9340426921844482
4.553944824218746,0.8210055638588964,0.8020033417470753,1.149798396155238,0.038506343960762,0.3212688863277435,0.9370794892311096
4.563909667968751,0.7947956753905863,0.7343602767154574,1.175136835551262,0.0071052778512239,0.3325750529766083,0.9440915584564208
4.573874511718746,0.7616308532178402,0.6589005465835333,1.1630004075556992,-0.0168880838900804,0.3452939391136169,0.9517084956169128
4.583839599609373,0.729053767805174,0.6306501652635633,1.1377326953083275,-0.0354423262178897,0.353654146194458,0.9574286937713624
4.5938046875000005,0.6681917412158102,0.6037916766934096,1.112543308994174,-0.0430841296911239,0.3626691997051239,0.9577067494392396
4.603769531249998,0.5894247862320393,0.5910676580682397,1.0859452249258756,-0.0460535585880279,0.3665518462657928,0.95558363199234
4.613734619140626,0.5161719184946268,0.5610303933314978,1.0432821412414313,-0.0355234034359455,0.3683590888977051,0.9541444778442384
4.623698486328124,0.4232150370515882,0.5359088115565479,1.0548749638795851,-0.0311568826436996,0.3739418685436249,0.9529367685317992
4.633663574218751,0.3375179905436933,0.4864785718247294,1.100045646470785,-0.0241320058703422,0.3877119719982147,0.944894790649414
4.643628662109375,0.2436752661768347,0.4385505533494055,1.0763076280087231,-0.0273027643561363,0.3805888295173645,0.94019216299057
4.6535935058593765,0.1698816426262259,0.4049326536469161,1.028316042777896,-0.0234084315598011,0.3701368868350982,0.926056146621704
4.66355859375,0.0918678440973162,0.2931995408676564,0.9601508535683154,-0.0043420642614364,0.3511490821838379,0.9141323566436768
4.673523681640624,0.0110693102207034,0.1847289370156824,0.8622112883418798,0.01550995092839,0.3138294517993927,0.8969008922576904
4.683488769531252,-0.0709177758533507,0.0829461403645575,0.7027344276130199,0.021868247538805,0.2530771493911743,0.8646404147148132
4.693452636718746,-0.1933963006611913,-0.0229258252963423,0.5592594381362199,0.0191387869417667,0.1943968385457992,0.8207462430000305
4.703417480468751,-0.3135753894202411,-0.1404755153998732,0.3794657655656338,0.0108310561627149,0.1373782902956009,0.7702297568321228
4.713382568359375,-0.4692199785098433,-0.2340614154614508,0.1728565667837858,0.0039359722286462,0.0951835662126541,0.7215266823768616
4.723347656249999,-0.634236718513444,-0.273697114148736,0.0019540566772222,-0.0040372656658291,0.0664147660136222,0.66380375623703
4.733312744140626,-0.8111993323765695,-0.3140394998006522,-0.2374094107151031,-0.0116280736401677,0.0433592423796653,0.5971312522888184
4.743277587890624,-0.9738469320960342,-0.3622508652620017,-0.4074930056542158,-0.0203754920512437,0.0334693305194377,0.5302736163139343
4.753242431640626,-1.0952422647770494,-0.3682001290552318,-0.561862898632884,-0.0340219251811504,0.0249818861484527,0.4598553776741028
4.763206542968746,-1.1975097031399606,-0.3514814878359437,-0.6752841106295585,-0.0613496862351894,0.0242497827857732,0.3873404264450073
4.773171630859373,-1.2974747828446327,-0.3012332097195088,-0.773188604542613,-0.0897495076060295,0.0319822132587432,0.3232685029506683
4.783136718749997,-1.3862690647155045,-0.2212966264344751,-0.8484113110482692,-0.1057527065277099,0.041335504502058,0.2646294236183166
4.793101562499999,-1.4284990176796912,-0.1340147949531674,-0.9180325442850588,-0.1047078147530555,0.0698303133249282,0.2055764943361282
4.803066650390626,-1.4202946684360502,-0.0813378283850848,-1.0085808302164077,-0.0717413425445556,0.0889363661408424,0.1535431146621704
4.813031494140624,-1.3231170274928212,-0.0335978798277676,-1.0438953047037125,-0.0256707780063152,0.1033804416656494,0.1114880889654159
4.822996582031255,-1.162939325018227,-0.0856650439344346,-1.1400164223313332,0.0256464704871177,0.0652290657162666,0.0720927417278289
4.832961669921875,-1.017180754648894,-0.1665128968454897,-1.1309364592969418,0.0821104124188423,0.0125961611047387,0.0293777734041214
4.842925537109373,-0.905834960686788,-0.2429549160130321,-1.0003326418310403,0.114778347313404,-0.0479611940681934,-0.0125414468348026
4.852890624999997,-0.8198764867637306,-0.3416612278282642,-0.8485527653455733,0.1195364817976951,-0.1146416291594505,-0.0592620894312858
4.8628557128906245,-0.7763157966524362,-0.4521146760605275,-0.6575093844860792,0.1057032197713851,-0.1655343770980835,-0.0961205065250396
4.872820556640626,-0.7732371929246932,-0.5398151713453233,-0.42971594337821,0.053840696811676,-0.1912184357643127,-0.1355805546045303
4.88278564453125,-0.7892644908789545,-0.5906967789292336,-0.2944593316704034,-0.0218857564032077,-0.2158915549516677,-0.1831653863191604
4.892750488281255,-0.7526249783329665,-0.6907168036915361,-0.2752384983718395,-0.1097879335284233,-0.2254798263311386,-0.2266470938920974
4.902715820312501,-0.7246226534899324,-0.7749773876555264,-0.2892740379869937,-0.1972778290510177,-0.2391487658023834,-0.265178769826889
4.912679687499999,-0.8111976518761366,-0.6088970370084047,-0.3342991746276617,-0.3017053008079529,-0.2783730924129486,-0.3156800270080566
4.9226445312500005,-0.9775088886696844,-0.2823560752920806,-0.3660591715037822,-0.4152944386005401,-0.3080321848392486,-0.3719896376132965
4.932609619140624,-1.1971182926695794,0.0895608823291957,-0.4093190520375966,-0.5220146179199219,-0.3327139914035797,-0.4225931763648987
4.942574462890626,-1.4047680134803056,0.419044327238202,-0.5330711039125919,-0.5953159928321838,-0.3091306388378143,-0.4656476974487304
4.952539794921876,-1.5398454692289232,0.6530366229861975,-0.5876946745038032,-0.6317580342292786,-0.2582458257675171,-0.4968855082988739
4.962504638671874,-1.5759791511446235,0.9454336152993142,-0.7030050612479448,-0.6250133514404297,-0.1843300461769104,-0.5139374136924744
4.972469726562501,-1.5381810431480407,1.1863690081834792,-0.7877525519460439,-0.5624710917472839,-0.1000073477625846,-0.5044344663619995
4.982433593749999,-1.4082999869987367,1.3462865984171628,-0.7955144181191921,-0.4453040063381195,-0.0146471746265888,-0.4629360735416412
