time,ax,ay,az,gx,gy,gz
0.0,-0.5219577353544533,-0.3920812092497944,-0.5087503171265125,-0.3075273633003235,0.150167167186737,0.6260475516319275
0.009965087890620339,-0.6480042548421769,-0.4786830956429243,-0.769188136729598,-0.3293439745903015,0.100804403424263,0.5641821026802063
0.019929687499995907,-0.7762862052317708,-0.5352610151723027,-1.0357505766928194,-0.3483935296535492,0.0738310068845748,0.5031797289848328
0.029895019531252842,-0.9519002540301532,-0.5594438547924161,-1.2141297062903642,-0.3609343469142914,0.0661091729998588,0.4587129354476928
0.03986010742187318,-1.0775148118413984,-0.5113514395356178,-1.3990028740823268,-0.3624476790428161,0.074150338768959,0.4207988381385803
0.049824951171871135,-1.1806366020113228,-0.4481444572553038,-1.5710890410155056,-0.3509023785591125,0.098441831767559,0.4013851881027221
0.059790039062505684,-1.2712526924818754,-0.3494835920169949,-1.6646563825070857,-0.3094862401485443,0.1424697786569595,0.3899857997894287
0.0697536621093775,-1.335308546676487,-0.3057330053567886,-1.759075372391939,-0.2340119928121566,0.1758722066879272,0.380848228931427
0.07971899414062023,-1.345224814404547,-0.3225476542964577,-1.8272884923964736,-0.1296050399541854,0.2037625908851623,0.3676336407661438
0.08968408203125477,-1.2995305463306606,-0.3902186302483081,-1.7773200541347265,-0.0093883574008941,0.2096673548221588,0.3373385667800903
0.09964892578125273,-1.243212154520303,-0.44094343983531,-1.7080986338704824,0.0963960960507392,0.1704282611608505,0.3018112182617187
0.10961401367187307,-1.1559236010372638,-0.5227914096996188,-1.5863970847845077,0.1764856129884719,0.1020492166280746,0.2785498201847076
0.11957910156250762,-1.0713660068880766,-0.700222152531147,-1.3581781117409466,0.2298881113529205,0.0325825214385986,0.2677717506885528
0.12954418945312796,-1.0140369036652148,-0.8323238073393702,-1.2190695007801056,0.2659550607204437,-0.0325072668492794,0.2656161785125732
0.13950878906250352,-0.9477887270580976,-1.0301233844608069,-1.136064469835162,0.2862451672554016,-0.1024154797196388,0.2524654865264892
0.14947387695312386,-0.9446998211320488,-1.19363198492378,-1.102015485239029,0.2902822494506836,-0.1827223002910614,0.2246322482824325
0.1594389648437442,-0.9678364396348595,-1.42744775506109,-1.142010226497054,0.2767322361469269,-0.2532438933849334,0.1817092895507812
0.16940405273437875,-0.9484477024234832,-1.668128442531824,-1.1388742665588856,0.2308270335197448,-0.3079457283020019,0.1205183714628219
0.1793688964843767,-1.0411966402042656,-1.655692739328742,-1.1307926669120787,0.1411843448877334,-0.3761791288852691,0.0416919961571693
0.1893330078125075,-1.374356508603692,-1.4007637462750075,-1.1689607772648334,-0.0020047728903591,-0.470965564250946,-0.0596407540142536
0.19929785156250546,-1.7937874970719216,-0.9216928203582764,-1.2064116792589423,-0.2112083882093429,-0.559154748916626,-0.194280594587326
0.2092629394531258,-2.2255678256340325,-0.3454784480288624,-1.3117419392585754,-0.4445337951183319,-0.5897477865219116,-0.3472591936588287
0.21922802734374613,-2.6986136460423467,0.1242065176442265,-1.4250468313992022,-0.6323047876358032,-0.5313870906829834,-0.481654018163681
0.2291928710937441,-2.9606711758017537,0.5800412371411919,-1.538205008545518,-0.7526293396949768,-0.3933447897434234,-0.5999212861061096
0.23915795898437864,-2.953424857935309,1.0377838360860945,-1.6822101593762635,-0.7698869109153748,-0.1513198018074035,-0.6737662553787231
0.24912304687499898,-2.8273744659900664,1.398060624796152,-1.6478718364447351,-0.6629473567008972,0.1339247226715088,-0.6708367466926575
0.2590881347656193,-2.3942475451245904,1.5999530241891742,-1.7028420285165309,-0.4659258127212524,0.3648919761180877,-0.6096314787864685
0.2690529785156315,-1.893905721511692,1.7790537460595368,-1.6124100624412296,-0.2045543640851974,0.4994868040084839,-0.5226116180419922
0.27901782226562943,-1.4590774035558105,1.827125703050196,-1.4067700009524822,0.0997674167156219,0.5104278922080994,-0.4156436026096344
0.2889829101562498,-1.1374878537017852,1.7306141248002649,-1.0249310765147208,0.3992161750793457,0.4386466443538666,-0.3102873265743255
0.2989479980468701,-0.9000370149977505,1.6563459425404667,-0.5496393768757581,0.6667585372924805,0.2754645049571991,-0.2461648136377334
0.3089121093750009,-0.7995249689348042,1.601905619561672,-0.1478828690469265,0.9009776711463928,0.0666444599628448,-0.2361588031053543
0.31887719726562125,-0.9151308314941824,1.4921350390270351,0.4343547090947627,1.0702823400497437,-0.1005445271730423,-0.2509166896343231
0.3288417968749968,-1.017949839325249,1.3577666083306072,0.9639648588985203,1.157757043838501,-0.2482903003692627,-0.2790031731128692
0.33880688476563137,-1.0831197922416032,1.2636910250559448,1.3360738319605587,1.16676664352417,-0.379756212234497,-0.3329404592514038
0.3487719726562517,-1.177025352711603,1.2093842653289435,1.6712714167326688,1.1226619482040403,-0.4715585708618164,-0.3984696567058563
0.35873730468749443,-1.2340933207802474,1.0635016301885247,1.9081430673092603,1.0370681285858154,-0.5329659581184387,-0.4440608620643616
0.3687021484375066,-1.2179296830952169,0.9224681886449456,2.0855834547519683,0.9109283685684204,-0.5589046478271484,-0.4812598824501037
0.3786674804687493,-1.195127776439488,0.8476105160593986,2.2172096010029314,0.7649531364440918,-0.5525718331336975,-0.5037904977798462
0.38863232421874727,-1.21955282731764,0.8169713399067521,2.2905028007507324,0.6159926652908325,-0.5269596576690674,-0.5234073400497437
0.3985974121093818,-1.2081498281631615,0.8383210019275545,2.303988889789581,0.4586342275142669,-0.4922516047954559,-0.5626943111419678
0.4085620117187574,-1.2257117883387951,0.8773758319869637,2.28754161285758,0.3164480626583099,-0.4544496238231659,-0.607206404209137
0.418526123046874,-1.243254093965888,0.902782368183136,2.364309210717678,0.1802038103342056,-0.3951321840286255,-0.6545483469963074
0.4284914550781309,-1.178743335610628,0.932620457085967,2.40768541110754,0.0519014932215213,-0.327247142791748,-0.6969141960144043
0.43845629882812887,-1.058848397555202,0.9378189025118948,2.422519407624006,-0.0642106533050537,-0.2684658467769623,-0.735126256942749
0.4484213867187492,-0.9248539147377014,0.9226581582590936,2.4242010771006344,-0.1721618920564651,-0.2221891582012176,-0.7797366380691528
0.4583859863281248,-0.7764161882869899,0.9024068128690124,2.434622517871857,-0.2596711814403534,-0.1871295720338821,-0.8168174028396606
0.4683513183593817,-0.5373755961734801,0.8222688617929815,2.404488660892844,-0.3190862834453583,-0.1832413524389267,-0.8426111936569214
0.47831616210937966,-0.2830343033472076,0.7142334344878792,2.2905010471850638,-0.3561358153820038,-0.2255192995071411,-0.8537150025367737
0.48828125,-0.0627423239106312,0.6163482297971844,2.2332547268748284,-0.3833722174167633,-0.2910722196102142,-0.8579347729682922
0.49824633789062034,0.1068846498347818,0.5208192328438163,2.227760805633664,-0.4043278396129608,-0.3609391748905182,-0.8569706678390503
0.5082114257812549,0.2341845669170841,0.4414528506621718,2.187480817693472,-0.4355280995368957,-0.4513076841831207,-0.849736213684082
0.5181765136718752,0.3388484719624742,0.3652680211260914,2.123866715916991,-0.4718492031097412,-0.5468747019767761,-0.8373621106147766
0.528140136718747,0.3927765711028129,0.2836202500090002,2.082691240441799,-0.5109489560127258,-0.6364104747772217,-0.8135569095611572
0.5381052246093816,0.3700970121851191,0.1743435904711484,1.9574048186063768,-0.5559647679328918,-0.7033816576004028,-0.7874046564102173
0.5480703125000019,0.3043958019362762,0.0482072738081216,1.8920692998647688,-0.5906633734703064,-0.724658727645874,-0.7644804120063782
0.5580354003906223,0.2345975681647658,-0.0711193628400564,1.781063916838169,-0.6255215406417847,-0.7307824492454529,-0.7416208982467651
0.5680004882812568,0.2037909995559602,-0.2120563582718372,1.6667150686025618,-0.6605085134506226,-0.7168602347373962,-0.7143086194992065
0.5779653320312548,0.1959307875748723,-0.3290285407483577,1.520358386209607,-0.6852607727050781,-0.7007091045379639,-0.6945034861564636
0.5879301757812527,0.2127165757462382,-0.4490244549602269,1.3385627261668442,-0.6838738322257996,-0.6714971661567688,-0.6830723881721497
0.5978952636718731,0.254605533253029,-0.5923474687457084,1.137897530481219,-0.6627902388572693,-0.6382628679275513,-0.6735473275184631
0.6078603515625076,0.2932134963277727,-0.6758607414737343,0.9906856925636528,-0.6259142756462097,-0.5950783491134644,-0.6642473340034485
0.6178251953125056,0.3860773657251149,-0.7881725309237837,0.8870809411823749,-0.5798004269599915,-0.5609819293022156,-0.6408826112747192
0.6277902832031259,0.5694064458802343,-0.9315560427248476,0.7351578568339348,-0.5412152409553528,-0.5371178388595581,-0.6071672439575195
0.6377543945312567,0.7455382349424063,-1.0715583876550197,0.6163789171963929,-0.4872480928897857,-0.5361676216125488,-0.5551320314407349
0.6477192382812547,0.8707242651432752,-1.2255705532371997,0.3973731781780719,-0.4351524114608764,-0.5611145496368408,-0.492448627948761
0.657684326171875,0.9055201225839554,-1.3421359084784985,0.1603407840818166,-0.3883757889270782,-0.6236243844032288,-0.4432483315467834
0.667649169921873,0.8350559357170015,-1.3330579912707208,-0.1373673202514648,-0.3681232333183288,-0.714245080947876,-0.4186577498912811
0.6776142578125075,0.6875473798751831,-1.3095678100898862,-0.4736977084457874,-0.3533371686935425,-0.8066497445106506,-0.4210018813610077
0.6875791015625055,0.5234196246005595,-1.3017699958205222,-0.8617728969246149,-0.3367997407913208,-0.8797186613082886,-0.4399894177913666
0.6975444335937482,0.3857579245124012,-1.184974631215632,-1.2379542339920997,-0.3281841278076172,-0.8969677686691284,-0.4629330635070801
0.7075092773437461,0.3427618094813078,-1.090140630789101,-1.4130372446537016,-0.3147514164447784,-0.8056255578994751,-0.4579260647296905
0.7174741210937441,0.4363007285960018,-1.074060725864768,-1.600177188333869,-0.2854647040367126,-0.6513973474502563,-0.4226551651954651
0.7274392089843786,0.6408773986369372,-1.0387366067662835,-1.97772689114511,-0.2344569265842437,-0.4839870631694793,-0.3619404137134552
0.737404296874999,0.836598708179593,-0.9887231603190302,-2.28312145832777,-0.164108008146286,-0.33820641040802,-0.2694597542285919
0.7473693847656193,0.9827490543454884,-0.93558047593534,-2.581474290305376,-0.0879312232136726,-0.2467079013586044,-0.1578003466129303
0.7573332519531277,1.0518030090883377,-0.9579945523172616,-2.7389842348754403,-0.0154044069349765,-0.1826409548521042,-0.055771704763174
0.7672983398437481,1.0326932349488138,-0.951121159416437,-2.8104718465059992,0.0406926870346069,-0.1382383406162262,-0.0036307424306869
0.777263183593746,0.99959643651098,-0.949200128225982,-2.924821863785386,0.082886055111885,-0.1180221512913703,-0.0085075236856937
0.7872282714843806,0.93331881461367,-0.9341679787889122,-3.0091414844602347,0.1092034131288528,-0.1004620641469955,-0.0369189232587814
0.7971933593750009,0.8829805201262235,-0.897479877860844,-3.020836598429084,0.1192419007420539,-0.0817291513085365,-0.0734700113534927
0.8071582031249989,0.9696033031769096,-0.9271157221898436,-2.996080342835188,0.1208195611834526,-0.0319866314530372,-0.0920298546552658
0.8171232910156192,1.1540588300786911,-0.9988967638090251,-2.974323269057274,0.1123900115489959,0.0381771475076675,-0.1034175232052803
0.8270883789062538,1.3349895438551902,-1.003160558733344,-3.1053070257514714,0.108296200633049,0.1045750752091407,-0.0948306918144226
0.8370534667968741,1.4169563177935778,-0.9461261276081204,-3.1660891189724203,0.078130193054676,0.1431680470705032,-0.071521371603012
0.8470180664062497,1.4272361581370234,-0.7331228438749909,-3.2643139308810234,0.0337504781782627,0.1612796783447265,-0.0409493520855903
0.85698315429687,1.2637290189787744,-0.3689388185933232,-3.268277573814988,-0.0065873432904481,0.1898070722818374,-0.0144181437790393
0.8669482421875045,1.0323394530750811,0.0480535445511341,-3.310606310978532,-0.024987656623125,0.2377841919660568,0.0038932198658585
0.8769123535156211,0.7984004949495196,0.3955626216247677,-3.3157261382102963,0.0262202620506286,0.3310369551181793,0.0210804641246795
0.8868774414062557,0.6476705659084022,0.7062558797374368,-3.1521202148526903,0.1227715611457824,0.4508824050426483,0.0309594571590423
0.8968420410156313,0.6008529928930103,0.974336907570064,-2.893514286851883,0.2500051856040954,0.5691511631011963,0.0693278908729553
0.9068071289062516,0.7323899264905601,1.1700251916259528,-2.586507023775577,0.3997882902622223,0.6528940200805664,0.1095900908112526
0.9167722167968719,0.925659605097398,1.3121616259753703,-2.2349328892201186,0.5433571934700012,0.6858136653900146,0.1540148109197616
0.9267373046875065,1.059625738603249,1.4144967958122492,-1.7709931892007589,0.6644745469093323,0.7161399126052856,0.1950005888938903
0.9367023925781268,1.1529529877286404,1.4883806549295782,-1.326326929450035,0.763971209526062,0.7284271121025085,0.2369163483381271
0.9466672363281248,1.2261641352161765,1.4814707294106482,-0.9408721526026724,0.827264130115509,0.7378664612770081,0.2807064652442932
0.9566325683593817,1.3064074463628232,1.4588517781063914,-0.5466664985448122,0.8597444295883179,0.7371007204055786,0.3168327510356903
0.9665974121093797,1.4444912443205713,1.3631824958994985,-0.2254658749431371,0.8437132835388184,0.7337648272514343,0.3613576292991638
0.9765622558593776,1.5302490811049938,1.2722095548152923,0.0213642750680446,0.7718726396560669,0.7204778790473938,0.4077416360378265
0.9865270996093756,1.5710511932231486,1.248464814351499,0.2544920629411936,0.6580880284309387,0.7189619541168213,0.4467537403106689
0.9964921874999959,1.5936857804879545,1.2783365132629871,0.3822843301177024,0.5250891447067261,0.7293788194656372,0.4946349859237671
1.006456542968749,1.5562366320595145,1.3694208057671784,0.3746381992787122,0.4073579907417297,0.7507293820381165,0.5431934595108032
1.016421386718747,1.4670593422204254,1.500175137619674,0.3284147927641868,0.3283970057964325,0.7891815900802612,0.5922744274139404
1.026386230468745,1.3314420805066822,1.6056380840882658,0.1992547443658113,0.2854359745979309,0.8199983239173889,0.6458548307418823
1.0363510742187572,1.2557564326643944,1.744569584916532,0.1452612883716821,0.2749003469944,0.8395399451255798,0.6861476898193359
1.0463164062499999,1.2327660176992417,1.856826721569896,0.1605664095312357,0.2807507812976837,0.8471070528030396,0.7200806140899658
1.0562812499999978,1.2254308525055646,1.9164990999832747,0.1886953564286232,0.2953951060771942,0.8362113237380981,0.7555384635925293
1.0662463378906324,1.1834542897805571,1.99555597782433,0.2915057425618171,0.3127144575119018,0.8131677508354187,0.7939026355743408
1.0762111816406303,1.139028653402999,2.034065448960661,0.4341892893999814,0.326062262058258,0.8008304238319397,0.8296926021575928
1.0861762695312507,1.1012360252991318,2.077240866081417,0.6246493174135684,0.3382691144943237,0.8021491765975952,0.8687148094177246
1.0961411132812486,1.077887590676546,2.0619296074420213,0.8426672144383192,0.3487648069858551,0.8234190940856934,0.9163172245025636
1.106106201171869,1.0842255615264176,2.0135420086309312,1.0703320607304572,0.3448605835437774,0.8458034992218018,0.9621829986572266
1.1160712890625035,1.1095680925756692,1.9484379605576396,1.2570412117779255,0.3269029855728149,0.8615590929985046,1.0014036893844604
1.1260361328125015,1.122296860441193,1.8455138849169013,1.461334534832835,0.2876906096935272,0.8711116313934326,1.0317740440368652
1.1360014648437442,1.10897706787996,1.711032933756709,1.6451146466910838,0.2324564158916473,0.8788816928863525,1.053697943687439
1.1459663085937564,1.025768038795516,1.5933412048339843,1.7718606196850537,0.1570247709751129,0.8852032423019409,1.062814474105835
1.1559313964843767,0.9220666221067308,1.4745339158847928,1.869974372434616,0.0738112032413482,0.9039770364761353,1.0619382858276367
1.1658959960937523,0.8776065720029175,1.3685299944072962,1.9318547822862864,-0.0094264261424541,0.922157347202301,1.0591797828674316
1.1758601074218689,0.8448978230345994,1.2711474785417318,1.916179658770561,-0.0839522927999496,0.9277876019477844,1.0606664419174194
1.1858254394531258,0.8040915461979806,1.1743769570946694,1.8331138375490903,-0.1443506479263305,0.9265923500061036,1.06629741191864
1.1957902832031237,0.7598932157702744,1.101643729317188,1.747441633221507,-0.1831814348697662,0.9089121222496032,1.072751522064209
1.205755371093744,0.6452328173674643,1.0624594276592134,1.630819579356909,-0.217347651720047,0.8797284364700317,1.071996808052063
1.2157202148437563,0.4750996111329644,0.9862085471495984,1.504711319744587,-0.2324682176113128,0.8406723737716675,1.0666409730911257
1.2256853027343766,0.2745336928370409,0.8955413110136985,1.4131564871191975,-0.2343449592590332,0.814252495765686,1.0670320987701416
1.2356501464843745,0.0920638598597608,0.7926473382502793,1.3172878829479218,-0.2421241551637649,0.7903277277946472,1.0587587356567385
1.2456152343749949,-0.098342757466156,0.664139908541739,1.2053940266489982,-0.2557893693447113,0.7747993469238281,1.0460773706436155
1.255580078125007,-0.2657441275839693,0.439151003460586,1.142587149602175,-0.273621529340744,0.7766120433807373,1.0348957777023315
1.2655454101562498,-0.3709174251899123,0.2049810130581259,0.9552554827421904,-0.3063462078571319,0.7480653524398804,1.0308994054794312
1.2755104980468701,-0.5007384947802871,-0.0772726247727871,0.6902601459652185,-0.3261682093143463,0.7060890197753906,1.0193208456039429
1.2854753417968823,-0.6885546572215855,-0.3211126530572772,0.4365227007836103,-0.3215311169624328,0.6491924524307251,1.0021122694015503
1.2954401855468802,-0.9194519826289266,-0.5598752319470047,0.1294645843029022,-0.3064264357089996,0.574968159198761,0.983219027519226
1.3054052734375006,-1.1796436454512178,-0.7288260234639048,-0.1185387011408805,-0.2895601093769073,0.5028713345527649,0.9458798766136168
1.315370361328121,-1.5175009509518742,-0.8807347870260477,-0.337224706685543,-0.2733466923236847,0.4343586564064026,0.8921325206756592
1.3253352050781189,-1.823354660078883,-0.9886258374243974,-0.5829594626754522,-0.2587677538394928,0.3664043545722961,0.8135506510734558
1.3353002929687534,-2.05594468781352,-1.0459069367870688,-0.7794003186643124,-0.2482123523950576,0.3156007528305053,0.7244985103607178
1.3452651367187514,-2.260454868489504,-1.100028987596929,-0.9009194969207048,-0.2296900600194931,0.2876918911933899,0.6395631432533264
1.3552338867187501,-2.3773998706981536,-1.1525132080718874,-1.04632399315536,-0.2019456326961517,0.2658845782279968,0.5602315664291382
1.3651989746093705,-2.394394844640791,-1.1990136779621243,-1.1513754362136124,-0.1622176766395568,0.2494917511940002,0.4944490492343902
1.375164062500005,-2.311189322687685,-1.278560677407682,-1.2073586047202347,-0.119087167084217,0.2295931577682495,0.4371753931045532
1.3851281738281216,-2.1636231183744967,-1.4096885187476873,-1.291248017284274,-0.0693691447377204,0.1832789182662964,0.389932245016098
1.3950930175781195,-2.037818664014339,-1.4926958877801897,-1.318863169440627,-0.0229696799069643,0.0983329266309738,0.3591266572475433
1.4050578613281317,-1.905223526600748,-1.6133610795557498,-1.3193167584270238,0.0091251377016305,0.0010071683209389,0.3438209295272827
1.415022949218752,-1.8394994469329715,-1.7624562470018863,-1.2259697816878556,0.022019263356924,-0.1002482771873474,0.326052576303482
1.4249880371093724,-1.784351852467656,-1.8794880507111549,-1.18847504055202,0.0145805217325687,-0.2040934413671493,0.2938586771488189
1.4349528808593703,-1.7804209427595137,-1.971051943425834,-1.242353345733881,-0.0107391001656651,-0.3105389177799225,0.2465902417898178
1.4449179687500049,-1.7950506488755344,-2.081995074871182,-1.2695862205743789,-0.0475935190916061,-0.3958383500576019,0.1742372214794159
1.4548830566406252,-1.8037104868017133,-2.065797681047022,-1.37464000172019,-0.1104516088962555,-0.4954717755317688,0.0617750883102417
1.4648481445312456,-1.8771417798459529,-1.8456430642545223,-1.4719360083460806,-0.2158624529838562,-0.5996191501617432,-0.0726727321743965
1.4748129882812435,-2.001167241834849,-1.5161615190416573,-1.5880314079880713,-0.3526472151279449,-0.703045129776001,-0.2157039195299148
1.4847778320312557,-2.2883615509383377,-0.995797628749907,-1.817045330801606,-0.5071572065353394,-0.7974544763565063,-0.3565867245197296
1.4947431640624984,-2.749790583311021,-0.458010017709434,-1.9118395837396385,-0.6588901877403259,-0.809768795967102,-0.4797241389751434
1.5047080078124964,-3.071642656558752,0.1815419775426387,-1.8525655569940804,-0.8049885630607605,-0.7191755175590515,-0.6008375287055969
1.514673095703131,-3.271787335501611,0.788159086920321,-1.9076725271880624,-0.898245632648468,-0.4856081902980804,-0.697523832321167
1.5246379394531289,-3.3103175571650265,1.2016191842854025,-1.800236234819889,-0.8861149549484253,-0.1395911425352096,-0.7364400625228882
1.5346032714843716,-3.063226125869155,1.4763167076483368,-1.804161883831024,-0.7853004336357117,0.2188706994056701,-0.7250566482543945
1.5445678710937472,-2.641101952794194,1.6768898411363362,-1.7820827384918927,-0.6267094612121582,0.5046265721321106,-0.675397515296936
1.5545329589843817,-2.1343973161511123,1.833836598865688,-1.6662322535216807,-0.4372158646583557,0.6841249465942383,-0.6150790452957153
1.5644978027343797,-1.7345272065907715,1.9120485503152007,-1.466066239529848,-0.2209663987159729,0.7517737150192261,-0.5669543743133545
1.5744631347656224,-1.4515917239755391,1.9564809817597268,-1.188346445736289,0.0233784094452857,0.715039074420929,-0.5457425713539124
1.584428222656257,-1.235633682090044,2.0083432709440587,-0.8924848460525274,0.2698113620281219,0.5617520809173584,-0.572072446346283
1.5943930664062549,-0.9717742174752056,1.9973276636719703,-0.6704325789451598,0.515494167804718,0.3220130503177643,-0.6194649934768677
1.6043581542968752,-0.7796326661154628,1.9269789929434653,-0.3960281933099031,0.7394066452980042,0.0159862581640481,-0.6684074997901917
1.6143227539062508,-0.6139880765371024,1.8486062979742883,-0.1529997736692428,0.9315751791000366,-0.3242456316947937,-0.7170029878616333
1.6242880859374935,-0.537449392062053,1.7414248571500182,0.1856745473027229,1.0622066259384155,-0.6288627982139587,-0.7578116655349731
1.6342529296875057,-0.4948774572597816,1.5856003814488648,0.6899737302392721,1.1070467233657837,-0.8572211861610413,-0.7831649780273438
1.644218017578126,-0.5087461889406666,1.474084126290679,0.9898094942510128,1.074970841407776,-1.0478601455688477,-0.8009884357452393
1.654182861328124,-0.6233836083266884,1.3661404689222574,1.1539233671307565,0.999588131904602,-1.1806294918060305,-0.8259351253509521
1.664148193359381,-0.8369280131991952,1.2509367574229835,1.3813894759804008,0.8905737996101379,-1.2181049585342407,-0.8672196865081787
1.6741130371093789,-1.0461824657928198,1.2466729624986648,1.5273568667948243,0.7426234483718872,-1.177637815475464,-0.9125791788101196
1.6840778808593768,-1.266140317904204,1.2804022136211397,1.6867630003750322,0.5733116865158081,-1.0594136714935305,-0.9579192399978638
1.6940429687499972,-1.4373006021641197,1.3424550574302672,1.8228338510751725,0.3954994976520538,-0.8836840987205505,-0.9958003759384156
1.7040080566406317,-1.4658764160461724,1.3656199521794914,1.885854663133621,0.2268905192613601,-0.6833174228668213,-1.0235930681228638
1.713973144531252,-1.3624147263973951,1.4103259398683905,1.9801824676036837,0.0739999860525131,-0.4800165593624115,-1.0260993242263794
1.72393798828125,-1.1829401297133415,1.41373048761487,2.072186213040352,-0.0539672970771789,-0.2876180708408355,-1.0071991682052612
1.7339030761718703,-0.9704742407925426,1.427546539260447,2.129564050775766,-0.1411251276731491,-0.1300287842750549,-0.9724215269088744
1.7438681640625049,-0.7703204286951572,1.4488079384759067,2.169796692442894,-0.1938445270061493,-0.0242397766560316,-0.937661111354828
1.7538332519531252,-0.5417259368700906,1.4524357735842466,2.169740578341484,-0.2058673352003097,0.0164793320000171,-0.911498248577118
1.7637978515625008,-0.373907218123041,1.418756791344285,2.145543710196018,-0.1815313696861267,0.0032420898787677,-0.9001185297966003
1.7737629394531211,-0.2139862303558737,1.3445353708356618,2.1014298431813714,-0.1324823200702667,-0.0682206004858017,-0.9020642638206482
1.7837280273437557,-0.0610965020655188,1.222337854926288,2.0722873353272675,-0.0697891116142273,-0.1702332496643066,-0.8996556997299194
1.793693115234376,0.036855283321673,1.0607783427044748,2.124022783261537,-0.0195399429649114,-0.2608663439750671,-0.8885900378227234
1.803657958984374,0.0950875915951095,0.8801713079243898,2.264087672033906,0.0091098118573427,-0.3299807012081146,-0.8830211162567139
1.8136230468749943,0.1904920123207382,0.6627700814932584,2.336129410415888,0.0085973879322409,-0.3799356520175934,-0.8719761967658997
1.8235883789062513,0.3158815109381452,0.4719064411148428,2.417829203981161,-0.01652767136693,-0.426617681980133,-0.8573828339576721
1.8335529785156268,0.466926606875658,0.2495733112394809,2.3577263251960274,-0.0517168268561363,-0.4853215217590332,-0.825411319732666
1.8435180664062472,0.5738402636092156,0.0310945187047123,2.28381236320138,-0.1002529338002204,-0.5557879209518433,-0.7847049236297607
1.8534829101562451,0.6887936536092311,-0.1510869257852435,2.1939479678809644,-0.1686449646949768,-0.6158572435379028,-0.7391307950019836
1.8634479980468797,0.7643127857781946,-0.3833978443175554,2.0833581799179317,-0.237761989235878,-0.649756908416748,-0.6832824349403381
1.8734130859375,0.7854458824388683,-0.600591565477848,1.9433236862838268,-0.3195493519306183,-0.6779044270515442,-0.6137017011642456
1.8833781738281203,0.8431136430315673,-0.7875096831008791,1.6544307565689087,-0.3858183920383453,-0.7026971578598022,-0.5548247694969177
1.893342773437496,0.8603934983301907,-0.9745888365045188,1.353157068708539,-0.4397753775119781,-0.7101891040802002,-0.4945375621318817
1.9033078613281305,0.8868263088341802,-1.1342810935497285,1.0046931751281023,-0.4855045080184936,-0.7128021717071533,-0.4408208131790161
1.9132729492187508,0.8573001354247332,-1.304125911296904,0.617719810411334,-0.5226420164108276,-0.7052490711212158,-0.3919816315174103
1.9232380371093711,0.8838578144174069,-1.3542755513444542,0.1866840166062116,-0.5497993230819702,-0.6876538395881653,-0.3619113564491272
1.9332031250000057,0.9193437730140984,-1.371070326539874,-0.300297536304593,-0.5412502288818359,-0.6630239486694336,-0.3141555786132812
1.9431679687500036,0.9561646334763616,-1.3876859457761048,-0.7833399962007999,-0.4908317327499389,-0.6399117112159729,-0.2536839842796325
1.9531333007812464,0.98780049251616,-1.354555245068669,-1.1486258452445268,-0.4169469475746155,-0.59498131275177,-0.1865317970514297
1.9630981445312443,0.9684831400405616,-1.266355860351026,-1.4696961204648018,-0.3460282981395721,-0.5509209632873535,-0.1177292987704277
1.973063964843746,0.9814458627924324,-1.2251210559040306,-1.707643875840306,-0.2665919661521911,-0.4933086931705475,-0.0517609827220439
1.9830290527343806,0.967422086680308,-1.1201505691275,-1.8876625893384216,-0.1897981315851211,-0.4315356016159057,0.0048988340422511
1.9929938964843785,0.9342624521393328,-0.9634685998141764,-2.027647398611903,-0.1055700406432151,-0.3551402986049652,0.0546642430126667
2.002958984374999,0.9073521603167056,-0.8514955407992005,-2.1147031662523745,-0.0132478363811969,-0.2668210864067077,0.0977248921990394
2.012924072265619,0.919975129720196,-0.7979214792609214,-2.166205974474549,0.073739156126976,-0.1670502722263336,0.14301697909832
2.0228889160156314,1.1117172334335743,-0.9211717190936208,-2.13651401604414,0.1520456820726394,-0.0578657314181327,0.1939246356487274
2.032854248046874,1.325415075302124,-0.9870765621557832,-2.10633748896718,0.209927424788475,0.0317356064915657,0.2510974407196045
2.042819091796872,1.395877143277228,-1.0240712448149918,-2.088211465167999,0.2567335367202759,0.1097300052642822,0.3147632181644439
2.05278393554687,1.38190896980986,-0.9750795426309108,-2.031249222496152,0.3118396401405334,0.1713796555995941,0.3703468739986419
2.062748779296882,1.3675157027982174,-0.9379273313224316,-2.0380384442448616,0.3823268711566925,0.2138272523880005,0.4031873941421509
2.072714111328125,1.3395884159527718,-0.931506942886114,-2.0721452965080736,0.4721743762493133,0.2440132200717926,0.4159998297691345
2.082678955078123,1.2857318842113017,-0.9279676628440618,-2.0459739134192465,0.564820408821106,0.2578288912773132,0.414465844631195
2.0926440429687574,1.2264555193781852,-0.8706701968684792,-1.9787953971594567,0.6484198570251465,0.2769768536090851,0.3992479145526886
2.1026088867187553,1.1608221867337822,-0.8023428028345108,-1.833216713401675,0.7135676741600037,0.3138429820537567,0.3800707757472992
2.112574218749998,1.2245068695284425,-0.8692878025993704,-1.6503671603918075,0.758682370185852,0.3824405670166015,0.3655800223350525
2.122539062499996,1.374808490154892,-1.0099699464872478,-1.5132055918455125,0.7718737721443176,0.4571725726127624,0.356456309556961
2.132503906249994,1.5944094185873865,-1.1966703297063708,-1.4306371987521649,0.7512072920799255,0.5183605551719666,0.3565832078456878
2.1424689941406285,1.806758476195484,-1.3970710292369126,-1.3692320051968097,0.6998388767242432,0.5622944235801697,0.3492560684680938
2.152434082031249,1.8446050995089112,-1.3759385170981286,-1.3673866695910692,0.6009958386421204,0.5442253351211548,0.3287307918071747
2.162399169921869,1.663928068232536,-1.1932108369022607,-1.4998574499726294,0.4655578136444092,0.4567607343196869,0.3074784874916076
2.1723640136718814,1.3854292528904977,-0.8972951689437031,-1.582336411216855,0.312884122133255,0.3586558103561401,0.2615468204021454
2.1823291015625017,1.0933115159101785,-0.4935603467792272,-1.6974731949597597,0.185745894908905,0.3072083294391632,0.1854922473430633
2.1922939453124997,0.7830591334328055,-0.1356672383353114,-1.7458271837621926,0.1224554181098938,0.3222998082637787,0.1243350878357887
2.202260253906246,0.6356336527645587,0.2566220607072115,-1.7390964142024516,0.1137117221951484,0.3771430850028991,0.1006100475788116
2.2122248535156217,0.5215246046341956,0.7080307804554701,-1.6949749484032393,0.1730705946683883,0.4902856349945068,0.0882744789123535
2.2221899414062563,0.5141145841060206,1.0165335427865383,-1.6013322035878896,0.2707543075084686,0.6073808670043945,0.1026856303215026
2.2321550292968766,0.6305509426727891,1.2897025414079426,-1.4915858807116746,0.3866038620471954,0.7152012586593628,0.1412141919136047
2.242120117187497,0.7817764001458882,1.4806623356372115,-1.3379957399338482,0.4976909458637237,0.7891987562179565,0.2053716033697128
2.252084960937495,0.9580624299217017,1.5672878951668738,-1.139897179865837,0.6101564168930054,0.8408320546150208,0.276098757982254
2.2620500488281294,1.112003722224757,1.618942679080367,-0.8708248029083013,0.6984090209007263,0.8568866848945618,0.3440413177013397
2.2720151367187498,1.2482557016454636,1.5614210489600897,-0.6523503942877054,0.7505708932876587,0.8449328541755676,0.392091155052185
2.2819799804687477,1.3488967809155583,1.483409003996849,-0.3142816379934549,0.7587513327598572,0.8413469195365906,0.4238978028297424
2.2919448242187457,1.4073857947632669,1.3799021600320935,-0.0044137247890233,0.7216902375221252,0.8377230763435364,0.4426003992557525
2.3019099121093802,1.4643790170952675,1.247870063328743,0.22540450014472,0.6454929113388062,0.8347920179367065,0.4554000794887543
2.3118750000000006,1.4953382189825175,1.16236503226161,0.4163794919431209,0.5244119167327881,0.8233435153961182,0.4670018851757049
2.321840087890621,1.4942987929321825,1.187892856749892,0.5629542010009289,0.3808608651161194,0.8087701797485352,0.4801086187362671
2.3318051757812555,1.4402693888418376,1.232894027993083,0.6100041214674711,0.2479456067085266,0.7945559620857239,0.4958073794841766
2.3417700195312534,1.328801356739551,1.3296195412546394,0.5474959351062775,0.1504342406988144,0.781328022480011,0.5152934789657593
2.3517351074218737,1.1847748708598316,1.4940309357762336,0.5109346754282713,0.0906327664852142,0.7691406607627869,0.5359014868736267
2.3616962890625075,1.0834121993169188,1.6049106465965508,0.505382886520028,0.0528590194880962,0.752915620803833,0.5598435997962952
2.371661376953128,0.9857995279572904,1.669493301144242,0.5622235486388206,0.0394764244556427,0.7374336123466492,0.5953251719474792
2.381626220703126,0.8325444643527269,1.7117390361994504,0.6526391481012106,0.0322046615183353,0.7218959331512451,0.6258026957511902
2.391591308593746,0.6734368753276765,1.7596113789647816,0.7833698068171739,0.021712115034461,0.7108849883079529,0.654539167881012
2.401556152343744,0.5284439190359785,1.7945710486650466,0.9702905547887086,0.0001114821061491,0.7109137773513794,0.6806772947311401
2.411521484375001,0.4356077778957783,1.782840863382816,1.1598054109066724,-0.0289714783430099,0.7221090793609619,0.7001664042472839
2.4214865722656214,0.39233543973919,1.7392174102336166,1.3334779702484607,-0.0577203035354614,0.7358765602111816,0.7212064266204834
2.4314514160156193,0.3658530544724315,1.6676666702389715,1.503075242975354,-0.0916767716407775,0.743994951248169,0.7394919395446777
2.4414162597656315,0.3473793132141232,1.595982659253478,1.655626688355207,-0.132886528968811,0.7572692036628723,0.7504612803459167
2.451381347656252,0.3604944500487297,1.4832348164737224,1.7840671903073786,-0.1655636131763458,0.759352445602417,0.7558876276016235
2.461346435546872,0.3810908094841986,1.3142723345190286,1.842262189644575,-0.2163756489753723,0.7316132187843323,0.7665094137191772
2.47131127929687,0.3259336434729397,1.2296148601919412,1.804624825167656,-0.2736480832099914,0.6771096587181091,0.7567017078399658
2.4812763671875047,0.2015011350531131,1.1155056659311056,1.7582804226219653,-0.3221879303455353,0.6331751942634583,0.7475284337997437
2.491241455078125,0.0182470928955823,0.9944429992705583,1.7018927649676798,-0.3677312731742859,0.5973528027534485,0.7304459810256958
2.501207519531249,-0.1041825512692332,0.9133534465581178,1.610570572054386,-0.406914621591568,0.5758485794067383,0.7071073055267334
2.511172363281247,-0.1862160337682813,0.7694277907043695,1.4615420401036738,-0.4155825972557068,0.5625665783882141,0.683384358882904
2.521137207031245,-0.3221566822174936,0.6562655219048261,1.3185212241351605,-0.4031752049922943,0.559220016002655,0.6664511561393738
2.5311022949218795,-0.4583399072509259,0.5554536161124706,1.1328665505766868,-0.3714679777622223,0.5413768887519836,0.6446705460548401
2.5410673828125,-0.5669171132825315,0.4278051413208246,1.0029501308530568,-0.3366657793521881,0.5354177951812744,0.6086347699165344
2.551032226562498,-0.6127106770124287,0.2455751815140247,0.9224480226397512,-0.2942232489585876,0.5047978162765503,0.5723243951797485
2.5609973144531324,-0.5480064419116825,-0.0385910119399428,0.8821586823493242,-0.269417256116867,0.4799604415893554,0.5363877415657043
2.5709624023437527,-0.4604853217817842,-0.3139987293988466,0.8541741123586892,-0.2677721083164215,0.4344364106655121,0.5133364796638489
2.580927490234373,-0.436411349363625,-0.5485068657144904,0.7896966717511416,-0.3005393743515014,0.3842499554157257,0.4929774403572082
2.5908920898437486,-0.482251309518516,-0.7066790735855698,0.6934276700854302,-0.3577447235584259,0.3203489780426025,0.4593400657176971
2.600857177734369,-0.5307810202140361,-0.8295654485419393,0.4368161307722329,-0.4322101473808288,0.2423048019409179,0.4265232682228088
2.610822509765626,-0.6378426340509206,-0.9671098789259792,0.1421224058240652,-0.5081342458724976,0.1735794991254806,0.4019489586353302
2.6207883300781276,-0.7582667836122214,-1.056574461273849,-0.0844242500931024,-0.5841879844665527,0.1322831809520721,0.375660091638565
2.6307531738281256,-0.8470470369577408,-1.1050912394225596,-0.476883937266469,-0.6612488031387329,0.1101489663124084,0.3389699757099151
2.6407185058593825,-1.050551913048699,-1.098837147463858,-0.9587485855549572,-0.6967335939407349,0.126934602856636,0.2891134917736053
2.6506833496093805,-1.239503509260714,-1.0669485557720064,-1.4846446832716464,-0.6754584312438965,0.1849371343851089,0.2442479431629181
2.660648437500001,-1.4511734985634683,-1.078766127076745,-1.9134861819028848,-0.57521653175354,0.3042576909065246,0.2376086860895156
2.670613525390621,-1.54964264062196,-1.0579378585815429,-2.263549327373505,-0.4021877646446228,0.4229799211025238,0.2781066000461578
2.6805781249999967,-1.3775000673264264,-1.1027470143839715,-2.6159762793660164,-0.1864909082651138,0.5287591218948364,0.3391052484512329
2.6905434570312536,-1.1878628269378095,-1.1669961991935969,-2.596254510807991,0.0603218972682952,0.631245493888855,0.4137716591358185
2.7005083007812516,-1.1078577815264463,-1.213529402309656,-2.7509149111658333,0.3072464764118194,0.6061971187591553,0.5237942934036255
2.710473388671872,-0.6649854194551706,-1.4103615957036613,-2.7766297826588158,0.5333443284034729,0.50797438621521,0.6256173253059387
2.72043823242187,-0.2478505791001021,-1.4322978254407643,-2.5397014334589243,0.6700488924980164,0.341096431016922,0.7072509527206421
2.730404296874994,0.1388650114633143,-1.5472528228759763,-2.6464246091216803,0.7351046800613403,0.0836304202675819,0.7457635402679443
2.7403693847656285,0.3443236519705503,-1.857999272480607,-2.8089614419430493,0.7946271300315857,-0.2021344900131225,0.6891964077949524
2.750334472656249,0.1037272087171673,-1.7093685076758265,-2.7752029647260903,0.8781157732009888,-0.4264431893825531,0.554899275302887
2.760299316406247,-0.1747074553474784,-1.828162937143445,-2.7770214123249053,0.9514040946960448,-0.5736097693443298,0.459481418132782
2.7702644042968814,-0.3450808270134031,-1.7312205662608149,-2.651737913098932,0.9671263694763184,-0.6475458145141602,0.3756493330001831
2.7802292480468793,-0.4423535988941788,-1.4400982700586318,-2.536969378146529,0.917237102985382,-0.7052083015441895,0.2752140760421753
2.7901943359374997,-0.575363235392794,-0.8919868334025144,-2.480903792053461,0.7867544889450073,-0.7581192255020142,0.1442922204732895
2.80015942382812,-0.7698568297713995,-0.3716887018233537,-2.299386948952079,0.6218286156654358,-0.7450726628303528,0.0204847976565361
2.8101245117187545,-1.0890373457223177,0.0551128154128789,-1.983307321625948,0.4364884495735168,-0.6433754563331604,-0.0756057202816009
2.8200893554687525,-1.2795523187935351,0.6420242305845022,-1.7651286810815334,0.2688749432563782,-0.5039888024330139,-0.1489342600107193
2.8300541992187505,-1.2070035076722505,1.1070698460191488,-1.5567425357550382,0.1646987795829773,-0.3644631206989288,-0.1758206635713577
2.840020507812497,-0.9088422527439892,1.5626625734537838,-1.32980541921556,0.1329235434532165,-0.2896357476711273,-0.1658740192651748
2.849985351562495,-0.4074572767537087,1.829611382386088,-1.330853466963768,0.1832645982503891,-0.3142254650592804,-0.1097935661673545
2.859950195312507,-0.1659018522750586,1.905593967348337,-1.2627648501217366,0.3288561403751373,-0.383361667394638,-0.0311075374484062
2.8699152832031274,-0.1742132786223665,2.113092808446288,-1.071863508081436,0.5266631841659546,-0.485843688249588,0.0248063560575246
2.8798803710937477,-0.3148950206514447,2.2393086200863124,-0.8564782976478338,0.7463108897209167,-0.6182947158813477,0.0202523507177829
2.8898454589843823,-0.5157122650936246,2.209101697871089,-0.5244681107401847,0.9534212350845336,-0.7564759254455566,-0.0338855199515819
2.8998103027343802,-0.5425771834045648,1.993608935409784,-0.0772352153718471,1.0955663919448853,-0.8730454444885254,-0.1043580919504165
2.9097753906250006,-0.4727342702411115,1.79810799061954,0.5097773220866918,1.148723840713501,-0.9618197679519652,-0.1662871390581131
2.9197402343749985,-0.2776370291472412,1.6683979071229695,0.8544698804348707,1.1256611347198486,-1.0789021253585815,-0.2239895761013031
2.929705322265619,-0.0278741912516066,1.4945856470495462,1.1600900730669497,1.0361005067825315,-1.2111953496932983,-0.2516538500785827
2.9396711425781206,0.1262729577878955,1.415600373139977,1.3947124834120272,0.8949683308601379,-1.3200501203536987,-0.2525164484977722
2.9496364746093775,0.2533996463282965,1.40475983017385,1.5043863255739212,0.7437639832496643,-1.409225344657898,-0.2109683752059936
2.9596013183593755,0.2222745680885389,1.3004086443394425,1.5856424670249225,0.6085500121116638,-1.4052305221557615,-0.1496813148260116
2.969566406249996,-0.1331516022525727,1.3959709590405225,1.63033208810091,0.4937333464622497,-1.337395429611206,-0.1428601294755935
2.9795312499999937,-0.5355638705763965,1.5587304947018623,1.4289818327605723,0.4039845764636993,-1.2465858459472656,-0.180800586938858
2.9894963378906283,-0.7354216223366559,1.5803531284451484,1.3158446984022856,0.3293407261371612,-1.13487446308136,-0.2454238682985305
2.999461669921871,-0.8231658836979419,1.582367975398898,1.2382266211926936,0.2621446549892425,-1.006806254386902,-0.3091434836387634
3.0094262695312466,-0.8666985167585313,1.515313962301612,1.2469693150967358,0.1879551112651825,-0.839393138885498,-0.3591466844081878
3.019391357421881,-0.8615367500811815,1.415033971428871,1.369724172627926,0.0984907299280166,-0.6241921186447144,-0.3980293571949005
3.0293574218750052,-0.6787802091170102,1.3085633092224598,1.500624927213788,0.0026539238169789,-0.3925367295742035,-0.4219983220100403
3.039322265625003,-0.3598786562379449,1.09921562538743,1.5653601419746874,-0.0801488161087036,-0.1805341839790344,-0.4119661748409271
3.0492873535156235,-0.0294658215243369,0.9425175817221404,1.5654069037258624,-0.1454383283853531,-0.0059151547029614,-0.3738260269165039
3.059252441406244,0.284027734831348,0.8780074078887701,1.4945914922684431,-0.1700501888990402,0.0975465178489685,-0.3221305906772613
3.0692175292968784,0.4701604011651128,0.8641858032852411,1.4158756829500196,-0.1596928685903549,0.1506692916154861,-0.2879359126091003
3.0791826171874987,0.5362124706782401,0.8656851019322872,1.2939134371012448,-0.1074727997183799,0.1463278084993362,-0.2895058393478393
3.0891472167968743,0.546547548340261,0.808709415256977,1.2532412349730728,-0.0373079478740692,0.1181906387209892,-0.3168879747390747
3.0991123046874947,0.5514833242420106,0.7260889997154474,1.2536790418684485,0.0145323444157838,0.0671444982290268,-0.3617550432682037
3.109077392578129,0.5229305624419823,0.5971990004301071,1.398190973177552,0.0348803475499153,0.0329370684921741,-0.4235225021839142
3.1190424804687495,0.6648151774547993,0.4240250382602215,1.5524305177748203,0.0136672044172883,0.0139157064259052,-0.4678721129894256
3.1290083007812513,0.8830301314216107,0.1887280896544456,1.7676807036519049,-0.0324553214013576,0.041821751743555,-0.4765864014625549
3.1389733886718716,1.114606086742878,-0.0352899245679378,1.8666613023638725,-0.0916118547320365,0.0593474842607975,-0.4106286764144897
3.148938476562506,1.3448627030938862,-0.2409785013735294,1.9033903198242184,-0.1718130856752395,0.0764193907380104,-0.300943523645401
3.1589035644531265,1.3662775393053888,-0.3384007647275924,1.8787895470529796,-0.2399748414754867,0.1005196645855903,-0.1915480494499206
3.168868164062502,1.222451836694777,-0.5095581263780593,1.6639239765793084,-0.2527404129505157,0.1342772096395492,-0.0966069251298904
3.1788332519531224,1.0980790225729349,-0.7033090126305818,1.387883514174819,-0.2336111962795257,0.163676917552948,-0.0080118058249354
3.188798339843757,0.9706744395397604,-0.864581524604559,1.1968810498476028,-0.1945787221193313,0.1858770996332168,0.0563573464751243
3.1987634277343773,0.7841112728342413,-0.984767992952466,0.9853566064953804,-0.1503212451934814,0.218864619731903,0.107247956097126
3.2087282714843752,0.7066651911906897,-1.1400947482645511,0.7665075193434954,-0.0942528694868087,0.2444503754377365,0.1401312798261642
3.2186933593749956,0.6181411045633256,-1.2919921136498451,0.5963584579527378,-0.0363813154399395,0.2721959948539734,0.169563740491867
3.2286594238281197,0.5557654220080003,-1.3529670990943907,0.4041010251283645,0.0090991146862506,0.2764430940151214,0.1799273788928985
3.238624511718754,0.5124092049602419,-1.3435679871082304,0.1919569885730743,0.0482976511120796,0.2655656933784485,0.1969186216592788
3.2485891113281298,0.4510053996443748,-1.3941513423979282,-0.0204237793475389,0.0820260196924209,0.2425709813833236,0.219102531671524
3.2585544433593725,0.4207710414329543,-1.35472183380723,-0.2333265253156423,0.0990619957447052,0.2289382666349411,0.2291668802499771
3.2685192871093705,0.3760668438423424,-1.2735849348217247,-0.424011009734869,0.1135462597012519,0.2195624560117721,0.2450523674488067
3.278484375000005,0.3016832915745675,-1.1720301017075776,-0.585839402025938,0.1282828599214553,0.2161083370447158,0.2443178743124008
3.288449218750003,0.209048755687382,-0.9602052141040563,-0.7485469152390957,0.1336893886327743,0.2160848379135131,0.2344665229320526
3.2984145507812457,0.1351074855607003,-0.7694535096675157,-0.913356953689456,0.1431310921907425,0.2295606881380081,0.2151186615228653
3.3083793945312436,0.189798093506135,-0.6471750374764204,-1.031038745740056,0.1640242338180542,0.2643144130706787,0.1978028118610382
3.318345458984382,0.3123830012978986,-0.6316466289550066,-1.181671205756068,0.2092015594244003,0.3293773233890533,0.1862939745187759
3.32831030273438,0.4844483811713755,-0.6964689374774694,-1.2896452582627531,0.2761662602424621,0.3996895849704742,0.183075726032257
3.3382753906250002,0.6234260592289269,-0.6367062504321337,-1.3884826491117477,0.3332058489322662,0.4453923404216766,0.1834136843681335
3.348240234374998,0.6966846260547638,-0.5717886648416519,-1.415357796555757,0.362627774477005,0.4613435268402099,0.2002349942922592
3.3582121582031306,0.7521133755490184,-0.5666238294243813,-1.3450462429672478,0.3732261061668396,0.4796253144741058,0.2324632406234741
3.3681770019531285,0.8529033617705106,-0.6538491084128618,-1.2758511261880396,0.3772545158863067,0.5062757730484009,0.2640199065208435
3.3781423339843712,0.9636253247458488,-0.7364362062066793,-1.262597676861286,0.3711167275905609,0.5052666664123535,0.2807679772377014
3.388107421875006,1.0335643186949193,-0.7295563835650682,-1.3378864343404768,0.3518200218677521,0.4829157888889313,0.2875347733497619
3.3980722656250038,1.0102439411230384,-0.7615624641567468,-1.3562708168148994,0.3523768782615661,0.4727374613285064,0.3027153015136719
3.408038330078128,1.0600265014238657,-0.9219792360842228,-1.2564946838110684,0.3424744606018066,0.487794429063797,0.3143085837364197
3.418003417968748,1.244985155542195,-1.0843693539112806,-1.2239841608285904,0.3166985213756561,0.4881901741027832,0.3220535814762115
3.427968261718746,1.3996668909490109,-1.135445461153984,-1.1972621581196785,0.2773533463478088,0.4599747359752655,0.3315773606300354
3.4379333496093807,1.3873689887814222,-1.035838839498162,-1.1693038916140794,0.2125461101531982,0.3923418819904327,0.3425815403461456
3.4478981933593786,1.187529941721633,-0.6891168211489915,-1.1764128468364476,0.109749712049961,0.2895847260951996,0.3387558758258819
3.457863281249999,0.8757977690152824,-0.2667354584425687,-1.1215852781057356,-0.0139450598508119,0.2053044885396957,0.3353025615215301
3.4678283691406193,0.5374840615166351,0.2286690548986196,-1.039676225703955,-0.137870505452156,0.1655759960412979,0.308812141418457
3.4777932128906315,0.2458076202967204,0.771713271293044,-1.0552402900606392,-0.2288680672645568,0.1709012538194656,0.2758707106113434
3.487758300781252,0.0915715645644813,1.2319377501815556,-0.9950596698641776,-0.275485098361969,0.2383542954921722,0.2577271461486816
3.497724365234376,0.1364646083912346,1.5822253520578144,-0.8354132977873087,-0.2796886265277862,0.3507681787014007,0.2725891768932342
3.507689208984374,0.3453174122482538,1.7798486958295106,-0.6920370925098657,-0.2615762054920196,0.4566310942173004,0.3121355175971985
3.517654296874994,0.6346544324688613,1.874099927932024,-0.5641209066927433,-0.2384178638458252,0.5408653020858765,0.3800804615020752
3.5276191406250064,0.9097016460523007,1.8950819256842133,-0.5188637148618698,-0.1966049969196319,0.5620559453964233,0.4644193947315216
3.5375842285156267,1.123408694140613,1.7675117768257855,-0.5594792183667421,-0.1239046901464462,0.5188599824905396,0.5414281487464905
3.547549316406247,1.2415721322283149,1.612424675488472,-0.5941513032972813,-0.0370083004236221,0.4318992793560028,0.5946792960166931
3.557514160156245,1.3089552311494943,1.3797224195510147,-0.6042471653759479,0.053462479263544,0.3295340240001678,0.6251360177993774
3.567479492187502,1.2580924743965267,1.1060972015947104,-0.4510895707964897,0.1191261485219001,0.2455009967088699,0.6358972787857056
3.5774443359375,1.1507567928586155,0.8866203379333019,-0.2063122616618871,0.1367600113153457,0.2134623825550079,0.6300817728042603
3.587410400390624,1.0304304776486009,0.704595545309782,0.1312695878982543,0.1036640629172325,0.2279537618160247,0.6109011769294739
3.597375244140622,0.9073853319339452,0.6013409225404263,0.3928723596274852,0.0217830445617437,0.2661397457122803,0.5901016592979431
3.607340576171879,0.8312503328889608,0.5719289500951766,0.4964332718670368,-0.081056036055088,0.3014237880706787,0.569227933883667
3.6173051757812544,0.7150809181626886,0.6138122815787792,0.6725333506166935,-0.1941895186901092,0.3685956299304962,0.5457319021224976
3.6272702636718748,0.6030914560021832,0.6953893255472183,0.7324012516021728,-0.307137131690979,0.4430399239063263,0.5274807810783386
3.6372351074218727,0.5291042461082339,0.7501075886845588,0.7390840903669595,-0.3933708071708679,0.5062082409858704,0.5223278403282166
3.6472004394531297,0.5133415904395282,0.8137140916764736,0.6923673473775387,-0.448881596326828,0.5450801849365234,0.5210180282592773
3.6571652832031276,0.5370832621634006,0.8612649474024772,0.6078349607348442,-0.4642421901226043,0.5479071736335754,0.5206531882286072
3.667130371093748,0.5340006033150478,0.912146408855915,0.5404547844231128,-0.4485134184360504,0.5135242938995361,0.5217147469520569
3.677096435546872,0.4609278413848951,0.9505652790993452,0.4743792609691619,-0.4002926051616668,0.4630752503871918,0.5180808305740356
3.6870615234375066,0.3992791579298674,0.9580477438092232,0.5260463198423385,-0.3381761610507965,0.4299864768981933,0.5147451162338257
3.697026123046882,0.3663271017249673,0.925833573424816,0.6019190146893263,-0.2834551334381103,0.404306948184967,0.5048637390136719
3.7069912109375025,0.332993754584901,0.8584709327697754,0.6560451571524143,-0.237828180193901,0.3896266222000122,0.485285609960556
3.716956298828123,0.3367696198618039,0.7293751817792654,0.7798936551392078,-0.2029008269309997,0.3931348025798797,0.4638588726520538
3.7269213867187574,0.3979338808007538,0.5824813237696885,0.9270745133966208,-0.1827201545238495,0.4120371341705322,0.4498441815376282
3.7368862304687553,0.511213200108707,0.4391185624957084,1.0963783561348914,-0.194002628326416,0.4350164830684662,0.4352894723415375
3.7468513183593757,0.5996695552621036,0.3192489050120115,1.2503326540499924,-0.2238948345184326,0.4556636810302734,0.4195708632469177
3.7568173828124998,0.6859164907377213,0.2350648934155702,1.3458148892521855,-0.2700644731521606,0.4606302082538605,0.4065501391887665
3.76678247070312,0.7172458411116153,0.1720727229297161,1.3338240072071552,-0.3176072537899017,0.4431549906730652,0.3890612423419952
3.7767470703124957,0.6941737392123788,0.1971937201827764,1.21120943492949,-0.36656254529953,0.3927224576473236,0.3674449026584625
3.7867121582031302,0.6365508406747132,0.1957972973883152,1.048368066203594,-0.3905039727687835,0.3366837203502655,0.3424333035945892
3.7966772460937506,0.548397560121119,0.1600239732176065,0.9002958120644092,-0.3914768397808075,0.2760035991668701,0.3216609060764313
3.806642333984371,0.4834639367112889,0.1696685843974351,0.7944014884412288,-0.3798262178897857,0.2225926667451858,0.3059483468532562
3.816607177734369,0.4225042219011112,0.1312134737968444,0.7270891166687011,-0.354332834482193,0.183441013097763,0.3017725348472595
3.8265722656250034,0.3721429118642583,0.1040162547916173,0.6935398982882499,-0.3212966620922088,0.1541117131710052,0.31228768825531
3.8365373535156237,0.3065261650284752,0.0369832844823598,0.6557371141165494,-0.2789675891399383,0.1309528648853302,0.3330033421516418
3.846503417968748,0.2123420798780396,-0.1348071143746376,0.5540133541762828,-0.2366672754287719,0.0944327488541603,0.3527248203754425
3.856468261718746,0.0362268994573736,-0.2321481291860342,0.3830494692713022,-0.1915677040815353,0.0487640611827373,0.3461609482765198
3.8664333496093803,-0.202184550740011,-0.3608925825208425,0.210523741877079,-0.1430796384811401,-0.0049061235040426,0.316604346036911
3.8763981933593783,-0.3885094151776284,-0.5090466697245836,0.0680944620609283,-0.1152898222208023,-0.0701109617948532,0.2561585903167724
3.8863632812499986,-0.4896886199124157,-0.6172469322025775,-0.1309820031285286,-0.1075780093669891,-0.1331432312726974,0.1774071007966995
3.8963281249999966,-0.482026743515022,-0.7649772410362958,-0.23998890581429,-0.1133626624941825,-0.1833462119102478,0.1074980571866035
3.906293212890631,-0.4100460876705125,-0.866785756650567,-0.3414852867394685,-0.136744737625122,-0.2266188710927963,0.0538443066179752
3.9162592773437552,-0.2917339800934307,-0.8827490494579077,-0.5450584788262843,-0.1611017435789108,-0.2519516348838806,-0.0004426352679729
3.9262243652343756,-0.2718049619928933,-0.8693044614732265,-0.7213064416140318,-0.1823290288448333,-0.2520729005336761,-0.0254387743771076
3.9361892089843735,-0.2940837763562798,-0.7654185550630093,-0.893707081323862,-0.2006307989358902,-0.2398218512535095,-0.0307278148829936
3.946154296874994,-0.3465751572243869,-0.6089163262307643,-1.1273977637767791,-0.2028156816959381,-0.2225340455770492,-0.041890949010849
3.956119140625006,-0.3548831860382109,-0.4756126021564006,-1.279796648943424,-0.1869514882564544,-0.1863850951194763,-0.0458369553089141
3.9660842285156264,-0.2964701235035434,-0.4637777874559163,-1.4303414306759834,-0.140225350856781,-0.1442582458257675,-0.03409144282341
3.9760490722656243,-0.1343063800445757,-0.5681155292868614,-1.5499720187067985,-0.0827410221099853,-0.113196738064289,-0.0025566825643181
3.9860144042968813,-0.0257551669707521,-0.592687660485506,-1.5778841079831123,-0.0435214526951313,-0.1259178966283798,0.0191281177103519
3.9959802246093687,-0.0455111300593242,-0.4976560916602611,-1.553529418927431,-0.0181404631584882,-0.1773664504289627,0.02690215036273
4.005945312500003,-0.0363008734424598,-0.4460895705521106,-1.5096107822239395,0.0042777615599334,-0.2517927587032318,0.0241612270474433
4.015910156250001,0.027594036303088,-0.4965823249489068,-1.4536661921620369,0.0274661723524332,-0.3202892541885376,0.0217249654233455
4.025875488281244,0.0840519461819902,-0.5284159715831279,-1.4051765942811965,0.0492906682193279,-0.3644066154956817,0.0249694511294364
4.0358400878906195,0.0753032243959605,-0.5630091460585593,-1.3014783193975683,0.0402428433299064,-0.3987917602062225,0.0264451093971729
4.045805175781254,0.0470963899567723,-0.5395931991577149,-1.2531576483428477,0.0065378886647522,-0.4246589541435241,0.0302171856164932
4.055770263671874,-0.0220586870729923,-0.5662935745567083,-1.1531243257075547,-0.0498497523367404,-0.4213273227214813,0.0331799536943435
4.0657363281249985,-0.1161145062012597,-0.4973854580253362,-1.0991472363263368,-0.1338769048452377,-0.4310220777988434,0.0240962207317352
4.0757011718749965,-0.2830657944640145,-0.2445072600215673,-1.0728864213883875,-0.2405934929847717,-0.4480351507663727,0.0030415353830903
4.085666259765631,-0.5445930532716214,0.0868342338442802,-1.03476098113358,-0.3517556190490722,-0.442673921585083,-0.0260901525616645
4.095631347656251,-0.8260045411899686,0.4863572835326194,-1.033551020821929,-0.4400484561920166,-0.4315514862537384,-0.0631035715341568
4.105596435546872,-1.0548753292057662,0.8209978189438581,-1.1325783812850714,-0.4706627130508423,-0.3772443532943725,-0.0995011925697326
4.115561035156247,-1.197224602588266,1.076897410595417,-1.0725175880759954,-0.4496767520904541,-0.2967090308666229,-0.1241442263126373
4.125526123046882,-1.2404866750791668,1.309855102598667,-1.0738298397183417,-0.4113546907901764,-0.2098724991083145,-0.1411578059196472
4.135492187500006,-1.189424596361816,1.4633885447531938,-0.9884463892042636,-0.345298707485199,-0.1285590082406997,-0.1475762873888015
4.145457275390626,-1.099032523905486,1.564192851760983,-0.9000789544433355,-0.2695938646793365,-0.0706781893968582,-0.1394918859004974
4.155422119140624,-0.997373134438321,1.6308306852728127,-0.8689262758105992,-0.1774548888206482,-0.0465451590716838,-0.1242942959070205
4.1653872070312445,-0.8782876861348747,1.6250117698609827,-0.7554512878000735,-0.0769673213362693,-0.047253169119358,-0.1080199256539344
4.175352294921879,-0.7536874929979444,1.5876549758911132,-0.6559633240878582,0.0170230902731418,-0.0758797526359558,-0.0893354564905166
4.185317382812499,-0.6303008403692394,1.4957558598726988,-0.4601619350463151,0.0969408228993415,-0.1047138422727584,-0.0861883908510208
4.195282226562497,-0.5391712474185973,1.418327752277255,-0.2350461887151002,0.1502597033977508,-0.1458793878555297,-0.0855220556259155
4.205248535156244,-0.4396447783268988,1.3398515969336031,-0.0523696541845798,0.1723778247833252,-0.1808019280433654,-0.0942833945155143
4.215213134765619,-0.3817569452427327,1.2479513118714094,0.1729658723771572,0.164959043264389,-0.2062873095273971,-0.0953891426324844
4.225178222656254,-0.3867779882751405,1.1895523143947124,0.378973013612628,0.128575712442398,-0.2053259313106537,-0.0950183570384979
4.235143066406252,-0.3972464830584823,1.1112579453587532,0.5601724613279104,0.070325993001461,-0.1769792437553405,-0.0959041267633438
4.245108398437495,-0.3862013574309647,1.0006067825973033,0.643307840654254,0.014222303405404,-0.1448903083801269,-0.0960850864648819
4.255073242187507,-0.3849492384780198,0.9321908334970472,0.716490565764904,-0.0426713377237319,-0.1137094944715499,-0.1019144803285598
4.265038330078127,-0.3722406366176903,0.8916039715647697,0.7436626503288746,-0.0981956124305725,-0.1084832102060318,-0.1136722862720489
4.275004150390629,-0.3852704332564026,0.8799445134311914,0.760678082537651,-0.1548024415969848,-0.1159294098615646,-0.1299364864826202
4.284969482421872,-0.4283100221030413,0.8612462427020072,0.7277391050100326,-0.2004965841770172,-0.1386772841215133,-0.1481188535690307
4.294934082031247,-0.4784177957702428,0.8548556648820638,0.6872527808427811,-0.2316592931747436,-0.1579393893480301,-0.1736452579498291
4.304899169921882,-0.5269439262691885,0.871705677396059,0.6858996126681566,-0.2440315634012222,-0.1697676032781601,-0.1962621361017227
4.31486401367188,-0.5667455561079084,0.8312889113336801,0.6655313629001378,-0.2449476867914199,-0.1593213528394699,-0.211719661951065
4.324829345703122,-0.5234971468161791,0.7753963437199592,0.7041840418994426,-0.2304008454084396,-0.1395965814590454,-0.230897843837738
4.334794433593757,-0.4256453329384326,0.689904756656289,0.7176900046825408,-0.2103160768747329,-0.1225930973887443,-0.2418857812881469
4.344760253906244,-0.2364099513489753,0.5802683238953351,0.7545686597466469,-0.1716401129961013,-0.1234573945403099,-0.2534347474575043
4.354725341796879,-0.058760158939287,0.5044616800218821,0.8045335908770561,-0.1485534459352493,-0.132794976234436,-0.2595517635345459
4.364687744140625,0.0801432117730379,0.4588555286228656,0.903964855965972,-0.1305543184280395,-0.1412462741136551,-0.2478618323802948
4.374652587890623,0.1532666809771209,0.3822901753365993,0.9850047243177892,-0.1228687018156051,-0.1466807126998901,-0.2263000905513763
4.3846179199218795,0.2071775732543319,0.2895610382348298,1.024438324561715,-0.112692043185234,-0.136674478650093,-0.2068010717630386
4.3945827636718775,0.1793487052820623,0.2022948427140712,1.0262766459047794,-0.0956203788518905,-0.1276082843542099,-0.1865152418613433
4.404548828125002,0.1117513790883123,0.1089028577893972,1.0521575216144323,-0.0748480930924415,-0.1027372330427169,-0.1776397824287414
4.414513916015622,0.0985210183762013,0.0206949975043535,1.037196683847904,-0.0481381863355636,-0.1033058166503906,-0.1738064289093017
4.4244790039062565,0.1508007292550057,-0.0852957722306251,1.0328174458503725,-0.0238910466432571,-0.1068064644932746,-0.170300617814064
4.434443603515632,0.2216281234111636,-0.159198628309369,1.069832879036665,-0.0060979365371167,-0.117008239030838,-0.156513974070549
4.444408691406252,0.2606226015854627,-0.2243599595278501,1.088987076839805,0.0084647294133901,-0.132862776517868,-0.1365090310573578
4.454373779296873,0.2485782357875257,-0.2600099495798349,1.142086798864603,0.0103044416755437,-0.1403340101242065,-0.1154570132493972
4.464338867187507,0.2235783076308667,-0.3034878567785024,1.1554092217743397,-0.0001434758305549,-0.1396231204271316,-0.0979644358158111
4.474304687499995,0.1579376684628426,-0.3605401158213615,1.1242015980839728,-0.0096336500719189,-0.1290501058101654,-0.0782967209815979
4.484269775390629,0.0803531281966716,-0.4220014234781265,1.0626064349144697,-0.0259810611605644,-0.109884038567543,-0.0706193894147872
4.49423486328125,0.0361234527826309,-0.4786527005046606,0.9875485635817052,-0.0344677567481994,-0.0883422642946243,-0.0621185787022113
4.50419995117187,0.0187248664751648,-0.5368611438453197,0.8569295485466718,-0.036148227751255,-0.0764471068978309,-0.0561916753649711
4.514164550781246,0.0051235535588115,-0.5529004244983196,0.7347744104743004,-0.0432950854301452,-0.0605720058083534,-0.0519575104117393
4.52412963867188,0.023148893462494,-0.6156242994368076,0.6379331618785857,-0.0333323739469051,-0.0338819399476051,-0.0416850820183754
4.534095703125004,0.0998643958091735,-0.7028028166741133,0.4792126724749803,-0.0181121416389942,-0.0186899360269308,-0.028784992173314
4.5440607910156245,0.2023025876291096,-0.7519418183743953,0.3364052069962024,0.0005816123448312,-0.0099022844806313,-0.0126357702538371
4.5540256347656225,0.2911596325378864,-0.8172504491090774,0.2098486190944909,0.0244736280292272,-0.0167071931064128,0.0176350492984056
4.563990966796879,0.3137111446291208,-0.8230769633054733,0.0630243191897869,0.0372319743037223,-0.0383615493774414,0.0434105657041072
4.573955810546877,0.2754728185843676,-0.8064385477155447,-0.0712006113827228,0.0421319231390953,-0.0624008402228355,0.0591336004436016
4.583920898437498,0.1951455554813146,-0.7680716999202967,-0.2237058795332908,0.0370987169444561,-0.0771905705332756,0.0717702135443687
4.593885498046873,0.1599647903762757,-0.7598410471916198,-0.3787140704154968,0.0324789322912693,-0.071425624191761,0.09071034938097
4.60385180664062,0.0785435945566743,-0.7402607329308987,-0.5236188004344702,0.0178529322147369,-0.0433463118970394,0.1071262061595916
4.613816650390632,0.0921306597519665,-0.7273609193474054,-0.5899848312675953,-0.0019071917049586,0.0157630816102027,0.1140142083168029
4.623781738281252,0.2075887113384902,-0.7951976072549819,-0.6875082169085741,-0.0200722888112068,0.0909056514501571,0.135231465101242
4.63374658203125,0.3743801328644156,-0.8683405848771333,-0.8318062132060527,-0.0336171239614486,0.1540023237466812,0.1683079153299331
4.643711914062507,0.4699250580392777,-0.8812462436795234,-0.9836065479576588,-0.0396590717136859,0.1920964568853378,0.1979601830244064
4.653676757812505,0.4400132463131099,-0.8609218330532312,-1.0626923596322535,-0.0601592883467674,0.2090453505516052,0.219903826713562
4.663642578125007,0.4021715183705091,-0.8459282620608806,-1.1453215430021286,-0.0935346707701683,0.2279130667448043,0.2311321943998336
4.6736079101562495,0.4136749091595411,-0.8817126921474933,-1.1677496479094027,-0.1297350078821182,0.2468518763780594,0.2333777844905853
4.6835727539062475,0.410837859102711,-0.925438436627388,-1.2816308786332606,-0.1696740388870239,0.2712689340114593,0.2236471027135849
4.6935375976562455,0.4637497304052114,-0.8884709342360496,-1.3750515051305294,-0.2030421197414398,0.3065441250801086,0.2055945992469787
4.70350268554688,0.5527977678414434,-0.8938660712778568,-1.458533505937457,-0.2264401018619537,0.3549136221408844,0.2081701010465622
4.7134677734375,0.7141610268387943,-0.9011030367940664,-1.4722253466814756,-0.2455546706914901,0.419685959815979,0.2182392477989196
4.723433593750002,0.8920079492557793,-0.8633207108885049,-1.4178209717988968,-0.2881853878498077,0.4921603500843048,0.2413007169961929
4.733398681640622,1.0358015762276946,-0.748518273666501,-1.4008049550682304,-0.351708173751831,0.5458768606185913,0.2666936814785003
4.743363769531257,1.1258751573193817,-0.6555155803203583,-1.448710615581274,-0.40605428814888,0.5773302912712097,0.2984876334667206
4.753328857421877,1.1530093940909951,-0.4647890103250742,-1.4892957239478826,-0.452899307012558,0.5996646285057068,0.3136170506477356
4.763293945312498,1.0905105600800364,-0.1528492592826485,-1.575249083304405,-0.4850485026836395,0.6006125211715698,0.3202894926071167
4.773258789062496,0.9940428940370678,0.1839332565933465,-1.6088766276180744,-0.4852468967437744,0.591023862361908,0.3239521086215973
4.78322485351562,1.0038070399433374,0.4628700249612331,-1.6662100416898726,-0.4544758796691894,0.5859898924827576,0.3385557532310486
4.793189697265632,1.0558631711993365,0.6747019268274307,-1.6373849292218683,-0.3778274655342102,0.5767008066177368,0.3708857297897339
4.80315454101563,1.1252072679951786,0.8891244297087192,-1.5823767432272433,-0.2757689952850342,0.5462666153907776,0.416432648897171
4.81311962890625,1.1681225728750229,1.0589157637029885,-1.4960206482887268,-0.1559757441282272,0.5019475817680359,0.4655495882034302
4.8230847167968705,1.1673033654466272,1.1545625418171286,-1.2980021677196023,-0.0375682562589645,0.4593759477138519,0.5099753141403198
4.833049804687505,1.1296434968769549,1.1841811427503823,-1.1305074202299117,0.0642039105296135,0.4257082641124725,0.5491451025009155
4.843015625000007,1.136892737352848,1.147708145877719,-0.9361825334817172,0.1444850265979766,0.4066300094127655,0.5792273879051208
4.852980712890627,1.1494571084368974,1.0646008236020803,-0.7342939334809779,0.2064626514911651,0.3935240507125854,0.6077024340629578
4.862945800781247,1.165061723999679,0.9179147631242872,-0.5196873062044381,0.2500110864639282,0.411891758441925,0.632664144039154
4.872910644531245,1.233732086252421,0.7943412826865911,-0.2635357856184244,0.2636376619338989,0.4514074623584747,0.6537241339683533
4.8828754882812575,1.3266156832635403,0.7114408811599016,-0.0608534048914909,0.260715901851654,0.4983381628990173,0.6791459918022156
4.892840576171878,1.4216528050467372,0.6677350104242563,0.1426163268208503,0.2583352923393249,0.532213032245636,0.7028717994689941
4.902806640625002,1.4873039656087754,0.6702540075078606,0.3425122916996478,0.2481026202440261,0.5626559853553772,0.7228082418441772
4.912771728515622,1.4995603667221962,0.6995572588816285,0.5860889928728342,0.2189687043428421,0.576203465461731,0.7451748251914978
4.92273657226562,1.511622706568241,0.697292236559093,0.7689093197882175,0.1862695515155792,0.5740916728973389,0.7658618092536926
4.932701904296877,1.4956458236269652,0.7153422725126147,0.9507768760234117,0.1488524079322815,0.5504116415977478,0.7867900133132935
4.942666748046875,1.45348776685521,0.7575938527867198,1.069278752285242,0.1076098158955574,0.4996052980422973,0.7978516817092896
4.9526318359374955,1.3444725347325206,0.8212050319537519,1.1300696133345365,0.0721213296055793,0.4269494712352752,0.8009049892425537
4.962597656249997,1.1970328063432127,0.8710606574907899,1.178743335610628,0.0355228967964649,0.3619509935379028,0.7907373905181885
4.972562744140632,1.041805712013319,0.8960603664517403,1.2217869430452584,0.0092177875339984,0.3205281794071197,0.7726201415061951
4.98252758789063,0.8961628039129078,0.9014929128944872,1.2681681704699992,-0.0139969820156693,0.2983898818492889,0.7576395869255066
4.99249267578125,0.747204414588958,0.9220900029823184,1.2706617408514025,-0.0386317558586597,0.3025095462799072,0.7397655248641968
