time,ax,ay,az,gx,gy,gz
0.0,-0.8274470681484788,1.8140455644637343,0.2166150444895029,0.8453230261802673,-0.2929388880729675,-0.5215740203857422
0.009964599609375568,-0.8568086255807429,1.4031775294184683,0.5968938800036907,0.9539485573768616,-0.621509850025177,-0.5943220257759094
0.019929687500010118,-1.025214715761691,1.1406161417901517,1.0602151558637618,0.9654778838157654,-0.9014649391174316,-0.6969506740570068
0.02989404296874909,-1.2889417861685155,0.9382423886209724,1.2884183468163013,0.893475353717804,-1.1596426963806152,-0.8387304544448853
0.039858886718747044,-1.4946411766290664,0.7405670224010944,1.3128104452729223,0.7705724239349365,-1.399929404258728,-1.005833625793457
0.049823974609381594,-1.6817741060465574,0.6468024047717452,1.4000883312314747,0.6052886843681335,-1.549125075340271,-1.1889525651931765
0.05978881835937955,-1.849515667904168,0.6263871009916067,1.513297361782193,0.4076421856880188,-1.625743389129639,-1.3517566919326782
0.0697536621093775,-1.902231943569332,0.6237798411026597,1.4836895745038985,0.1776545196771621,-1.6153684854507446,-1.477822184562683
0.07971899414063444,-1.8932069255925716,0.683442574904859,1.442837339633703,-0.0419324152171611,-1.5094062089920044,-1.552843451499939
0.08968383789063239,-1.847582800145447,0.7371054837703704,1.454768015924096,-0.2333353906869888,-1.3177014589309692,-1.575393557548523
0.09964892578125273,-1.746510343720764,0.7617644164696336,1.398141288816929,-0.4195295572280884,-1.0771442651748655,-1.5578763484954834
0.10961376953125068,-1.5750569217331707,0.8283110645666718,1.3024375198185445,-0.5665475130081177,-0.7874264717102051,-1.5093356370925903
0.11957910156250762,-1.3914464673534035,0.779671244560182,1.2963701826035976,-0.6627726554870605,-0.4755321443080902,-1.4069416522979736
0.12954394531250557,-1.190687894295901,0.696141605219245,1.2071937695473431,-0.7041571140289307,-0.2243475914001464,-1.2791887521743774
0.13950878906250352,-0.9310843335598706,0.6612389264032245,0.9709124860793352,-0.6848262548446655,-0.1054837927222251,-1.1740703582763672
0.14947363281250148,-0.7207609365604818,0.6147974932238459,0.7860352266341447,-0.611489474773407,-0.0782196819782257,-1.1224061250686646
0.1594389648437584,-0.5209534536827355,0.5450526336073875,0.7851672116279601,-0.517077624797821,-0.1198185384273529,-1.0945662260055542
0.16940380859375637,-0.3400330055719241,0.4326718705743551,0.7973632608562707,-0.418117493391037,-0.2301546335220337,-1.075459122657776
0.1793688964843767,-0.19116532673873,0.2945896800518036,0.7298422147691249,-0.3052118718624115,-0.3982483744621277,-1.054853916168213
0.18933398437499704,-0.0323700550658628,0.157462306036055,0.7281435941576957,-0.1763340383768081,-0.5976690649986267,-1.0512964725494385
0.1992990722656316,0.1089513365736231,0.0576806200742721,0.7927174808770417,-0.0622609965503215,-0.7998612523078918,-1.050348162651062
0.2092629394531258,0.2321060436099767,-0.0927335210159421,0.8885100972026586,0.0199694279581308,-0.9683546423912048,-1.0467350482940674
0.21922778320312375,0.3223507069522515,-0.2457464464277028,1.051497596400976,0.0516762919723987,-1.070957064628601,-1.036903977394104
0.2291928710937583,0.3233813286416232,-0.4090335130944847,1.2462182044684886,0.0436258241534233,-1.0784425735473633,-1.023081660270691
0.23915795898437864,0.3603958119798451,-0.5495987526044249,1.4498656308352946,-0.0072091897018253,-1.0236375331878662,-1.0057077407836914
0.24912304687499898,0.433112344350852,-0.6434753061756491,1.532057591831684,-0.0927065163850784,-0.9484935402870178,-0.9931000471115112
0.2590881347656335,0.4788430354449898,-0.686821988210082,1.5286603506088257,-0.1864356696605682,-0.8508878946304321,-0.9801216721534728
0.2690527343750091,0.5035531138096004,-0.6820216021910309,1.4757541053295136,-0.280485451221466,-0.7648102641105652,-0.968089759349823
0.27901782226562943,0.6099738724596798,-0.6257850434452294,1.2808961346179246,-0.3711983263492584,-0.7203409671783447,-0.9536306262016296
0.2889829101562498,0.8059018835555761,-0.6047331953272224,1.0683727433562278,-0.4314097166061401,-0.7003728151321411,-0.9234365224838256
0.2989479980468843,0.9648114657904951,-0.6217988964185118,0.8049819191664457,-0.4433730244636535,-0.7025526165962219,-0.8801063895225525
0.3089128417968823,1.0789634762797504,-0.6204626793786883,0.4763917698353528,-0.4307680130004883,-0.7267512083053589,-0.8235727548599243
0.3188779296875026,1.126641903908178,-0.6031359892636537,0.1675192974090576,-0.392590582370758,-0.7440162301063538,-0.7735514044761658
0.32884301757812295,1.0990708100892603,-0.6028454818844795,-0.0264011001914739,-0.3413161933422088,-0.728242039680481,-0.7225822806358337
0.3388078613281351,1.082358598610759,-0.6654843088880181,-0.1759334900110959,-0.2923117578029632,-0.6921066641807556,-0.6887273788452148
0.34877270507813307,1.0822259121418,-0.7219684126541018,-0.4263724781692027,-0.2486947774887085,-0.6443721652030945,-0.6675370931625366
0.3587377929687534,1.1408465164799242,-0.7826192807108163,-0.5564192462742328,-0.2077942788600921,-0.5836051106452942,-0.6368638873100281
0.36870288085937375,1.2332283745139836,-0.8918363190159201,-0.6799801594913005,-0.1701715290546417,-0.5077412724494934,-0.6044005155563354
0.3786679687500083,1.2460982313506304,-0.9507391743615268,-0.7781699000865221,-0.1320052295923233,-0.4203682839870453,-0.5703167915344238
0.3886320800781249,1.3034922895684835,-0.9288687033370135,-0.851750100082159,-0.0995096042752265,-0.3397003412246704,-0.5312498211860657
0.39859667968750045,1.4038137814953922,-0.8842559468895196,-0.9825736977785824,-0.0732962191104888,-0.2940033972263336,-0.4876629412174225
0.408561767578135,1.4863998563759029,-0.7930468589618802,-1.052041201758385,-0.0464928410947322,-0.2592707276344299,-0.4317514896392822
0.41852685546875534,1.674318529343605,-0.8142427917256951,-1.1379606588453053,-0.0178035460412502,-0.2409089505672454,-0.3600458800792694
0.4284919433593757,1.830673897051066,-0.8799576651737093,-1.1917302429556846,-0.0020871683955192,-0.2289084792137146,-0.287453681230545
0.43845703125001023,1.808933774407953,-0.8591109842389821,-1.2655208708316088,0.00571602396667,-0.2277768105268478,-0.2225242108106613
0.4484218750000082,1.6478627763554452,-0.8691901874437927,-1.3360019357681274,0.0055541042238473,-0.2019167095422744,-0.1694817692041397
0.45838671875000614,1.4529739721141754,-0.8409285540774464,-1.4052999283999204,0.0003883829340338,-0.1631961166858673,-0.1342817097902298
0.4683518066406265,1.3474451208025215,-0.8290352871879935,-1.4974024580359455,0.0008317986503243,-0.1127723604440689,-0.122400015592575
0.4783168945312468,1.329598936858028,-0.8506114514410495,-1.5982389137476682,0.0012349775061011,-0.0637077987194061,-0.1133801490068435
0.488281738281259,1.3677860441721974,-0.8459054657071828,-1.7045511705219745,0.0083770425990223,-0.0356125123798847,-0.0896718874573707
0.4982468261718793,1.4638736979216336,-0.8367574058726429,-1.85789990375936,0.0164820700883865,-0.0173366330564022,-0.0675551295280456
0.5082119140624997,1.525055457984656,-0.8132149099826812,-1.937189129051566,0.0282769426703453,0.0162069462239742,-0.0424473844468593
0.5181770019531342,1.574287983187288,-0.7949877638965844,-1.954168320903182,0.024974912405014,0.0553840957581996,-0.019512241706252
0.5281420898437545,1.5051049952372908,-0.7437462369590997,-2.018804166942835,-0.0098877307027578,0.0947243124246597,-0.0142647493630647
0.5381066894531301,1.4398198915086686,-0.5963678103029728,-2.100820771372318,-0.0542431473731994,0.132476732134819,-0.0211551543325185
0.5480720214843728,1.3748326016828416,-0.4407034935995936,-2.170359587022662,-0.1055832952260971,0.1715964376926422,-0.0194645803421735
0.5580358886718813,1.261750996904075,-0.2106383081674575,-2.235102985090017,-0.1434080302715301,0.2238121777772903,-0.0175628196448087
0.5680009765625016,1.1517249803036451,0.0716845955073833,-2.307539860269427,-0.1578096002340316,0.2804120481014251,-0.0232140459120273
0.5779660644531219,1.005616573583335,0.4265104253351688,-2.34375274490118,-0.1533061116933822,0.3296848833560943,-0.0120751019567251
0.5879306640624975,0.8806016621656715,0.7957286453917622,-2.2638439264059067,-0.1306982785463333,0.3964979946613312,0.021610690280795
0.5978959960937544,0.8351074467085301,1.112118069319427,-2.0303268469542264,-0.0870690569281578,0.4969922602176666,0.0848202854394912
0.6078608398437524,0.8735822849228978,1.3657932629197835,-1.7278315083444118,-0.0023680124431848,0.6177994012832642,0.1798964738845825
0.6178259277343727,0.9788396258167922,1.598049236394465,-1.4749766912162303,0.1244927048683166,0.7161704301834106,0.2937956154346466
0.6277907714843849,1.1125396557323637,1.7270882887616752,-1.11935824970603,0.2634857296943664,0.7840458750724792,0.430676519870758
0.6377561035156276,1.2355604707233607,1.845252603632212,-0.7086503736585378,0.3920024633407593,0.8008708357810974,0.5665019750595093
0.6477209472656256,1.3545336177587508,1.873914926753938,-0.3210007171154022,0.4906864166259765,0.7719544768333435,0.6943216919898987
0.6576857910156235,1.4463358492739498,1.8658941173836587,0.0460416202068328,0.5526106357574463,0.7116796970367432,0.8098168969154358
0.6676506347656357,1.4807507445730268,1.7803806107491251,0.3365460767716169,0.5757375359535217,0.6317350268363953,0.9055505990982056
0.6776159667968784,1.5156740277856589,1.685896446673572,0.5390238748371601,0.5581941604614258,0.5421938896179199,0.9885711669921876
0.6875808105468764,1.5542197392791508,1.5411168043389916,0.659833443519473,0.5025047659873962,0.4610229134559631,1.0470536947250366
0.6975458984375109,1.5127765527784824,1.4078829306304457,0.6891583222031593,0.4372160136699676,0.4064255952835083,1.0858827829360962
0.7075109863281313,1.4178288628444076,1.2977671899199483,0.6896516586780548,0.3574114739894867,0.3920157849788666,1.1140034198760986
0.7174758300781292,1.2502084431484342,1.2183195591956375,0.6260773043900728,0.2761829495429992,0.4172045588493347,1.1292604207992554
0.72743994140626,1.1185589160218834,1.2099193951189515,0.3938192850887775,0.2231256067752838,0.4493734240531921,1.1239372491836548
0.737404785156258,1.0578849593505262,1.1521835377261045,0.1169067160248756,0.2017033100128173,0.468470811843872,1.112926363945007
0.7473698730468783,0.9935160206187515,1.1439432403862475,-0.1845990270256996,0.2183725833892822,0.4509826302528381,1.1063984632492063
0.7573349609374986,0.9284735665395856,1.1743784183993935,-0.4063052571743726,0.2473578751087188,0.4036608338356018,1.0951602458953855
0.7672998046875108,0.822053465476632,1.246594344304502,-0.5264911410003901,0.2678650319576263,0.3502351641654968,1.076399326324463
0.7772651367187535,0.6510746021982282,1.3443363411322236,-0.4812736966580152,0.2669042348861694,0.3194965720176697,1.053155779838562
0.7872297363281291,0.4724831450242548,1.4216504669591783,-0.3267477363348007,0.2387884557247162,0.3316818475723266,1.034271240234375
0.7971948242187494,0.3631504079176113,1.4689832960203288,-0.17674655995965,0.2036703824996948,0.3822386264801025,1.0251818895339966
0.8071596679687474,0.3347346069028601,1.5071104898408054,-0.0643839171051979,0.1731867790222168,0.471224695444107,1.0181101560592651
0.8171250000000043,0.380518379891105,1.4629916543900965,0.1687871253877878,0.1577678620815277,0.6153732538223267,1.0183415412902832
0.8270898437500023,0.4648664229428395,1.431875216114521,0.4023673332035541,0.1504135429859161,0.7747336030006409,1.0157151222229004
0.8370549316406226,0.6163278445962816,1.3949226190313695,0.6177502055495977,0.1415545344352722,0.8907586932182312,1.0202676057815552
0.8470197753906348,0.7918200936459004,1.330829209305346,0.8614245218783616,0.1181123256683349,0.9500694274902344,1.0273481607437134
0.8569848632812551,0.9442824725028128,1.2874480404794215,1.085357195904851,0.0802851989865303,0.9656358361244202,1.0354225635528564
0.8669499511718755,1.0007035209700466,1.236731998720765,1.2587684739619494,0.0349901542067527,0.9509562253952026,1.0398402214050293
0.8769147949218734,0.993307857760787,1.1455006989613177,1.367263919994235,-0.0028546741232275,0.9259868860244752,1.0406221151351929
0.8868789062500042,0.9777933316342532,1.038895888981223,1.467446295711398,-0.0301744453608989,0.8877830505371094,1.0373797416687012
0.8968437500000022,0.981332757806778,0.938213747048378,1.4771271472483871,-0.0571505539119243,0.835219144821167,1.026321530342102
0.9068090820312591,0.998773283559829,0.7908247989982367,1.5188690244346856,-0.0737399235367775,0.7959764003753662,1.01870596408844
0.9167736816406347,0.9715433313287792,0.6335390185728669,1.5548679740548133,-0.0944140776991844,0.7628298401832581,1.0110799074172974
0.926738769531255,0.8836883761346339,0.4780705167025327,1.5553390986979008,-0.1371676623821258,0.735181987285614,0.998628318309784
0.9367038574218753,0.8078535290800034,0.3528177048757672,1.5380530328541993,-0.2106024920940399,0.706649661064148,0.9781180024147034
0.9466689453125099,0.7071298860929905,0.2262497187972068,1.4379080665379762,-0.3063543140888214,0.6829184889793396,0.9630042910575868
0.9566340332031302,0.5384675195960328,0.0837505886152386,1.2577192571699618,-0.3943023085594177,0.6757792830467224,0.9475944638252258
0.9665988769531282,0.3386385555388406,0.0006911971345543,1.061138115927577,-0.4744860827922821,0.6855373382568359,0.9333015084266664
0.9765639648437485,0.1520701646689325,-0.0696995591700077,0.7855600103378295,-0.5295640826225281,0.6964002847671509,0.9083940386772156
0.9865288085937607,-0.0444829560553655,-0.1175537817567586,0.3907628201276064,-0.553626537322998,0.7035815119743347,0.8700985908508301
0.996493896484381,-0.2322553889527916,-0.1701551988705992,0.0251852946609258,-0.5205337405204773,0.7311946153640747,0.8258901238441467
1.006458740234379,-0.4069430436212569,-0.2775894454121589,-0.2727408363372087,-0.4363245964050293,0.7697531580924988,0.783799946308136
1.0164238281249993,-0.5083152867101133,-0.3801674840942025,-0.5580453861713409,-0.3237102031707763,0.7848824262619019,0.7514406442642212
1.0263889160156339,-0.525311064370349,-0.5139698053404689,-0.755590404009819,-0.2117945849895477,0.7664690613746643,0.7218481302261353
1.0363540039062542,-0.5355036648217588,-0.6542088816359639,-0.8169003204971551,-0.1213338151574134,0.7210301756858826,0.6964165568351746
1.0463178710937484,-0.5882819728724659,-0.7663190110340714,-0.8506751643270254,-0.0530785918235778,0.6410338878631592,0.6649057269096375
1.0562827148437606,-0.658188233595714,-0.8377417407348752,-0.8475403734326362,0.0029563317075371,0.5248766541481018,0.6259288191795349
1.066247802734381,-0.7816518239181488,-0.8728659533470868,-0.8473732001721859,0.0434994958341121,0.4055470824241638,0.5819656252861023
1.0762128906250013,-0.9453769166760146,-0.8674301920339464,-0.7881728231847286,0.0794372335076332,0.3147234916687011,0.5367206335067749
1.0861779785156358,-1.1583269358519463,-0.8538178462669253,-0.6588526157885789,0.0968348681926727,0.2767398953437805,0.4900727272033691
1.0961430664062561,-1.320229050966352,-0.8013166746571659,-0.4788976151764392,0.1009905636310577,0.2758648991584778,0.4543429613113403
1.106107910156254,-1.4042901668354868,-0.8021972568839788,-0.3597340601354837,0.1032734215259552,0.2915117740631103,0.4436216056346893
1.116072753906252,-1.3682893175192177,-0.8814815137401223,-0.3336415875017642,0.1271320730447769,0.3048175573348999,0.4403200447559356
1.1260378417968724,-1.2646578242614863,-0.9944064666524528,-0.2782686598479748,0.1642868965864181,0.3116882443428039,0.4434109032154083
1.136002929687507,-1.157063199526444,-1.1064832783028482,-0.3412392030239105,0.2167724817991256,0.2761405110359192,0.4561605453491211
1.1459677734375049,-1.0961593065567314,-1.1913868363454938,-0.3917781346499919,0.2797607481479645,0.1986760944128036,0.4737299382686615
1.1559328613281252,-1.060418350285664,-1.2160679808765649,-0.4553723626822233,0.3526722490787506,0.0654292255640029,0.4802339076995849
1.1658979492187598,-1.0473978329319509,-1.3377210146456957,-0.5739484732240439,0.4143313467502594,-0.1036221086978912,0.4771837890148163
1.1758630371093801,-1.083073030490428,-1.4498548171803354,-0.6409264984756707,0.4690306484699249,-0.2737093865871429,0.4412796199321747
1.1858276367187557,-1.161185978544876,-1.501048413322866,-0.6847486890673637,0.5181585550308228,-0.434200257062912,0.3709865510463714
1.195792724609376,-1.1817575688652693,-1.495701499336958,-0.7521282808572054,0.5322306752204895,-0.5669078826904297,0.2728850245475769
1.2057568359375068,-1.233844022194296,-1.484824423752725,-0.741504010990262,0.5179563760757446,-0.6635854244232178,0.1650264412164688
1.2157219238281272,-1.288396427245438,-1.343089848202467,-0.675190002605319,0.4487657248973846,-0.7126351594924927,0.0494242124259471
1.2256870117187475,-1.2714143127843738,-1.2082923784390092,-0.575360093587637,0.3358639478683471,-0.6973541975021362,-0.0571001023054122
1.2356518554687597,-1.1860001018058508,-1.16137660574615,-0.4431149386554956,0.1839923858642578,-0.6154075264930725,-0.1434714794158935
1.2456166992187576,-1.1919149518728256,-0.9453221177488564,-0.3593582125604152,-0.0144541282206773,-0.5127605199813843,-0.1963301599025726
1.255581787109378,-1.3063919565327464,-0.5430377866536379,-0.4895142862588167,-0.2392753809690475,-0.4276025593280792,-0.2449048906564712
1.2655468749999983,-1.493170519554615,-0.1179910041302442,-0.6043038639992475,-0.4495825469493866,-0.3120676875114441,-0.2933107614517212
1.2755119628906328,-1.716473371244967,0.3021098464235663,-0.7038239764153957,-0.6240288615226746,-0.1612073630094528,-0.3454778492450714
1.2854768066406308,-1.9112720129847525,0.6490022529035806,-0.786443222913146,-0.7508392930030823,0.0437673591077327,-0.3933841288089752
1.2954421386718735,-1.9592131832025943,0.9652397011399269,-0.9126777392536402,-0.8068088293075562,0.2426756024360656,-0.436331570148468
1.3054069824218857,-1.8970162547476588,1.260546297289431,-1.1106599794656038,-0.7731494307518005,0.4075771868228912,-0.4776992499828338
1.3153718261718836,-1.7851532319784162,1.494796659451723,-1.187780044025183,-0.6610603332519531,0.5190252661705017,-0.5016514658927917
1.3253366699218816,-1.5979432918019592,1.6659528520584106,-1.197403027895093,-0.484289288520813,0.5464004278182983,-0.5070241093635559
1.3353020019531243,-1.3255097678482533,1.7604244489133356,-1.1310375815838574,-0.2551457285881042,0.4783361554145813,-0.4894629418849945
1.3452668457031223,-1.078177951925248,1.7777333111107347,-0.9907593423217534,0.0039300471544265,0.3144843578338623,-0.4711191058158874
1.3552351074218763,-0.8623742968838661,1.762636572004855,-0.7775199117451905,0.2670027911663055,0.0763500779867172,-0.4553558826446533
1.365199218750007,-0.72391830461286,1.659269721032679,-0.4942436528682708,0.5027079582214355,-0.2037699818611145,-0.4559596180915832
1.375164062500005,-0.6746310535483062,1.506460209238529,-0.029994740769267,0.6708347797393799,-0.4333734214305877,-0.4770941734313965
1.3851293945312477,-0.6563456744689494,1.3617998093694448,0.5955015488624572,0.7331266403198242,-0.607193648815155,-0.5047774910926819
1.39509423828126,-0.5951807194102555,1.2132269122317432,0.9678080903232096,0.7038187384605408,-0.7647793889045715,-0.5357396602630615
1.4050593261718802,-0.5519502111013979,1.0595035004630684,1.2555506809592247,0.6192407011985779,-0.8907591700553894,-0.5618740916252136
1.4150241699218782,-0.5703904884815215,0.9459408341690896,1.580223364585638,0.4876832962036133,-0.9450060725212096,-0.5882593393325806
1.4249892578124985,-0.5614808405127376,0.8593824946567415,1.7709113561362029,0.3215025663375854,-0.9599368572235109,-0.6102477312088013
1.434954345703133,-0.551703506331332,0.7406725286021828,1.815420944470167,0.1422740817070007,-0.9212359189987184,-0.6135470867156982
1.444919189453131,-0.6027180195799097,0.6638602148175239,1.8288988502025605,-0.0302209872752428,-0.8231476545333862,-0.6029804944992065
1.4548842773437514,-0.6873153977502137,0.6005334055498242,1.7879080836445091,-0.1870280057191848,-0.6811496615409851,-0.5835311412811279
1.464849365234386,-0.7477491159249097,0.537979626481235,1.6917027948647736,-0.3215411007404327,-0.5181061625480652,-0.5596505999565125
1.4748144531250063,-0.7409838595736772,0.4733648232296109,1.596485932600498,-0.437475323677063,-0.3623741865158081,-0.5366318225860596
1.4847790527343818,-0.7039404424019158,0.4105827883630991,1.476294203555584,-0.5306893587112427,-0.2343557626008987,-0.5050408840179443
1.4947441406250022,-0.6408975646421313,0.3737053023427724,1.3500082492887973,-0.5909527540206909,-0.1573545485734939,-0.4706639647483825
1.5047092285156225,-0.5572955541847273,0.3432750927656888,1.0899287416040897,-0.5899338722229004,-0.1442672461271286,-0.4640356302261352
1.5146733398437533,-0.4832173050064593,0.3111033002182841,0.9359580770760774,-0.542076051235199,-0.1465040743350982,-0.4759247601032257
1.5246384277343736,-0.4501429010635241,0.2609408006891608,0.8627209914296865,-0.4702143669128418,-0.1777538806200027,-0.4779016375541687
1.5346032714843858,-0.4227432182887569,0.2038055395379662,0.8301274663388729,-0.3985455930233001,-0.229935735464096,-0.4725726544857025
1.5445681152343838,-0.2865079342745244,0.155401574113965,0.8091179960578679,-0.3246426284313202,-0.3148269355297088,-0.4749588370323181
1.554533203125004,-0.1513978548979386,0.0657826779872179,0.7656722375631332,-0.2412117719650268,-0.4245055913925171,-0.4720434844493866
1.5644982910156244,-0.0367981006411835,-0.0481049824774265,0.8317360705792903,-0.1569885015487671,-0.5092144012451172,-0.4608643352985382
1.5744631347656224,0.0667122504549101,-0.1942611738622188,0.955843511763215,-0.1058665663003921,-0.5636433959007263,-0.4341978728771209
1.584428222656257,0.1742388331887312,-0.3071066317975521,1.1019470961779356,-0.0749973356723785,-0.5722177028656006,-0.3901720941066742
1.5943935546874997,0.2195105650016106,-0.4188993658095598,1.2359709512203931,-0.0595631748437881,-0.5429461598396301,-0.3315944969654083
1.6043583984374976,0.2602030062002129,-0.5140118909165263,1.3419003461569547,-0.0671190917491912,-0.4784350991249084,-0.2570970952510834
1.6143232421875098,0.3763499716326594,-0.5566530550301074,1.329870301145315,-0.0910151824355125,-0.4056023955345154,-0.2139054238796234
1.6242880859375077,0.3902572452256456,-0.5618792652457952,1.229533027127385,-0.1166654229164123,-0.3202765583992004,-0.1645756959915161
1.634253173828128,0.318685900834389,-0.553897618842125,1.1442308251559734,-0.1298385113477707,-0.1899776607751846,-0.1165272071957588
1.6442182617187484,0.2940828265082091,-0.7043143902808428,1.0656482868283987,-0.1301812529563903,-0.053054429590702,-0.0427411310374736
1.654183349609383,0.3719915572274476,-0.820138279505074,0.8631348329275846,-0.1347047537565231,0.0590751133859157,0.0163943581283092
1.664148193359381,0.4931839877475052,-0.769863259512186,0.6410059934526682,-0.1340339034795761,0.1173232346773147,0.0417247489094734
1.6741120605468751,0.670408029025793,-0.8723071504205465,0.3332745077550411,-0.1073973849415779,0.109151467680931,0.0452782064676284
1.6840771484375097,0.744293568643555,-0.9135410780847072,0.0727899264007806,-0.0433209352195262,0.066225841641426,0.0310579929500818
1.69404223632813,0.7746699291415512,-0.9539829785883426,-0.0547913283735513,0.0388028398156166,0.0141511270776391,0.0236333645880222
1.7040073242187503,0.8022680570978671,-1.0453259220287203,-0.1700239737063646,0.1091672778129577,-0.0262626074254512,0.0266443341970443
1.7139721679687483,0.8594958919033407,-1.1041478210926057,-0.3303337781280279,0.1646836251020431,-0.060965247452259,0.0374381318688392
1.7239372558593828,0.9380696624025702,-1.127487487886846,-0.4893219785571098,0.2209836393594741,-0.0654012784361839,0.0525672808289527
1.7339023437500032,0.9566061666987836,-1.1975620178490876,-0.6536094544380903,0.2704062461853027,-0.0554754771292209,0.0758337154984474
1.7438671875000011,0.8629785463873296,-1.1211407492086292,-0.824036163726449,0.3189578056335449,-0.0024040061980485,0.0824351608753204
1.7538322753906357,0.7683927485682069,-1.050162548404932,-0.919492679965496,0.3533391058444977,0.0804882869124412,0.1018594577908515
1.7637971191406336,0.7731329288326203,-1.0610960303515196,-1.1294231321245431,0.3802580833435058,0.1785762459039688,0.1225934997200965
1.7737624511718764,0.8615254249695687,-1.0686568209946157,-1.2435714893519878,0.398162305355072,0.2750795185565948,0.137044608592987
1.7837272949218743,1.050969773134589,-1.192718669471145,-1.41494278601408,0.4267510771751404,0.3702084422111511,0.1513111591339111
1.7936923828125089,1.294992026118189,-1.3425421511918303,-1.5739526137530804,0.4648410975933075,0.4364400207996368,0.1902031749486923
1.8036572265625068,1.5582454876638947,-1.3038485556602477,-1.6717308509379625,0.4892423152923584,0.4909152388572693,0.2502838373184204
1.8136223144531272,1.7697990109801292,-1.315077221161127,-1.8078291741669177,0.5113138556480408,0.5152780413627625,0.3502388894557953
1.823586425781258,2.006533737304061,-1.316897714586556,-1.9980220756769176,0.5390927195549011,0.5291168689727783,0.4887347221374511
1.833551269531256,2.0139795232653617,-1.2069056002557277,-2.26478909830153,0.5628158450126648,0.5810863971710205,0.627350389957428
1.8435163574218763,1.9119613104231652,-1.0743579552456737,-2.2459727541506287,0.6043494343757629,0.7123389840126038,0.7488850951194763
1.8534812011718742,1.979302762159705,-1.0905585639402269,-2.2335335438162085,0.6278523802757263,0.8336893320083618,0.8739116787910461
1.8634465332031311,2.0807725473389027,-1.2514628271237016,-2.4193951381236314,0.5896610617637634,0.9125149250030518,0.9999894499778748
1.8734111328125067,2.0199166582293806,-1.2344243063002824,-2.399878536748886,0.5233640670776367,1.0246044397354126,1.0810315608978271
1.883376220703127,1.9132165711812676,-1.0992875215798616,-2.6168781966418027,0.4653031527996063,1.1184169054031372,1.1114081144332886
1.893341064453125,1.751894667107612,-0.9747940036877988,-3.098485070776939,0.470965176820755,1.179670810699463,1.0836739540100098
1.903306396484382,1.4632590731546282,-0.5769511621713638,-3.481254554063081,0.5095000863075256,1.194358229637146,1.016485571861267
1.9132712402343799,1.2667992202043532,-0.0248112006515264,-3.71333897036314,0.5832313299179077,1.1822044849395752,0.9300132989883424
1.9232363281250002,1.1590524736475198,0.3527127831965684,-3.659164312583208,0.7029923796653748,1.1662702560424805,0.8462281227111816
1.9332014160156348,1.0441131121728568,0.7399328161507844,-3.4379140095084906,0.8310304284095764,1.1421117782592771,0.7745182514190674
1.9431662597656327,0.9598306817032396,1.1045476340651512,-2.9529332750260826,0.9448411464691162,1.121363878250122,0.7356874942779541
1.953131347656253,0.9819499398570508,1.3556401176959276,-2.310233337137103,1.0420738458633425,1.0907047986984253,0.7362779378890991
1.963096191406251,1.0410752057816832,1.516684666132927,-1.744836419159174,1.1157898902893066,1.0548185110092163,0.7360078692436218
1.9730612792968856,1.0589663248464465,1.6883680974841118,-1.0976701495110988,1.1521471738815308,1.038876175880432,0.7275251746177673
1.9830253906250022,1.1144549147691578,1.6758488076508045,-0.3692582598060369,1.1523879766464231,1.0830047130584717,0.7454514503479004
1.9929904785156225,1.1187179790411144,1.5698247201681137,0.232388952204585,1.1149344444274902,1.1246780157089231,0.7908021807670593
2.0029553222656347,1.1678824074435978,1.3728338290810584,0.5632417857706546,1.0396522283554075,1.0988062620162964,0.8270845413208008
2.0129201660156326,1.1823729242846368,1.1587351513266562,0.8600748608350753,0.9408000707626344,1.042241454124451,0.8240365386009216
2.022885253906253,1.1809169533226638,0.8679670753896236,1.199804828339815,0.8119848370552063,0.9555619955062866,0.7655394077301025
2.032850097656251,1.1924506661847234,0.6501923394709825,1.374057817918062,0.6598315238952637,0.8325161337852478,0.6772164702415466
2.042815429687508,1.2424208580121396,0.5175257442563772,1.4270377129554748,0.4962292015552521,0.6733954548835754,0.58678138256073
2.052780273437506,1.213590338716656,0.4516220702379941,1.4786813909530638,0.3279408812522888,0.5152530670166016,0.5045421719551086
2.062745361328126,1.0991164027966558,0.519415503525734,1.5480337441205978,0.1711723208427429,0.3788683116436004,0.441778689622879
2.0727099609375017,0.9262774447347968,0.6954922013998032,1.5099042122125623,0.0142888985574245,0.2624664604663849,0.4031386077404022
2.0826752929687586,0.7166611000262201,0.8807394632011651,1.5624118135631084,-0.1263816654682159,0.2142558246850967,0.3799627125263214
2.0926401367187566,0.5140812298256904,1.0623691190272568,1.7292565727114677,-0.2572015523910522,0.2504737973213196,0.361609011888504
2.102605224609377,0.293166442315653,1.3108394374608994,1.7957400924444198,-0.3864548802375793,0.3258558809757232,0.3543314039707184
2.1125703124999973,0.0778346425697207,1.58700791015923,1.84708332619071,-0.5036735534667969,0.4583479464054107,0.3584539890289306
2.122535400390632,-0.0348994639456272,1.7545049957364796,1.975162593615055,-0.6297670602798462,0.6116946339607239,0.3846735954284668
2.132499267578126,0.0420125108212232,1.8401485584914683,1.941094904318452,-0.7491188049316406,0.705971360206604,0.4140812754631042
2.142464111328124,0.1243359892427921,1.96875623370409,1.8608418024301527,-0.8651040196418762,0.7590832710266113,0.4402084946632385
2.1524291992187585,0.1649881714962423,2.022180949899554,1.9091139581680296,-0.957480788230896,0.7986238598823547,0.4824305176734924
2.162394287109379,0.1643655095532536,1.990406924498081,1.9341893627136943,-1.022842526435852,0.8086615800857544,0.5456432700157166
2.172359374999999,0.161466573241353,1.944253660610318,1.838966655230522,-1.0686293840408323,0.7647427916526794,0.6058632135391235
2.1823244628906338,0.1207806348487734,1.93654790853858,1.7682617184102534,-1.0813109874725342,0.6933509111404419,0.6448409557342529
2.1922890625000093,0.0568809941291809,1.885382953968644,1.7109686363488434,-1.0694504976272583,0.604515016078949,0.6562052369117737
2.2022541503906297,-0.0472352139055728,1.8681418963104488,1.6021832674592733,-1.0330621004104614,0.4972402453422546,0.6454734802246094
2.21221923828125,-0.1416957048445939,1.809134411546588,1.388955527320504,-0.973651647567749,0.3719997107982635,0.6138058304786682
2.2221843261718845,-0.287835529616475,1.7486825731933116,1.1501876877337691,-0.893195390701294,0.2470175325870514,0.5668691992759705
2.2321491699218825,-0.4542345908239483,1.6624989122122524,0.97638653357625,-0.7970988750457764,0.1832598000764846,0.5196207165718079
2.242114257812503,-0.5899250639043748,1.496956467834115,0.9438806867688894,-0.6885406970977783,0.1672033220529556,0.483397513628006
2.252079345703123,-0.6567483369857072,1.3148241231828928,0.8152782722532749,-0.5830509662628174,0.1432205587625503,0.4739128947257995
2.2620444335937577,-0.621741759403795,1.11100309381485,0.72263389082551,-0.5105669498443604,0.1095733791589737,0.4716505408287048
2.2720092773437557,-0.5991131634883582,0.955754079914093,0.7732751137822866,-0.4647631347179413,0.0728024095296859,0.462740957736969
2.28197314453125,-0.6412406789913773,0.777756058588624,0.806340932559967,-0.4404575228691101,0.042358748614788,0.454180508852005
2.2919382324218844,-0.6763125768944621,0.558701804253459,0.8467161975681782,-0.4414567351341247,0.0085004614666104,0.4363082945346832
2.3019033203125048,-0.6764429252758621,0.3966109616339206,0.8576298057705164,-0.4635396897792816,-0.0148687772452831,0.4064159095287323
2.311868408203125,-0.7236041971623897,0.1584220909789204,0.8134756067454815,-0.4967776238918304,-0.0287532582879066,0.368816077709198
2.321833251953123,-0.8389611995272338,-0.0663859045773744,0.7659498854607343,-0.5373325347900391,-0.0321493223309516,0.3184573054313659
2.3317980957031352,-0.9432206154249608,-0.1898886578664183,0.6070259824395179,-0.5932783484458923,-0.0601102113723754,0.2568682432174682
2.3417631835937556,-1.059227898392081,-0.3246034177824854,0.2631453249961137,-0.6482976675033569,-0.1054561212658882,0.1799798309803009
2.3517246093749975,-1.1881823412157595,-0.3801601775705814,0.0751566555321216,-0.6903070211410522,-0.1347757875919342,0.0903948247432708
2.361689697265632,-1.2671616237759589,-0.4944464819639921,-0.2001134070217609,-0.7181397676467896,-0.166580319404602,0.0129319876432418
2.37165454101563,-1.319725339227915,-0.5758692121535539,-0.4286591278016567,-0.7199872732162476,-0.1622963547706604,-0.0398790314793586
2.3816196289062503,-1.394895438763499,-0.6666545217111707,-0.6435989325553179,-0.698050856590271,-0.1580398231744766,-0.0684768483042717
2.391584716796885,-1.4555213185094296,-0.7495029007896781,-0.8320680790126324,-0.664982259273529,-0.1500927507877349,-0.0732513666152954
2.4015498046875052,-1.5147067901887,-0.7730623478144407,-0.9646972648262976,-0.6214827299118042,-0.1459635198116302,-0.0746575146913528
2.411514404296881,-1.531611163238436,-0.8289674826487898,-1.1289806490540504,-0.5604519248008728,-0.1535661220550537,-0.0684062838554382
2.421479492187501,-1.5483581537693738,-0.9674261052682996,-1.2062602880895137,-0.4814945459365845,-0.1844579875469207,-0.0477603897452354
2.431443603515632,-1.482563785344362,-1.1994608372077344,-1.3037912725150584,-0.3944122195243835,-0.2210128754377365,-0.0324671864509582
2.4414086914062523,-1.3679896039202808,-1.5294152606293558,-1.4271487721145153,-0.2848436534404754,-0.2916646897792816,-0.0163326933979988
2.4513737792968726,-1.2931965210035443,-1.8366750371620055,-1.556197176831961,-0.170480728149414,-0.4074721932411194,0.0038039975333958
2.4613386230468848,-1.273618252569437,-2.1181778566256164,-1.6844091307252644,-0.0562337711453437,-0.5636277198791504,0.0227265562862157
2.4713034667968827,-1.2546990325659513,-2.3974796589136123,-1.8665262778073548,0.0497533120214939,-0.7420800924301147,0.0357209220528602
2.481268554687503,-1.2618018503084778,-2.610109433159232,-1.920422703167796,0.1473925113677978,-0.8866577744483948,0.0318236537277698
2.4912336425781234,-1.291513828613609,-2.880487924279272,-2.031739636361599,0.2196404784917831,-1.0255743265151978,0.0042205220088362
2.501198730468758,-1.4312088611602782,-3.0021386199608444,-2.2039310172349214,0.2526772320270538,-1.113033413887024,-0.0574548244476318
2.511163574218756,-1.533931130618602,-3.066843731844425,-2.2416800253927707,0.2452050447463989,-1.127644658088684,-0.1658249795436859
2.5211289062499986,-1.5500693416014313,-3.0962147877573964,-2.439586277759075,0.1930470168590545,-1.1499481201171875,-0.3058212101459503
2.531093750000011,-1.6608464688301086,-2.7319536055862903,-2.6481191380798816,0.079037494957447,-1.1983333826065063,-0.4846127927303314
2.5410585937500088,-1.8445196131825443,-2.202676340998709,-2.8235101917773484,-0.1111755892634391,-1.257390379905701,-0.6699507236480713
2.5510234375000067,-2.0968048137292263,-1.5792583189457654,-2.969365354388952,-0.3331391513347626,-1.2695865631103516,-0.8633231520652771
2.5609887695312494,-2.4630989630326625,-0.8807292340680957,-3.04311155860126,-0.5344544053077698,-1.1792784929275513,-1.0367950201034546
2.5709536132812474,-2.7262983563035723,-0.3270136937946081,-3.0545728638142347,-0.6913530826568604,-0.9548718333244324,-1.1667869091033936
2.580917724609378,-2.7768916484653947,0.2621615746557712,-2.964185321402549,-0.7572939991950989,-0.6282979846000671,-1.24484121799469
2.5908828124999985,-2.6130866954043506,0.7862377634689212,-2.984293458929658,-0.7166447639465332,-0.3107050359249115,-1.248049020767212
2.600847412109374,-2.2165243952177462,1.1626695681661368,-2.943262944883108,-0.573208212852478,-0.0236005745828151,-1.1940139532089231
2.610812744140631,-1.7531190943360329,1.4413786652579903,-2.7859330330550667,-0.359216570854187,0.1950457394123077,-1.114974021911621
2.620777587890629,-1.3285710551150145,1.6206427609965204,-2.542000358051061,-0.0877509713172912,0.3429830074310303,-1.017846703529358
2.6307426757812493,-0.9858002586096524,1.7687123847872015,-2.232370929777622,0.201755404472351,0.3948372900485992,-0.920135259628296
2.640707763671884,-0.6972133261039852,1.899988694687188,-1.9004589425474403,0.4884646534919739,0.354542076587677,-0.8445800542831421
2.650672607421882,-0.5013393467502668,2.0300094515681266,-1.5123475137114524,0.755974531173706,0.2198094427585601,-0.7989936470985413
2.6606379394531245,-0.3119638625703751,2.1768732067003844,-1.060850531157851,0.9895350933074952,0.026903910562396,-0.7897160053253174
2.6706025390625,-0.1726955310031771,2.304329081529379,-0.6655605889946222,1.1608483791351318,-0.2342812567949295,-0.7995412349700928
2.6805676269531347,-0.148511376208812,2.380993511275947,-0.2019569890618324,1.2801971435546875,-0.4716405570507049,-0.8083043694496155
2.6905324707031326,-0.1149424302145838,2.389727437351644,0.445367101496458,1.3339732885360718,-0.6245161294937134,-0.8010480403900146
2.7004978027343753,-0.1141985895773395,2.3420479868099093,1.0504466260433196,1.320807695388794,-0.7013797163963318,-0.7710062265396118
2.7104626464843733,-0.1592559845197945,2.353257070827484,1.571657196292281,1.2422939538955688,-0.7188310623168945,-0.7384166121482849
2.720427734375008,-0.2141842736786231,2.3276044509157536,1.9377549462407824,1.12727952003479,-0.6942159533500671,-0.7130728960037231
2.730391601562502,-0.3468631438529119,2.347762857325375,2.270312830159068,0.9847871661186218,-0.6326646208763123,-0.7011131644248962
2.7403564453125,-0.4791385843254625,2.361970246376097,2.495838910856843,0.831307053565979,-0.5481870174407959,-0.6876447796821594
2.750321777343757,-0.558147312175855,2.37797533249855,2.6207915706932545,0.6737984418869019,-0.4583751261234283,-0.682449996471405
2.760286621093755,-0.6248622295118867,2.422915128943324,2.7248902430713176,0.5317190289497375,-0.3690961301326751,-0.6891803741455078
2.7702517089843752,-0.6958163918528706,2.462835051399469,2.791566655027866,0.4088406264781952,-0.2850619554519653,-0.6985242962837219
2.780216552734373,-0.7132866551570594,2.476639704868197,2.8520705158293245,0.3032516241073608,-0.2047210484743118,-0.7230352759361267
2.79018188476563,-0.6728487001761794,2.46337514962554,2.9188714309483763,0.2167564779520034,-0.1393921673297882,-0.7509608864784241
2.8001464843750057,-0.5768937694283202,2.4209295080840585,2.97852656596601,0.1427493542432785,-0.0945850014686584,-0.7797701954841614
2.810111572265626,-0.4350855075873434,2.3578777163654565,3.010526216816902,0.0802212655544281,-0.0839453563094139,-0.7932553291320801
2.8200766601562606,-0.2431865328118204,2.261902144688368,3.041037674936652,0.028041947633028,-0.0944906771183013,-0.8060640692710876
2.830041748046881,-0.0903627367639914,2.156084977954626,3.088445907321572,-0.0272521860897541,-0.1349322944879531,-0.816267728805542
2.8400068359375013,0.0022214754417538,2.021350928816199,3.078112144833803,-0.08132154494524,-0.1753689348697662,-0.8283994793891907
2.849971679687499,0.1141085366737097,1.8698124598711727,3.1887913646459576,-0.1441650092601776,-0.198078915476799,-0.8370206952095032
2.8599367675781338,0.2434071898251771,1.6908710202157495,3.1999989873588084,-0.2192701399326324,-0.2274016588926315,-0.8343905210494995
2.8699016113281317,0.3944808177374303,1.5140443807572126,3.2108962289482355,-0.3113411962985992,-0.2681474685668945,-0.8227149844169617
2.8798657226562483,0.5323768380381166,1.3501643166333437,3.223554634991288,-0.4155986309051513,-0.3154523968696594,-0.8073336482048035
2.889830810546883,0.6665136519357562,1.1430205725833773,3.144579297953844,-0.5279501080513,-0.3752283453941345,-0.7706600427627563
2.899795654296881,0.7455577433604746,0.9249860166847704,3.050618573230505,-0.6417741179466248,-0.4314410090446472,-0.7262433171272278
2.909760742187501,0.786771431954205,0.703679891769588,2.9869255609989165,-0.7466368675231934,-0.4596577286720276,-0.6855999827384949
2.9197258300781357,0.8527594963204115,0.4499094211012124,2.886269722551108,-0.8558731079101562,-0.4575064182281494,-0.6604163646697998
2.9296906738281336,0.9980296986509114,0.1427875917345285,2.7364742978811263,-0.9623889923095704,-0.4304882884025574,-0.6316707134246826
2.9396555175781316,1.2332625690445302,-0.2484697339117527,2.571407654321193,-1.0778781175613403,-0.3855447769165039,-0.586958110332489
2.949620605468752,1.5978434846892953,-0.7404609316781163,2.3184704196065664,-1.1878530979156494,-0.3163943886756897,-0.5027881264686584
2.9595856933593723,1.968573570613563,-1.4223457557469603,2.2295389212220904,-1.3034710884094238,-0.1898716241121292,-0.3724015951156616
2.969550781250007,2.183472751095891,-1.918149497538805,2.0507301680356265,-1.4361759424209597,-0.0413730852305889,-0.1977448314428329
2.9795156250000048,2.2620178800225257,-2.259571948175132,1.7508353673130272,-1.5642553567886353,0.0973222106695175,-0.0017007556743919
2.989480712890625,2.2683603809170423,-2.389742050398886,1.1012404092133043,-1.654181718826294,0.1386466920375824,0.1612338423728943
2.999445556640623,2.1745102769613265,-2.222752622082829,0.0977776526629924,-1.6538569927215576,0.0690108835697174,0.275803804397583
3.0094106445312576,2.005831141992658,-2.0612278889134523,-0.867184985101223,-1.5560096502304075,-0.0668429583311081,0.373342365026474
3.019375732421878,1.8027666300803424,-1.9533564199984077,-1.7636141848653557,-1.3678650856018066,-0.2649605572223663,0.4374779462814331
3.029339599609372,1.5691152567245066,-1.832393998841941,-2.6207161673694848,-1.1240392923355105,-0.4999936521053314,0.4365644752979278
3.0393046875000067,1.321073977357894,-1.6680284892886876,-3.288335442459583,-0.8570290803909302,-0.7204592227935791,0.3583980202674866
3.049269775390627,1.253271045589447,-1.7193179470211266,-3.704780985376239,-0.5903528332710266,-0.8597272634506226,0.259477287530899
3.059234619140625,1.3513430050238966,-1.899178547348082,-3.9931244645148514,-0.3538731634616852,-0.9175032377243042,0.1989103704690933
3.0691997070312595,1.486024154931307,-2.050980343404412,-4.128624237328768,-0.1663408577442169,-0.8645044565200806,0.1950272172689438
3.0791645507812575,1.4790098922550678,-1.9955466254740952,-4.0829479433029885,-0.0539823658764362,-0.7400767803192139,0.2330989688634872
3.089129638671878,1.4182611167818306,-1.892453038485348,-4.079809645277262,0.0012555606663227,-0.5576491951942444,0.3040301501750946
3.099094726562498,1.356303842301667,-1.8608903177469969,-4.0364895589888095,0.038376297801733,-0.3152849972248077,0.3882478177547455
3.1090598144531327,1.3644129144772887,-1.911219698275625,-4.082372189241648,0.0836503431200981,-0.0725779682397842,0.4629532098770141
3.1190246582031307,1.3695070227459072,-1.8334993297353384,-4.239322746363282,0.156180739402771,0.1280760318040847,0.5140283703804016
3.1289895019531286,1.38054761832878,-1.6255533293917774,-4.439970990914106,0.268937736749649,0.2495186626911163,0.5387004017829895
3.138954589843749,1.4832311632119115,-1.485370659458637,-4.578343688815832,0.4145761728286743,0.2889326810836792,0.5588746666908264
3.1489196777343835,1.6470124431364237,-1.4757392000213263,-4.748841709774732,0.5838290452957153,0.2629224956035614,0.566606342792511
3.158884765625004,1.61289886887148,-1.4866960628435015,-4.7241187719285485,0.7452272772789001,0.2206860929727554,0.5307096242904663
3.168849609375002,1.376022103728354,-1.234674773930013,-4.5581519646584985,0.8679436445236206,0.1684304326772689,0.4448482394218445
3.1788134765625102,1.1160288860876113,-0.9702741881757974,-4.469443169113993,0.9490960240364076,0.106549747288227,0.3257234692573547
3.1887785644531306,0.8264040619015693,-0.475434615240991,-4.23050406461358,1.0201419591903689,0.0618792809545993,0.1719903498888015
3.198743652343751,0.7007691919546574,0.0395551807969808,-4.032576184937358,1.0935629606246948,0.0265979915857315,0.0440273210406303
3.2087087402343855,0.6693181148972361,0.4009291170939802,-3.5855455341428515,1.1483159065246582,0.056777574121952,-0.00829553976655
3.2186735839843834,0.6952219330910593,0.761371910020709,-3.0529128216475248,1.1963376998901367,0.1305245012044906,0.0142052415758371
3.228638916015626,0.7624207614865154,1.11145989767164,-2.592906953945756,1.2511807680130005,0.2269676923751831,0.0622800961136817
3.238603759765624,0.7296269645832478,1.462203718882799,-2.1213351516127585,1.3114337921142578,0.3256407380104065,0.1121706888079643
3.2485688476562586,0.686666359256953,1.7493205788359043,-1.6922832251012323,1.371966004371643,0.411353051662445,0.1612146645784378
3.258533447265634,0.6577944119725376,1.9536372827664017,-1.2563169891566035,1.415410399436951,0.4923970401287079,0.2121811658143997
3.268498779296877,0.6850345202714204,2.104250161299109,-0.8354261572688817,1.4371402263641355,0.5653647184371948,0.258154809474945
3.278463623046875,0.7335550978124141,2.20762636462152,-0.4141232374489307,1.423322677612305,0.6451250314712524,0.3010141253471374
3.2884287109375094,0.7983208538420498,2.1828189633622763,-0.0049351183146238,1.3720890283584597,0.7334191203117371,0.3453293740749359
3.2983935546875074,0.9105813514962792,2.177044763875008,0.399154216375947,1.2749406099319458,0.8334253430366516,0.3852235376834869
3.30835888671875,1.0246304861329496,2.1452625551670788,0.7710498389482497,1.1358890533447266,0.9470307230949402,0.4299294650554657
3.318323730468748,1.1566652131848036,2.126047567087412,1.080578144934773,0.9622296094894408,1.041581153869629,0.4788147211074829
3.3282885742187602,1.2541837765201926,2.2061761658132077,1.2707716309666632,0.7781171798706055,1.1251846551895142,0.5252386927604675
3.338252685546877,1.3479226751863955,2.2726152618825437,1.5187182177871466,0.6034969091415405,1.206455111503601,0.5737151503562927
3.3482175292968748,1.4300235968984665,2.3185113361388443,1.70897950835824,0.4354965090751648,1.277849555015564,0.6155555248260498
3.3581862792968735,1.4558533269427716,2.3447318190664053,1.92505971531868,0.2726295590400696,1.3576806783676147,0.6743951439857483
3.3681511230468857,1.5250532660275695,2.347635723814368,2.171047569286823,0.1033844500780105,1.436763882637024,0.7366606593132019
3.3781164550781284,1.6110905042752623,2.3741963984817267,2.351908578827977,-0.0750643834471702,1.497718334197998,0.8029842376708984
3.3880812988281264,1.6920428404740988,2.361727962052822,2.476086162638664,-0.263790875673294,1.5273449420928955,0.8786611557006836
3.398046386718761,1.727827416691184,2.315561254161596,2.559603819280863,-0.456306517124176,1.5418615341186523,0.9589091539382936
3.4080114746093813,1.6399509803175925,2.2938439278721807,2.644875041592121,-0.6471390128135681,1.5382107496261597,1.0389333963394165
3.4179765625000016,1.4554001763477922,2.318438855424523,2.5954817728698254,-0.8326191306114197,1.527441382408142,1.0935192108154297
3.427941650390622,1.1511200732130558,2.3320021013528107,2.457362172946333,-0.9872593879699708,1.5342144966125488,1.1182588338851929
3.4379062499999975,0.8939315377295016,2.250256130558252,2.3328385521769524,-1.1054658889770508,1.553935170173645,1.1264121532440186
3.447871337890632,0.6970896997243166,2.2064316018790007,2.175928327065706,-1.2061443328857422,1.56521475315094,1.1232528686523438
3.45783618164063,0.5224177540816366,2.190733682009577,2.006380738699436,-1.2938361167907717,1.570054292678833,1.1051254272460938
3.4678015136718727,0.3970579747490584,2.1558950083404778,1.9483330388784408,-1.3498073816299438,1.6030725240707395,1.0793637037277222
3.477766357421885,0.3017779841206968,2.085343216255307,1.8367378732651471,-1.3809720277786257,1.6413708925247192,1.0604541301727295
3.487730224609379,0.2746180283859372,2.044346896739304,1.7242887211710214,-1.388066291809082,1.6664446592330933,1.0481679439544678
3.4976953124999994,0.2631473708227276,1.9284931968986987,1.581909125715494,-1.3865773677825928,1.6515387296676636,1.0394502878189087
3.5076601562499974,0.2647675193704664,1.8304861193940043,1.477201966050267,-1.3640284538269043,1.6027311086654663,1.02470600605011
3.5176254882812543,0.2405025544248521,1.6965993347346782,1.2550029839485883,-1.3225116729736328,1.475655436515808,1.0122703313827517
3.5275903320312523,0.2052159908577799,1.6372861450225114,1.0231430240541697,-1.2502121925354004,1.2964181900024414,0.9943417310714722
3.5375554199218726,0.1300064360946417,1.5097396693006158,0.7863374244511127,-1.1502057313919067,1.0551296472549438,0.9789417386054992
3.5475202636718848,-0.0221069101288914,1.3711810934379696,0.5860048217207193,-1.0256164073944092,0.7972061038017273,0.9608460664749146
3.557485351562505,-0.1482182384811341,1.218671441373229,0.3379547745257615,-0.8960075974464417,0.5108491778373718,0.9349689483642578
3.5674504394531255,-0.3612903496667742,1.0027321041882038,0.074611296609044,-0.7551498413085938,0.2520209550857544,0.900594174861908
3.5774152832031234,-0.6449331037685274,0.7847109922930597,-0.027361469656229,-0.6138963103294373,0.0666553452610969,0.8530421257019043
3.587380371093758,-0.9313852162025869,0.5583665809497237,-0.2076882261902093,-0.4944914281368255,-0.066724307835102,0.8047073483467102
3.5973454589843783,-1.1236739209480584,0.2932315434411168,-0.3600204758614301,-0.3932161927223205,-0.1575013548135757,0.7600607872009277
3.6073105468749986,-1.283316055241227,0.0098912794172763,-0.5413116935133934,-0.3369051516056061,-0.2146124392747879,0.7106077075004578
3.617275390625011,-1.5090481799051163,-0.1860124009549617,-0.6541407848358154,-0.314938336610794,-0.2453197389841079,0.6467208862304688
3.6272402343750088,-1.7024674961157142,-0.3706125970244407,-0.8087918328434228,-0.3302678763866424,-0.2520885169506073,0.5838074684143066
3.6372043457031253,-1.843585108811408,-0.5976788929015397,-0.9693056354045868,-0.3576803207397461,-0.2102835327386856,0.528206467628479
3.64716943359376,-2.0672277138501403,-0.7721466942742466,-1.0427245073586702,-0.4014211297035217,-0.1319036781787872,0.4776948690414428
3.6571345214843802,-2.211742713899165,-0.8607032218664884,-1.194403846079111,-0.4490144848823547,-0.0361459888517856,0.4295800924301147
3.667099365234378,-2.258721761086583,-1.0230942164763808,-1.3984043236672878,-0.4858424365520477,0.0562834627926349,0.3901128470897674
3.6770644531249985,-2.2587987718455493,-1.118905245241523,-1.5906091495215893,-0.485149472951889,0.1407325714826584,0.3660280108451843
3.6870292968750107,-2.2583022205002603,-1.1652879339709876,-1.83926885304749,-0.4272287487983703,0.1874066293239593,0.3493494391441345
3.696994384765631,-2.258195545255393,-1.213350246350467,-2.0592185949176547,-0.3202980458736419,0.1747803092002868,0.3347577154636383
3.706959228515629,-2.130589448300749,-1.409215348277986,-2.2550223220467567,-0.1654195189476013,0.1051694229245185,0.3275152146816253
3.7169243164062493,-2.0290467440158126,-1.6246762542963027,-2.3231775743842125,0.0029037203639745,-0.0255430527031421,0.3037749826908111
3.726889404296884,-1.994592978011072,-1.6470105434402822,-2.376413490009308,0.1670132875442505,-0.2147745937108993,0.2638182938098907
3.736854492187504,-1.999221952985972,-1.6956360426604746,-2.434925884732604,0.3130213618278503,-0.4461801052093506,0.2277281731367111
3.7468195800781245,-1.999672473232448,-1.7875269753724337,-2.4774901842176917,0.4701097309589386,-0.6602309346199036,0.1829215586185455
3.7567841796875,-1.920110130087286,-1.945333564801514,-2.3774673829764126,0.6155639290809631,-0.811131477355957,0.1225650012493133
3.7667492675781347,-1.777268616208434,-2.0667139191091057,-2.156539735984802,0.6965456604957581,-0.892941951751709,0.0454867333173751
3.776714355468755,-1.5441517881207167,-2.1632380645796654,-1.8660294342011208,0.7045620679855347,-0.8806408047676086,-0.0364201180636882
3.786678466796886,-1.2118607384450732,-2.4126041628092527,-1.4917764348477125,0.6389454007148743,-0.7769205570220947,-0.1156917735934257
3.796643554687506,-0.9581950433254242,-2.4995775128632785,-1.1349310818910598,0.4717305898666382,-0.6182177066802979,-0.1885617226362228
3.806608398437504,-0.830010708091408,-2.247039506599307,-0.7760229511857032,0.2182305008172989,-0.4573128521442413,-0.2777781188488006
3.8165734863281244,-0.8641245746172964,-1.691148375852406,-0.6196773742198943,-0.110419288277626,-0.3591676354408264,-0.3950264751911163
3.8265383300781224,-1.0685459079660475,-0.9316527810975908,-0.6255646786928176,-0.478889912366867,-0.3235276043415069,-0.5383711457252502
3.836503417968757,-1.2633730451479557,-0.0540264814808964,-0.7075315987616777,-0.8521790504455566,-0.3091289699077606,-0.6892112493515015
3.846468261718755,-1.4565765266507864,0.7463993818163871,-0.8377613222181797,-1.1357204914093018,-0.2173681259155273,-0.8219655752182007
3.8564333496093752,-1.6400157161168754,1.3404399182155728,-0.8929214839041233,-1.28369140625,-0.0311348643153905,-0.8945692181587219
3.8663984375000098,-1.5925572148494422,1.8830749692872168,-1.061384199643135,-1.293669581413269,0.2129997014999389,-0.8981394171714783
3.87636352539063,-1.3645526152089238,2.2163553222611547,-1.1268944904297589,-1.1929064989089966,0.5020453333854675,-0.8292250633239746
3.8863281250000057,-1.117004672317207,2.3714456384688614,-1.0638882914185523,-1.0046626329421997,0.7980408072471619,-0.698955774307251
3.896293212890626,-0.8802794444739818,2.3677152197688818,-0.888727539345622,-0.7924954891204834,1.036376714706421,-0.5277315378189087
3.906258544921883,-0.7274247783638537,2.2355296860694884,-0.6398211675822735,-0.5819889903068542,1.198719143867493,-0.3725557625293731
3.916223388671881,-0.7557572850093245,2.055182763530314,-0.2028852098226547,-0.394303023815155,1.2689374685287476,-0.2810612916946411
3.9261884765625013,-0.8289984623089433,1.8120690036937592,0.106372462528944,-0.2205438911914825,1.2277940511703491,-0.2589336037635803
3.936152099609373,-0.9111644120812415,1.555159650477767,0.3851771289497613,-0.0707746520638465,1.108137130737305,-0.309428721666336
3.9461171875000076,-0.9676213355794548,1.3063850884005426,0.6957879694759845,0.0449576713144779,0.8899401426315308,-0.4041230082511902
3.9560825195312503,-1.0496784181497991,1.1487108931794765,0.8738982190042733,0.1132120862603187,0.6025041341781616,-0.5437608361244202
3.9660473632812483,-1.156859712843597,0.998863446061313,1.076626776960492,0.1285028457641601,0.2963289320468902,-0.7170018553733826
3.976012451171883,-1.2064920510187744,0.9333937795460224,1.2149977212965488,0.1033066883683204,0.0018781021935865,-0.9131215810775756
3.985977294921881,-1.2222180279389023,0.8372232698187232,1.2855197027653456,0.0583360828459262,-0.269941121339798,-1.0852805376052856
3.9959426269531235,-1.2160342247374356,0.7251277534678578,1.2642401833713053,0.0108346091583371,-0.4643252491950989,-1.2139657735824585
4.005907470703136,-1.301552261416614,0.7027759286671876,1.3271651338398456,-0.0503999702632427,-0.5457555055618286,-1.2879705429077148
4.015872314453134,-1.374849698948115,0.7728603955015539,1.3377461490869522,-0.1176554411649704,-0.5482410192489624,-1.3271349668502808
4.025837158203132,-1.4249673364222049,0.852303934572637,1.2806038736730814,-0.1820488572120666,-0.5061911344528198,-1.3402422666549685
4.035802490234374,-1.4585665314242242,0.8894318882226944,1.1871727257817983,-0.2242053598165512,-0.4335978925228119,-1.3357572555541992
4.045767333984372,-1.4209494790829718,0.9374445162415505,1.081959370160103,-0.2291609942913055,-0.3627631366252899,-1.318212866783142
4.055732421875007,-1.2751571525745091,0.8748498206406832,0.9572346738606692,-0.1909667402505874,-0.3278429806232452,-1.279665470123291
4.065697509765627,-1.03884079779312,0.761440883603692,0.7836094607919454,-0.1007987111806869,-0.3729396760463714,-1.2340614795684814
4.0756625976562475,-0.6004255612611771,0.4780556113943457,0.6337117447912692,0.0788621231913566,-0.5806915163993835,-1.168347954750061
4.085626464843756,0.1954901311352848,0.0688908731356263,0.4851075757324695,0.3319297432899475,-1.064247727394104,-1.0663071870803833
4.095591308593754,1.1171725762300193,-0.4016045321375131,0.5229647204399108,0.5171555280685425,-1.7146590948104858,-0.9474225640296936
4.105556396484374,1.4258699843503535,-0.6816665051430464,0.7269155136674642,0.7085083723068237,-2.360152244567871,-0.8418119549751282
4.115521484375009,1.475584155590087,-0.7207417934685945,0.768602445796132,0.9339369535446168,-2.906684637069702,-0.7880057096481323
4.125486572265629,1.232993542844802,-0.8976943973943591,0.614278730046749,1.1425907611846924,-3.2493953704833984,-0.78227698802948
4.135451660156249,0.6677052728731184,-1.0585025067269802,0.3874403977066278,1.338998556137085,-3.302389144897461,-0.8493894934654236
4.145416259765625,0.2695196823336184,-1.0488044117942452,0.1536310573101043,1.5585975646972656,-3.055614233016968,-0.9470933675765992
4.1553813476562595,0.0791021782875061,-1.157027178364992,0.0529670355558395,1.732801914215088,-2.5933260917663574,-0.9288190603256226
4.1653461914062575,-0.1926811746617779,-0.9119061703592538,1.287419398906827,1.751126408576965,-1.7093138694763184,-0.8350613713264465
4.1753115234375,0.2018997059166431,-1.1068243468254804,1.3685907846838234,1.5584386587142944,-1.3049914836883545,-0.6011559367179871
4.185276367187498,1.8103149996332824,-2.160932417985797,-0.5404144524127245,1.430317759513855,-1.1339709758758545,-0.2573879063129425
4.195241455078133,1.972383045899123,-2.413656886732578,-0.2235860525459051,1.2868766784667969,-0.961188793182373,0.021617617458105
4.205206054687508,1.7161849096924064,-1.3150745908126231,-0.7161001051425934,1.196452260017395,-0.9023401737213136,0.1059293001890182
4.215171386718751,1.594953023944795,-0.7211860301047563,-1.7865537464261054,1.2729851007461548,-1.0292776823043823,0.0727468430995941
4.225136230468749,1.5681275608614087,-0.5632713041260838,-3.002376228109002,1.5282093286514282,-1.2638075351715088,-0.0429019890725612
4.2351013183593835,1.526025179799646,-0.0909033829793334,-3.496293133240938,1.8758834600448608,-1.4545825719833374,-0.188418447971344
4.2450654296875,1.3948713272355495,0.0806383018136024,-3.134605016428232,2.1704952716827397,-1.4793293476104736,-0.2548307478427887
4.255030273437498,1.3120735093005,-0.2167418857395648,-2.4346055667370554,2.315584659576416,-1.366264820098877,-0.2739841938018799
4.264995361328133,1.2578395225487649,-0.4652130809560418,-1.8877321474432944,2.3155877590179443,-1.114676833152771,-0.2944226264953613
4.274960205078131,0.8979105243630707,-0.6142115100294351,-0.9897393516242504,2.172637939453125,-0.7229747772216797,-0.2722624540328979
4.284925292968751,0.8708290406920015,-0.5788853451043368,-0.2469377020388841,1.9237030744552608,-0.3011560440063476,-0.2338160127401352
4.2948903808593855,0.9780603850726036,-0.7298112351089715,-0.139604870045185,1.6168928146362305,0.0512243621051311,-0.1607585847377777
4.304855468750006,0.9635719140581788,-0.7856839289784431,-0.129420160639286,1.3247601985931396,0.3703150749206543,-0.0765872448682785
4.314820556640626,0.8850665326200425,-0.2735983299493789,0.2347270397633314,1.110532283782959,0.7046850323677063,-0.0269366074353456
4.324785400390624,0.9850802007067948,0.2592272747695446,0.6215425835698842,0.9317626357078552,1.0395376682281494,-0.0215053521096706
4.334750244140622,1.0740817686527966,0.4320838415533304,0.965655296203494,0.6108711361885071,1.0774831771850586,-0.0172520168125629
4.344715332031257,1.6375537099175157,0.1146112985640764,0.2889338462471962,0.3407438695430755,0.9616089463233948,-0.0122367488220334
4.354677001953135,1.612186628948897,-0.25078736320436,0.0196036951363086,0.1679761111736297,0.7569873332977295,0.0337392650544643
4.364641601562511,1.196180354232341,-0.1806412293106317,-0.4675520452976227,0.0850679874420166,0.5914871692657471,0.0599428974092006
4.374606689453131,0.8704035818215459,-0.1616214715421199,-0.5844757124572992,0.1243639960885047,0.5448943376541138,0.0168745219707489
4.384570800781248,0.4428397384433075,-0.1347276193976402,-0.926840704640746,0.2125153690576553,0.5830937027931213,-0.0905233025550842
4.39453564453126,0.2852944850978441,0.132432201936841,-0.9680863227427006,0.3004052639007568,0.7025159597396851,-0.2259604930877685
4.4045009765625025,0.5114178193027153,0.2773404390871524,-0.490041525003314,0.2886107861995697,0.8008273839950562,-0.2981766164302826
4.414465576171878,1.016523313653469,-0.0676724372565746,-0.4403863904744386,0.1461575031280517,0.7783146500587463,-0.2968245148658752
4.424430664062498,1.3780815204761925,-0.5965905131429433,-0.3459948731184005,-0.0497507192194461,0.6815585494041443,-0.2646226584911346
4.434395507812511,1.346684219432622,-0.5548322693437338,-0.280232068875432,-0.2811461091041565,0.571601152420044,-0.2394914776086807
4.444360839843753,1.1312440639413892,-0.1994336080640554,-0.3545563652366399,-0.4648332297801971,0.5076667070388794,-0.2098497003316879
4.454325927734374,0.9296433409713208,0.271322786232829,-0.428580217346549,-0.6054465770721436,0.4535158276557922,-0.1537107974290847
4.464290771484386,0.7000105556070804,0.7211486207038164,-0.8061480403363704,-0.6905442476272583,0.4169144630432129,-0.0869751721620559
4.474255859375006,0.4115696805085986,1.2079852121859789,-1.09770522082448,-0.6915647983551025,0.3813317120075226,-0.013369396328926
4.484220703125004,0.1753951818833127,1.473882466238737,-1.248742754510045,-0.6241337656974792,0.4037649929523468,0.0651147589087486
4.494185791015624,0.0112409769931808,1.7302987752407788,-1.1333441049605608,-0.484029620885849,0.4647449851036072,0.1247719675302505
4.504150634765622,0.0342697512073442,1.8411404921382664,-0.961419850590825,-0.3151387572288513,0.48312708735466,0.192764326930046
4.514115722656257,0.2416499343616887,1.8330168069154025,-0.5545926153689622,-0.1728135496377945,0.4812599420547485,0.2694441974163055
4.524080810546877,0.600498699562624,1.966432174670696,0.098861940768361,-0.0675137639045715,0.4637767672538757,0.3492330610752105
4.534044921875008,0.934726927845925,1.6380577139168977,0.2517535778880119,-0.0152252539992332,0.4173679947853088,0.4726465940475464
4.544009765625006,1.0576482279852033,0.9597662381649016,0.3567717031985521,0.0075875408947467,0.3882144391536712,0.583403468132019
4.553974609375004,1.0838907766140995,0.8864327064067125,0.2381903319597244,0.0156209664419293,0.3475668728351593,0.6189382672309875
4.563939697265624,0.9288057211034,0.8806096993416547,0.262458511775732,0.0434840396046638,0.3609581887722015,0.6232571005821228
4.573904785156259,0.7960277014035732,0.6958540204495192,0.3609516192317009,0.0659238323569297,0.41789311170578,0.6139536499977112
4.583869873046879,0.7804669249825179,0.4955711020797491,0.434978978472948,0.0424735844135284,0.4932174980640411,0.6106494665145874
4.593834716796877,0.8211134081475436,0.3090753015220165,0.6949094330757856,-0.0366665087640285,0.5557773113250732,0.6128798127174377
4.6037998046874975,0.9747845782723276,0.1333785428762436,0.9441273550063372,-0.1858483403921127,0.5589324831962585,0.6177986860275269
4.61376464843751,1.065626878714189,-0.0313186828494071,1.170766949903965,-0.3744172155857086,0.5293530225753784,0.6420142650604248
4.62372973632813,1.0989450648177417,0.0227010766297578,1.227630408376455,-0.5536288022994995,0.4605223834514618,0.6649728417396545
4.63369482421875,1.094077677977085,0.21042846480906,1.1075549991875886,-0.7059860825538635,0.3883280754089355,0.6655774116516113
4.643659667968748,1.0025662461020053,0.4315443278491497,0.9627993222504854,-0.8171790838241577,0.3550242781639099,0.6680360436439514
4.653624755859383,0.7427003081027418,0.7177192307770252,0.7188806757718325,-0.8441886305809021,0.4076826870441437,0.6655228137969971
4.663589843750003,0.4527824923194944,1.033433531922102,0.6334066243648528,-0.77842116355896,0.5159282088279724,0.6732332110404968
4.6735549316406235,0.4184134089235216,1.1192927832543849,0.4434925397962331,-0.6420364379882812,0.6140619516372681,0.7053879499435425
4.683518798828132,0.4895720808606594,0.9042360741227864,0.3008089929580688,-0.480428010225296,0.670464038848877,0.7619646787643433
4.69348364257813,0.5965883942510932,0.6850619928002357,0.3587023790001869,-0.3563308119773865,0.687940776348114,0.8187482953071594
4.70344873046875,0.6329367418307811,0.5593979698240756,0.5204045145630836,-0.2841223776340484,0.6864501237869263,0.8331637382507324
4.713413818359385,0.6901748057693242,0.4706798219293355,0.714573333966732,-0.2467100322246551,0.6505778431892395,0.8085311055183411
4.723378906250005,0.7885732937444001,0.3719569973707199,0.8337251985698938,-0.2237394601106643,0.5702292323112488,0.7742783427238464
4.733343750000003,0.8883047838889062,0.1519254224359989,0.9388789329588412,-0.2175217866897583,0.4543289542198181,0.7573683261871338
4.743308593750001,1.0386745013155043,0.028566169270873,0.973139514479041,-0.228885218501091,0.3189277350902557,0.7284101843833923
4.753273681640636,1.064066351399198,0.0148743285268545,0.8535615334182978,-0.2332970201969146,0.1898017078638076,0.6777099967002869
4.763238769531256,0.909250468218699,0.0720142658531665,0.8502601537853479,-0.2366436570882797,0.1061182916164398,0.6345052123069763
4.773203613281254,0.7541698696874082,0.1397282041639089,0.7625771941572427,-0.2155013531446457,0.0945750772953033,0.5960537195205688
4.783168701171874,0.6208868230748922,0.23023498904109,0.6626859103411435,-0.1685210764408111,0.1100350767374038,0.5618073344230652
4.793134033203131,0.570081495597586,0.1906605190217495,0.4559147989958524,-0.1216281428933143,0.1513897031545639,0.541264533996582
4.803098876953129,0.4969046157058328,0.2475806761175394,0.3963011650323867,-0.069546140730381,0.2089742571115493,0.5302821397781372
4.813063720703127,0.4806246581647544,0.3020072628319263,0.2462695935189723,-0.0064470684155821,0.2262997180223465,0.5398793816566467
4.823028564453125,0.526402074477449,0.1463333015173673,0.0510585715860128,0.0606548972427845,0.2293469905853271,0.574224591255188
4.832992675781256,0.4571118998259306,0.0015875614523887,0.0077706340014934,0.1123425886034965,0.2284223288297653,0.6093083024024963
4.8429580078124985,0.4068090785106644,0.0357797539114952,-0.0814414348900318,0.1581214815378189,0.197554275393486,0.6122209429740906
4.852922851562511,0.3245144973900169,-0.0819423701494932,-0.3344423824906349,0.2045702040195465,0.1358722597360611,0.5998367667198181
4.862887939453131,0.119219888338074,-0.3014028671979904,-0.3848527193009853,0.2380490899085998,0.1022353544831276,0.592825174331665
4.872852539062507,-0.0718695236202329,-0.2314548862248659,-0.3431166873335838,0.2356530427932739,0.0633348226547241,0.5600954294204712
4.882817871093749,-0.1551125645721331,-0.1634568702757358,-0.5716916342079639,0.2128602266311645,0.0033421230036765,0.5056804418563843
4.892782714843747,-0.27280020184163,-0.2210878059893846,-0.7931827603012322,0.2055823355913162,-0.0442054234445095,0.4540412127971649
4.902747802734382,-0.4053983714625239,-0.1675572913318872,-0.9235089298695324,0.2228795737028122,-0.059257123619318,0.3943493962287903
4.91271264648438,-0.5054960645709187,-0.1220814883142709,-1.0211942280739543,0.2519176304340362,-0.0362806990742683,0.3410779237747192
4.9226779785156225,-0.5541064758198335,-0.118797059816122,-1.0266542470455169,0.2931784689426422,0.002217061119154,0.3018005490303039
4.932642822265635,-0.5466232073923573,-0.0428080451130866,-1.0394833334803582,0.3233307898044586,0.0158599019050598,0.2847025394439697
4.942607666015633,-0.4885698084829374,-0.1043529394000768,-1.0943605865716934,0.3506536781787872,0.0177883468568325,0.2924067974090576
4.952572753906253,-0.5174112510312349,-0.134459323850274,-0.9785895965784788,0.3676885962486267,0.0319060310721397,0.3133528232574463
4.962537597656251,-0.4674144999904557,-0.1080775128811597,-0.90702716614604,0.3674766719341278,0.033783946186304,0.3244161009788513
4.972502929687508,-0.3505882653232663,-0.2917892356783151,-0.92782153237164,0.3726221621036529,-0.0091243721544742,0.3365558683872223
4.982466796875002,-0.3291131137592717,-0.4253834671318531,-0.9309335269123316,0.3522655069828033,-0.0743187293410301,0.3493840396404266
4.992431884765622,-0.4263057330759242,-0.4146592440217733,-0.7988841868132353,0.3320358693599701,-0.1153577715158462,0.3460809290409088
