time,ax,ay,az,gx,gy,gz
0.0,-0.6946588923808187,-1.0637012444138527,0.0255231483131647,-0.2593809366226196,-0.2665376663208008,-0.280032068490982
0.00996508789064876,-0.7481723097730427,-1.1455357702746989,-0.4022743942230939,-0.2333313822746276,-0.223683089017868,-0.2738289535045624
0.01993115234375864,-0.734965256871283,-1.242608489538729,-0.8560323074460029,-0.1814229041337967,-0.1634876579046249,-0.2554653882980346
0.029895751953119998,-0.7597747770223766,-1.334191671475768,-1.2055945176571607,-0.0990423262119293,-0.095659352838993,-0.2357028424739837
0.0398618164062583,-0.803265835963562,-1.350271868661046,-1.5222043063372372,-0.0138209071010351,-0.027587890625,-0.2304548174142837
0.04982690429687864,-0.7780311492029577,-1.339607559044659,-1.7934481821149586,0.0860800668597221,0.0416687838733196,-0.2317952364683151
0.0597919921875274,-0.6746335377663374,-1.339351830717921,-2.001539143887162,0.1971741020679474,0.1084605976939201,-0.2304303646087646
0.06975781250000068,-0.5190905093550682,-1.3523361077144742,-2.1718922034174204,0.3194449543952942,0.1557336747646331,-0.2120408862829208
0.07972314453125762,-0.3163575674846768,-1.3512947819679977,-2.210562418073416,0.4398826956748962,0.1808289140462875,-0.1830619573593139
0.08968896484375932,-0.0765728059403598,-1.3842685385480522,-2.1798475463360547,0.5382765531539917,0.1897206753492355,-0.1306809335947036
0.09965380859375728,0.1870611793555319,-1.4734353069931267,-2.076158039280772,0.6087768077850342,0.1714596450328827,-0.0741372406482696
0.10962011718751796,0.3650875499926507,-1.5322373323127627,-1.9625801754176613,0.6449963450431824,0.1252160370349884,-0.0238235406577587
0.11958496093753013,0.4873690909236669,-1.580234470501542,-1.8221511295080184,0.648907482624054,0.0678880363702774,0.0067508798092603
0.12955004882812204,0.5878114327512681,-1.6904223996654153,-1.7654747180402277,0.6165310144424438,-0.0050263851881027,0.0139117408543825
0.13951611328126035,0.576272970648855,-1.659933445638418,-1.7107126157611607,0.5361472368240356,-0.0783778354525566,-0.034444872289896
0.1494809570312583,0.3762449768882244,-1.396559572583437,-1.7226187421321868,0.4053397178649902,-0.1703111678361892,-0.1319017857313156
0.1594470214843824,0.0204112121269106,-0.9333934872850776,-1.7820599421381949,0.2334742248058319,-0.2459169775247573,-0.2723156213760376
0.16941186523440876,-0.293163008249551,-0.3886944894209504,-1.814906565207243,0.0524064302444458,-0.2549510598182678,-0.431277722120285
0.17937695312500068,-0.4186343581978231,0.108228027267754,-1.8253326821535825,-0.101061426103115,-0.1713882535696029,-0.5809697508811951
0.1893427734375308,-0.4653104038506746,0.6835293764054775,-1.7521534641742704,-0.2033944725990295,-0.0394759662449359,-0.676525354385376
0.19930786132812273,-0.4226086686562746,1.2008768414855002,-1.7226169885665177,-0.2479078769683838,0.130861684679985,-0.6984469294548035
0.20927392578126103,-0.2445514644894748,1.5591621641173958,-1.5294436099410056,-0.210019439458847,0.3280921876430511,-0.6375303864479065
0.21923876953125898,-0.0684439330857247,1.8043945235431196,-1.27997200551033,-0.0912155658006668,0.5211948156356812,-0.5196288228034973
0.22920385742187932,0.1006695747122168,2.006218826135993,-1.0977256790906191,0.0742982700467109,0.6419520974159241,-0.3734225928783417
0.2391699218750034,0.2749331587497144,2.163531202307343,-0.8617629600524902,0.2553037405014038,0.6759609580039978,-0.2332660257816314
0.24913500976563796,0.4560043039102107,2.1818732069447635,-0.5741185690939427,0.4271444380283355,0.6331121921539307,-0.1236813515424728
0.25910083007813967,0.5977003740809858,2.08282041977942,-0.2511766547828912,0.5748337507247925,0.5226802229881287,-0.0492033921182155
0.2690661621093824,0.7156639056824148,1.9208929510280488,0.0521516275197267,0.6717332005500793,0.3722091615200043,-0.0047682365402579
0.2790319824218841,0.8347541762914508,1.730005637513101,0.3617863164901733,0.7105152010917664,0.220721885561943,0.0148528693243861
0.28899682617188205,0.8720597515307367,1.526016850362718,0.6206447579473257,0.7036833763122559,0.0947592183947563,0.0282501578330993
0.298962158203139,0.9146588300682604,1.3539897201403974,0.8083627937763929,0.6579249501228333,0.0108294328674674,0.03018094971776
0.3089279785156407,0.9638755731798708,1.1704635830432175,0.8778443262815475,0.5888825058937073,-0.0393458008766174,0.0217745453119277
0.318893066406261,0.958736310595274,1.0617656001761555,0.9257038095653056,0.5103709101676941,-0.0541859976947307,-0.002281523309648
0.3288591308593851,0.8764715766236185,1.0832733753681183,0.8913426902800798,0.4293581843376159,-0.0602608807384967,-0.0394993089139461
0.3388237304687607,0.7060178331978618,1.1262424562618136,0.8835656265377998,0.3412786722183227,-0.0382493212819099,-0.0770813077688217
0.34878881835940945,0.5044080501385033,1.2054214991778134,0.8774661406189203,0.2496001422405243,0.0079096499830484,-0.1053584888577461
0.3587548828125193,0.3511015486076474,1.291223759625852,0.8641863878071308,0.1663998067378997,0.0654805302619934,-0.1208242550492286
0.36871997070313967,0.2422704408802092,1.3626307072356345,0.841791016125679,0.0882623046636581,0.1170595213770866,-0.1276077181100845
0.3786828613281443,0.1796167085684835,1.4356477203905582,0.8515724054276943,0.020513616502285,0.1526939421892166,-0.1291089504957199
0.38864794921876467,0.1355487265221774,1.4671762465983629,0.8390186288028955,-0.0399332009255886,0.1728244721889495,-0.1233506277203559
0.39861254882814023,0.0676654229938983,1.4576593534514306,0.8931003476023673,-0.0917106494307518,0.1873610615730285,-0.1163590252399444
0.4085786132812643,-0.0121739835269749,1.466564252179861,0.9899643925517796,-0.136482685804367,0.2001822143793106,-0.1098897978663444
0.41854370117188466,-0.116596334901452,1.442109902141988,1.0000924033343792,-0.1758772283792495,0.2076534479856491,-0.097312219440937
0.42850952148438637,-0.2067886470019817,1.421416073681414,1.0711480532884596,-0.2000982016324997,0.2353469580411911,-0.0790714770555496
0.4384746093750209,-0.3080221392072737,1.3827572572022675,1.108197388744354,-0.2047989517450332,0.2697560787200928,-0.0571906827390193
0.448440673828145,-0.3519780391812324,1.3523413684114811,1.1331342616021634,-0.1988126635551452,0.2965878844261169,-0.0422146469354629
0.45840551757814296,-0.3561833819165825,1.2739932233616709,1.1715028629630804,-0.1844973564147949,0.318479061126709,-0.0289105586707592
0.4683706054687633,-0.3103042587950825,1.133518877005577,1.2472048774182796,-0.1666162610054016,0.3284093141555786,-0.0135478079319
0.4783366699218874,-0.2305418630331754,0.9850891877308487,1.332535720962286,-0.1507709771394729,0.3174533247947693,-0.0034014307893812
0.48830175781250773,-0.1494621010623872,0.8474252226203679,1.4081570713967084,-0.1494345963001251,0.2753151655197143,0.0087572690099477
0.49826757812500944,-0.0823424753829836,0.696542294974625,1.4941285509318112,-0.1563079506158828,0.2230330407619476,0.0271557159721851
0.5082329101562664,-0.1066750987373292,0.5604609228804707,1.5433938093602655,-0.1720591783523559,0.1656308472156524,0.0526481419801712
0.5181977539062643,-0.1691685259208083,0.4091051170259714,1.549622474616766,-0.2057569622993469,0.106896162033081,0.0840769037604332
0.528163574218766,-0.2362269229322671,0.2847247041195631,1.4382593641936778,-0.2479678392410278,0.0289845261722803,0.0981518253684043
0.5381289062500088,-0.420194227925688,0.2258861461818218,1.2823925106555225,-0.2841415405273437,-0.0318966694176197,0.0912856608629226
0.5480947265625247,-0.6222612532332539,0.1577118968829512,1.1214145977139471,-0.3159517049789428,-0.0823046639561653,0.0661871954798698
0.5580595703125084,-0.7847022244647145,0.0797638570666313,0.7813397622942924,-0.3481940627098083,-0.1313915103673935,0.0329714529216289
0.568024658203143,-0.9066352442190052,0.0026812019079923,0.517345126992464,-0.3575905859470367,-0.1693992912769317,0.0042386641725897
0.577990722656267,-1.0165858574956654,-0.1324184656724333,0.2251777056515216,-0.3433775603771209,-0.1889008283615112,-0.0214749556034803
0.587955566406265,-1.1053969443708658,-0.2603746912389993,-0.0244996504843235,-0.3167897760868072,-0.2001466602087021,-0.0356057062745094
0.5979216308594033,-1.1146250837042928,-0.3573790214419364,-0.3445855908423662,-0.284454733133316,-0.2339395135641098,-0.0460825785994529
0.6078867187500094,-1.1112803033210337,-0.4543243149340152,-0.6801040781319141,-0.2395650893449783,-0.2844802439212799,-0.0572269931435585
0.6178515625000074,-1.1154039591223002,-0.550298133045435,-0.9077975659966468,-0.1699662953615188,-0.3238614499568939,-0.0637426897883415
0.6278178710937681,-1.1633958366140722,-0.63921209577322,-1.007375546079874,-0.0755812153220176,-0.3448226749897003,-0.0774457156658172
0.637782714843766,-1.2045692662626504,-0.7346446466147899,-1.0822563072800635,0.0159476399421691,-0.3620810210704803,-0.1052043735980987
0.6477485351562677,-1.220739918210357,-0.8296054882913827,-1.1192951213419438,0.085519440472126,-0.3762858510017395,-0.1524098515510559
0.6577136230468881,-1.237923838853836,-0.8611997732117772,-1.0643833814591168,0.136110708117485,-0.3765955567359924,-0.2144380658864975
0.667678955078145,-1.2204089326903222,-0.8591068925857543,-0.9846516730964184,0.1619072705507278,-0.3811096847057342,-0.2798672020435333
0.6776447753906467,-1.1602329886689782,-0.7956099874481558,-0.9469090946793556,0.1631738692522049,-0.4023430645465851,-0.3264797031879425
0.6876096191406447,-1.0570854795359077,-0.683550711454451,-0.929962636053562,0.1464625746011734,-0.4411414265632629,-0.3574413359165191
0.6975759277344054,-0.9798398889005184,-0.5431359863311052,-0.8984148206233977,0.1124358996748924,-0.4956448674201965,-0.3711584806442261
0.7075407714844033,-0.8678810045413673,-0.4178989565953612,-0.9135884243577718,0.0874511152505874,-0.535462498664856,-0.3711429834365845
0.717505615234387,-0.702635351152718,-0.3839432032406329,-0.9043892188578844,0.0818507596850395,-0.5474315881729126,-0.3557829260826111
0.7274716796875254,-0.5711966902978718,-0.3189838243350386,-0.9142366591334342,0.0878504812717437,-0.5469951033592224,-0.3372890651226043
0.7374365234375233,-0.4429162012130022,-0.2422574352681636,-0.943182183110714,0.0959121361374855,-0.5541816353797913,-0.3131603002548218
0.7474025878906474,-0.3332956966735422,-0.2527335288360715,-0.9367354911893606,0.1053652614355087,-0.5466101169586182,-0.2905783951282501
0.7573676757812677,-0.3210494516279548,-0.3658925827652216,-0.863803525969386,0.1237011328339576,-0.4998481869697571,-0.2841846942901611
0.7673327636718881,-0.2804446156475693,-0.5388371200934052,-0.7851274641394614,0.1289689689874649,-0.4412198364734649,-0.2887775897979736
0.777298583984404,-0.2068918151155114,-0.7224918520063162,-0.6523059706240892,0.1196138262748718,-0.3923649489879608,-0.298086404800415
0.7872639160156467,-0.2361331071689724,-0.8010673760712146,-0.5192857396662235,0.063885286450386,-0.3821617364883423,-0.319280743598938
0.79722973632812,-0.3291027019631117,-0.6842270032808184,-0.4403922356933355,-0.0587375685572624,-0.4321455657482147,-0.3679031431674957
0.807194580078118,-0.5313588201019913,-0.3882739259213209,-0.5345867691725492,-0.2452447414398193,-0.575538694858551,-0.4491709470748901
0.8171596679687667,-0.891144172033295,-0.0257847218587994,-0.6322247211039066,-0.4531942009925842,-0.7435750961303711,-0.5537719130516052
0.8271257324218908,-1.331351187352836,0.4031093837425112,-0.9175514827698468,-0.6763864159584045,-0.9281957745552064,-0.6666772961616516
0.8370908203125254,-1.7535694684520362,0.7867331457704305,-1.368017368710041,-0.8760220408439636,-1.062540054321289,-0.7783699631690979
0.8470568847656494,-2.071908857403696,1.0304328888013958,-1.8135189102411269,-0.9942433834075928,-1.0977587699890137,-0.8899139165878296
0.8570219726562698,-2.188217315274477,1.1927207152977586,-2.1905939812779427,-1.0139800310134888,-0.986562967300415,-0.9849519729614258
0.8669865722656453,-2.1611735332652926,1.258695993247628,-2.4259148952811955,-0.9134743809700012,-0.7570866346359253,-1.0292609930038452
0.8769523925781186,-2.05166087301448,1.2543559182167052,-2.6216303596049544,-0.6946842670440674,-0.4594176709651947,-1.0090813636779783
0.886917724609404,-1.8837796104252336,1.2663394937381147,-2.479626611724496,-0.3906133472919464,-0.1232004016637802,-0.9286471605300904
0.8968835449218773,-1.8020590663328768,1.34942548096478,-2.336560203048587,-0.057436715811491,0.1298718154430389,-0.8238347172737122
0.906848632812526,-1.6123922345235944,1.2762798729941247,-2.1290771440416574,0.2404346019029617,0.2451623827219009,-0.739673912525177
0.916813720703118,-1.358647482818365,1.1152318174257874,-1.778062981456518,0.4716555774211883,0.2488476634025573,-0.7040051817893982
0.9267795410156481,-1.291813542212546,1.0799711189523338,-1.3260422672897576,0.6338261961936951,0.1632325202226638,-0.7095064520835876
0.9367446289062684,-1.3109692013204095,1.0792854747757314,-0.84154668597579,0.7362135648727417,0.0163538642227649,-0.7349790334701538
0.9467106933594067,-1.339697283154726,1.0076803742453455,-0.3452285649210214,0.7593897581100464,-0.1552961468696594,-0.7626882791519165
0.9566757812499986,-1.4110352571815252,0.9924807592868804,0.1262193187713623,0.7223340272903442,-0.3226718306541443,-0.8116550445556641
0.9666406250000108,-1.4897262243196367,0.9881316241666674,0.5393401011794805,0.6238362193107605,-0.4503739476203918,-0.8714327216148376
0.9766069335937573,-1.5399322707295418,0.9314180955588816,0.8233674706846476,0.5016186833381653,-0.5431334376335144,-0.93215012550354
0.9865717773437694,-1.6373215085968371,0.8806666902258992,1.0192787498414515,0.3694488704204559,-0.5999806523323059,-0.9926609396934508
0.9965375976562569,-1.73084676451236,0.8861883762568235,1.1731015303313732,0.2482015192508697,-0.6166182160377502,-1.0577877759933472
1.006502929687528,-1.759524139072746,0.9345753905460238,1.2909785526931286,0.1713995337486267,-0.6138799786567688,-1.1234662532806396
1.0164675292968894,-1.779717178404331,1.015096787981689,1.3468565072596073,0.1337826400995254,-0.6153737306594849,-1.188088059425354
1.0264335937499993,-1.7852556694395838,1.1264359330073,1.3916595255821942,0.1047180593013763,-0.6087168455123901,-1.2475595474243164
1.0363984374999973,-1.7405359454862772,1.18879243593812,1.5363012207508089,0.0813277810811996,-0.5937437415122986,-1.3011692762374878
1.046364746093758,-1.682253706257045,1.191013034597039,1.6793448330730198,0.0563966073095798,-0.576582133769989,-1.3400434255599976
1.0563295898437701,-1.5786729202732444,1.1783543362930415,1.86239487709105,0.0320071130990982,-0.5562075972557068,-1.3621031045913696
1.0662946777344047,-1.42692519249171,1.1339949700847267,2.017753781107068,-0.001573228277266,-0.5419167876243591,-1.3714537620544434
1.0762607421875288,-1.2503984127625822,1.0323170951128005,2.129872093811631,-0.0337074622511863,-0.5443469285964966,-1.3703030347824097
1.0862255859375267,-1.0901556822277605,0.914673589245975,2.231869409996271,-0.0571287050843238,-0.5460498929023743,-1.3695701360702517
1.0961906738281186,-0.9186497263353316,0.8037763427689671,2.2124182750731705,-0.0837845504283905,-0.5667751431465149,-1.3705685138702393
1.106156738281257,-0.7392303669698536,0.613478811840713,2.1973510543227195,-0.0882460474967956,-0.5731091499328613,-1.3632383346557615
1.1161218261718773,-0.5825531468968838,0.445738272896409,2.200327439785004,-0.0952176749706268,-0.5850534439086914,-1.3407175540924072
1.1260876464844074,-0.4004943058732896,0.2602206697210669,2.0663287191838027,-0.1152920648455619,-0.6346299052238464,-1.3152374029159546
1.1360529785156501,-0.1966836517687887,0.0608747399404644,1.996349174028635,-0.1449916511774063,-0.685538649559021,-1.2782745361328125
1.146017822265648,-0.0597987812720239,-0.0979661609724164,1.9026812947720289,-0.1793462336063385,-0.7417969107627869,-1.2362734079360962
1.1559836425781214,0.0812136174835264,-0.2679296366631984,1.7884096034258603,-0.2261030972003936,-0.8042073249816895,-1.1785156726837158
1.1659487304687701,0.1762328382838517,-0.4642445281848311,1.613482075586915,-0.2771535515785217,-0.8778038024902344,-1.1163890361785889
1.1759145507812576,0.1582980262078344,-0.596221972091496,1.3928098646610974,-0.3193268477916717,-0.9412416815757751,-1.0594016313552856
1.185879638671878,0.0829700326967984,-0.7198553660228848,1.156065055334568,-0.3426127135753631,-0.9876986742019652,-1.0185837745666504
1.1958444824218901,0.0471717932805418,-0.8397343758568168,0.90818335044384,-0.3633752465248108,-1.0244120359420776,-0.9911385774612428
1.205810546875,0.056100219015032,-0.9683812140360474,0.5413695611804723,-0.3802226185798645,-1.0646346807479858,-0.9751230478286744
1.2157756347656488,0.0463011479258537,-1.1458797614067793,0.3039993134319782,-0.3930694162845611,-1.0813193321228027,-0.9606439471244812
1.225740722656269,0.012473477930203,-1.2571554858073593,0.0409101025372743,-0.3922098875045776,-1.07770574092865,-0.953579306602478
1.2357067871094074,-0.0293174990948289,-1.3325640702739356,-0.2098655702292919,-0.3878441751003265,-1.054543137550354,-0.9450992941856384
1.2456716308594054,-0.0430844874342903,-1.40746382843554,-0.4478197553455829,-0.3901997208595276,-1.012165069580078,-0.9435099363327026
1.2556376953125294,0.0840499734206125,-1.471290403918922,-0.7312398066073655,-0.3906266391277313,-0.9779244661331176,-0.9423298835754396
1.2656027832031214,0.2709635792653076,-1.5243138458371162,-1.058719364348054,-0.3909728229045868,-0.9393922090530396,-0.9304965138435364
1.2755678710937701,0.4358328188233077,-1.5023805387094615,-1.3805571168094872,-0.3681354224681854,-0.8844379186630249,-0.9061312675476074
1.2855336914062576,0.5680068082153796,-1.4305398758575318,-1.6590350354939698,-0.2997626066207886,-0.8200111389160156,-0.880929172039032
1.295498779296878,0.6398045817736536,-1.301492640183866,-2.010984433102608,-0.2045929282903671,-0.7652443051338196,-0.8488333225250244
1.305464843750002,0.7158098169591277,-1.1757277871817349,-2.2891332659631964,-0.0920174196362495,-0.7114285826683044,-0.8034448623657227
1.315429443359406,0.8343757714331149,-1.108878941267729,-2.321909746405482,0.0181421115994453,-0.6181913018226624,-0.7452747821807861
1.3253947753906488,0.9309228593878448,-1.1752639690622686,-2.279385778930783,0.124820239841938,-0.5153563022613525,-0.6632500886917114
1.335360595703122,1.0320785371165722,-1.2353048885270952,-2.2263404174417256,0.2032423615455627,-0.4294043481349945,-0.5848322510719299
1.3453256835937708,1.0983229873966425,-1.2564286328375338,-2.151090822929144,0.2466142773628235,-0.3588761985301971,-0.525292158126831
1.3552905273437688,1.1362437719248235,-1.2860638926446435,-2.0600252351254222,0.2507371306419372,-0.3032840490341186,-0.485706627368927
1.3652565917968786,1.1719239379193631,-1.3710247338324784,-1.9491227279514076,0.2382716834545135,-0.2496456652879715,-0.4602728486061096
1.3752216796875274,1.2634106006793675,-1.4940741903960704,-1.8612854545444248,0.209149494767189,-0.2034249156713485,-0.4456510245800018
1.385190917968771,1.348991181200743,-1.556444429591298,-1.7604694570988415,0.1696177124977111,-0.142422154545784,-0.4487294554710388
1.3951557617187689,1.3621867628604172,-1.5524264261215923,-1.697819231918454,0.1162767335772514,-0.109262079000473,-0.4586963355541229
1.4051206054687668,1.3311226392939686,-1.427082428880036,-1.7104525035202502,0.0434292331337928,-0.1085423529148101,-0.4893625676631927
1.4150869140625275,1.266406713755429,-1.157892855283618,-1.7445599403053522,-0.0449629500508308,-0.1399199813604354,-0.5487529039382935
1.4250517578125255,1.136450838804245,-0.8035334739238024,-1.8361439990252253,-0.1434056907892227,-0.2035298198461532,-0.617621660232544
1.4350168457031458,0.9625144408944992,-0.3290761792823672,-2.0507687464803457,-0.232572317123413,-0.2883866429328918,-0.6949052810668945
1.44498291015627,0.7398351279299705,0.1691480676546692,-2.277484913745522,-0.3057686984539032,-0.3460117876529693,-0.7564298510551453
1.4549479980468902,0.4994806767389178,0.5648036282598972,-2.349970888763666,-0.3413791358470917,-0.3383485376834869,-0.7876796722412109
1.4649138183594062,0.3435582205560058,0.9147279497817158,-2.446938394087553,-0.3200217485427856,-0.2763160765171051,-0.7653071284294128
1.474878662109404,0.2779816048012115,1.198193593750894,-2.403057751306892,-0.2110926061868667,-0.1377819329500198,-0.6971642971038818
1.4848439941406468,0.319528416073136,1.442408592827618,-2.0859487809330224,-0.0367382317781448,0.0825675502419471,-0.5939467549324036
1.4948098144531201,0.4331783222591504,1.657398958724737,-1.8305641530662773,0.1612398326396942,0.2965325713157654,-0.4731156527996063
1.5047749023437689,0.5615909863563254,1.7286229509830473,-1.4492407769352196,0.3568557500839233,0.4986082017421722,-0.3328918218612671
1.5147399902344034,0.7167527238324284,1.7122832260787486,-1.0871721363723277,0.5208777189254761,0.6242820024490356,-0.1971004456281662
1.524705810546891,0.946053939154744,1.6323226773962378,-0.7308201198905706,0.6433502435684204,0.6890939474105835,-0.0848264247179031
1.5346706542968889,1.13157841046229,1.510770181392133,-0.3865823195725679,0.7146955728530884,0.6997636556625366,0.0074699539691209
1.5446369628906496,1.2851634366735816,1.3376695767194031,-0.1629524278849363,0.7309516668319702,0.6639221906661987,0.0809235200285911
1.5546018066406475,1.416883983209729,1.1633967133969068,0.0995101755440235,0.6987977027893066,0.6148985028266907,0.1403128206729889
1.5645666503906455,1.5339271850958465,1.0143024227336048,0.292763049146533,0.6425330638885498,0.5586596727371216,0.1953518539667129
1.5745329589844062,1.6309084266841412,0.8890303216844797,0.4081313035577535,0.5841962695121765,0.5068478584289551,0.2378830760717392
1.584497802734404,1.6468044994741675,0.8163985084548592,0.4560726199060678,0.5210042595863342,0.4558474123477936,0.2771379351615906
1.5944628906250102,1.5846704071223734,0.8066726487323641,0.4629050962746143,0.466872900724411,0.4122437536716461,0.3084423243999481
1.6044289550781201,1.4355965747252106,0.8827510952845216,0.4899275432348251,0.4322066009044647,0.3820890188217163,0.3210525512695312
1.614393798828118,1.266234279797971,0.9858899827197194,0.5373480505794287,0.3933036923408508,0.356222540140152,0.3222967982292175
1.6243598632812706,1.1651841813355683,1.0978533971235156,0.5054150352239608,0.3681438863277435,0.3081325590610504,0.3195787966251373
1.6343247070312685,1.0790419483434408,1.1835180026665328,0.5389350275099277,0.349692702293396,0.2627517580986023,0.314445823431015
1.6442900390625255,1.022543889117241,1.2495903112500906,0.6007248364686966,0.3497760891914367,0.2062683701515197,0.3162278532981872
1.6542558593749987,1.0334781747814268,1.2788853793174029,0.7031728190302848,0.3416891396045685,0.1791496723890304,0.3206188678741455
1.6642209472656475,1.015950043810159,1.3016606902271508,0.8580150056958198,0.3249908089637756,0.1787431389093399,0.3373998701572418
1.6741857910156455,0.9034283379364758,1.3365899647891522,1.0522376011133194,0.2844913303852081,0.2167365998029709,0.3580036759376526
1.6841516113281187,0.7977785636588931,1.3441951790958642,1.1717939548641445,0.2230432331562042,0.2816613614559173,0.3886921405792236
1.6941166992187675,0.7008407228209078,1.3141396480500698,1.2931997358739376,0.1422807574272155,0.3834210038185119,0.4219699501991272
1.7040827636718774,0.6644157298084348,1.2767524589419363,1.4253186340779065,0.0608644410967826,0.5145627856254578,0.4541057050228119
1.7140478515625261,0.644119887689501,1.224439211119711,1.5360551370352509,-0.0219790413975715,0.6440595388412476,0.4873068034648895
1.724012695312524,0.619152911954373,1.19517073879838,1.57813077622056,-0.1006705611944198,0.7362593412399292,0.5287995338439941
1.7339790039062706,0.6809769154436885,1.11785632071048,1.6044284160375597,-0.1556336730718612,0.795140266418457,0.5677759647369385
1.7439438476562685,0.7530983679983765,1.0399261088117957,1.586155677244067,-0.1844923645257949,0.7933257222175598,0.5981420874595642
1.7539089355468889,0.797648215277493,0.9751768655255436,1.5136223559528588,-0.1803772449493408,0.7496434450149536,0.6229683756828308
1.7638749999999987,0.7991460526198149,0.8692030469253659,1.3982500098884103,-0.1530352681875229,0.6750747561454773,0.6373759508132935
1.773839843750011,0.6899541487559676,0.773337657624483,1.3278408411443232,-0.1085037514567375,0.5917244553565979,0.641223669052124
1.7838059082031208,0.5442831105396151,0.6832838772118092,1.2826286574989556,-0.0647101327776908,0.5336611270904541,0.6340936422348022
1.7937707519531187,0.4462164118021726,0.5270289011389017,1.2993489061534405,-0.0311915837228298,0.4981257617473602,0.6238481998443604
1.803736083984404,0.3405599885880946,0.3526031853422522,1.27547761670053,-0.0271307490766048,0.4784317016601562,0.621137797832489
1.8137019042968774,0.2380379909422248,0.1803232494026422,1.256745443701744,-0.0470695719122886,0.4699492454528808,0.6264374852180481
1.8236667480468896,0.1357268595680594,0.0449529481872916,1.1497264999628067,-0.0774101465940475,0.4400098919868469,0.6322847604751587
1.833631835937524,0.0846533826738595,-0.1045323876202106,0.9996481666982172,-0.1023788750171661,0.4067352712154388,0.6330578923225403
1.8435976562499974,0.0109428342968225,-0.2447320086881518,0.8541688516616821,-0.1166940703988075,0.3754834234714508,0.6219121813774109
1.8535627441406461,-0.0699721655663102,-0.3295329831391573,0.6192717160284519,-0.1122481897473335,0.3284336030483246,0.601123034954071
1.863527587890644,-0.1470598622262477,-0.3550795123279094,0.3159060243248939,-0.0830063819885253,0.2639141380786896,0.5677116513252258
1.8734938964844048,-0.1609199722092598,-0.4249330930158496,-0.0191045134425163,-0.0242607817053794,0.1903778612613678,0.526317298412323
1.8834587402343885,-0.1372919169276952,-0.4861337039098143,-0.2678010418474674,0.0556907802820205,0.1200658753514289,0.4849227368831634
1.8934248046875268,-0.1206961714357137,-0.5468167206704616,-0.4043284041434526,0.1526745855808258,0.084287904202938,0.440388560295105
1.9033898925781187,-0.1332573276493698,-0.6239756559357047,-0.4239332683235406,0.2354256212711334,0.0694574937224388,0.4006806910037994
1.9133549804687675,-0.095311993201822,-0.6866618292123079,-0.4447159441113472,0.2725607454776764,0.054130733013153,0.3690614998340606
1.9233208007812692,-0.0277962808769196,-0.7444950094997882,-0.4436544523596763,0.2765772938728332,0.0310966223478317,0.3437973856925964
1.9332858886718896,0.0092501319695264,-0.7937149674817919,-0.4338005823433399,0.2717029154300689,0.0150103289633989,0.3292461335659027
1.943250976562524,0.0489168103169649,-0.7595575540751218,-0.4832347675979137,0.2742755711078644,0.0129938498139381,0.3137013912200928
1.9532167968749974,0.0243545429252088,-0.6925958954364061,-0.558955486753583,0.3013074696063995,0.028532862663269,0.3162774443626404
1.9631818847656461,-0.0345672363165766,-0.6266650411501526,-0.6228939981788396,0.3325912058353424,0.035637266933918,0.3172204792499542
1.9731477050781194,0.015829656490311,-0.6060612290605902,-0.6322153687536716,0.3591652810573578,0.0499352514743804,0.3289804756641388
1.9831127929687682,0.166079108538106,-0.6809706318333745,-0.5813379989534616,0.3831280767917633,0.0429354310035705,0.3464687168598175
1.9930778808593885,0.3204845842868089,-0.7137281153142452,-0.6126859078973531,0.3901439309120178,-0.0087991366162896,0.3639065623283386
2.0030437011718902,0.4521467516992241,-0.7138570023909211,-0.6000888766527176,0.378120094537735,-0.0692405104637146,0.3903546631336212
2.013008789062525,0.543283578108251,-0.8232578728303312,-0.4525298327326774,0.3494476974010467,-0.115908682346344,0.433554083108902
2.0229736328125085,0.6079625326372683,-0.9630942135438324,-0.3399029859840869,0.2895198762416839,-0.1452947109937667,0.4763193130493164
2.032939941406269,0.7259680767495185,-1.2026885670825838,-0.2460883917331695,0.2090351730585098,-0.1166800931096077,0.5078814625740051
2.042904785156267,0.7745944527525455,-1.444682090717554,-0.0979331354856491,0.114102192223072,-0.0684317946434021,0.5171652436256409
2.0528708496094055,0.6862347629066556,-1.4154223862245678,-0.1617044736504554,-0.021611962467432,-0.0597650744020938,0.4903253614902496
2.0628359374999974,0.550166104163602,-1.22105687520504,-0.3096048783540726,-0.1959665715694427,-0.1334767341613769,0.4374209642410278
2.072801025390646,0.2795733857709914,-0.8737301689609884,-0.6098790337830782,-0.3985178172588348,-0.2526592910289764,0.355856329202652
2.0827668457031194,-0.2688938055202364,-0.2906324668586253,-0.9141302761495111,-0.5962380170822144,-0.3650315105915069,0.2431090176105499
2.092731933593768,-0.9020404637746512,0.3502852637887,-1.3321838387846945,-0.7676944732666016,-0.4469165205955505,0.130824014544487
2.102696777343766,-1.3315623458854853,0.8213643141686916,-1.7837129700422285,-0.8872904181480408,-0.4886945784091949,0.0288950502872467
2.112662597656268,-1.3981515179499984,1.1840668687209486,-2.133941535207629,-0.9309214949607848,-0.4256570339202881,-0.0415532849729061
2.122627929687525,-1.3383444072410464,1.3444833483874796,-2.3244284512281417,-0.885280966758728,-0.2658576965332031,-0.0418951883912086
2.132593749999998,-1.2803487298682332,1.4561772982001304,-2.3590859231114387,-0.7398902177810669,-0.0056037353351712,0.0289853774011135
2.1425585937500102,-1.177656124895811,1.6015686426922675,-2.265083112812042,-0.5140132308006287,0.3074271082878113,0.1530880630016327
2.152523925781267,-0.9744334998123348,1.66108612280488,-2.111710414177179,-0.2467199862003326,0.586742103099823,0.299330472946167
2.162489746093769,-0.7385478645984083,1.6422355841234326,-1.9155004443347448,0.0210645664483308,0.7870133519172668,0.4402972757816314
2.1724548339844034,-0.5342488789876922,1.6006912753358482,-1.5711901633024214,0.2563948035240173,0.8754084706306458,0.5599954128265381
2.182419677734387,-0.4710451481103896,1.4554796713247895,-1.152357432988286,0.4429842829704284,0.8708952069282532,0.6536317467689514
2.1923859863281194,-0.4919312112074345,1.3269094055131077,-0.7202636545628309,0.5752893090248108,0.7943341135978699,0.7015265822410583
2.202350830078146,-0.4545684258881956,1.2065125092849134,-0.3348649918168783,0.6721010208129883,0.6611871719360352,0.7001980543136597
2.21231689453127,-0.4497538652133196,1.0577052188694476,-0.0640261897087097,0.734147310256958,0.4827452600002289,0.6611518263816833
2.2222819824218902,-0.4669291641589254,0.959129693827033,0.2154097603529691,0.7544975280761719,0.2946173846721649,0.5915803909301758
2.232246582031266,-0.541931944303587,0.8880492016926407,0.4990016610503196,0.7222250699996948,0.128230795264244,0.4949507415294647
2.242212890624998,-0.6604962182771414,0.8095081644192338,0.7491197466909885,0.6328243613243103,-0.0028419042937457,0.3842848837375641
2.2521777343750102,-0.7521912630908191,0.7547621364921331,0.9124433459758758,0.5053079724311829,-0.0932351872324943,0.2785781621932983
2.262142822265645,-0.8504129331942647,0.7062424357339739,1.0800140813112258,0.3645451962947845,-0.1260260045528412,0.187079831957817
2.272108642578118,-0.9075823158107698,0.7429919114604592,1.1516548376768827,0.2255787998437881,-0.1359161883592605,0.0922569036483764
2.2820739746094034,-0.8797253177225589,0.8115171661540865,1.219362930768728,0.1081122234463691,-0.0851058885455131,-0.0062488755211234
2.292039794921891,-0.8450820204950868,0.8916299827888607,1.293572076317668,0.0149916019290685,-0.0066041592508554,-0.0860342532396316
2.302004638671889,-0.8177472196500748,0.9842021757632492,1.3824006988495587,-0.0754546746611595,0.1010144501924514,-0.1359544098377227
2.311969970703146,-0.7024937507249415,1.026575628851354,1.5484814878880977,-0.1715814769268036,0.2191317528486251,-0.1479314416646957
2.3219357910156475,-0.5440405339553952,1.053668510699272,1.697377333369851,-0.2557389736175537,0.3410891592502594,-0.1391126960515976
2.331900878906268,-0.3842764537829906,1.025617305213213,1.856934273597598,-0.3276994526386261,0.460442453622818,-0.1175677105784416
2.341865722656266,-0.2452047407664358,0.9870999430313706,1.922806383433938,-0.3820127546787262,0.5246955156326294,-0.0913396030664444
2.351832031249998,-0.0819406165838241,0.9693447983711956,1.8795915110856292,-0.4170799255371094,0.5138859748840332,-0.0763569250702858
2.3617968750000102,0.1043343808300793,0.9231737065657972,1.789629500609636,-0.4193335771560669,0.4632705748081207,-0.0806909948587417
2.37176293945312,0.1893100542608648,0.8154507062107325,1.7852572768747803,-0.3870517909526825,0.3968177735805511,-0.0812084451317787
2.3817250976562576,0.2607198514148592,0.6857111043587326,1.744597349706292,-0.341804176568985,0.3229437172412872,-0.0675207003951072
2.39168994140627,0.3845080705817789,0.5001309573411942,1.818416034632921,-0.3156569898128509,0.2613016366958618,-0.0436023212969303
2.401656005859408,0.4771488718129694,0.3105433282479644,1.894092330124974,-0.326146125793457,0.2026356309652328,-0.0153378900140523
2.41162109375,0.5457076634500175,0.1230763445705175,1.9081629410535097,-0.3620902895927429,0.1497633606195449,0.0229668878018856
2.4215861816406488,0.6374613065831363,-0.1276172028705477,1.9733470686256884,-0.413375586271286,0.126984640955925,0.0805962905287742
2.431552001953122,0.7259064096901565,-0.3543701950147748,1.9655039539098735,-0.4766174256801605,0.0917147919535636,0.1470442861318588
2.441517089843771,0.8232322999976575,-0.5389975713521242,1.788134293615818,-0.5662350058555603,0.0095383403822779,0.2320483028888702
2.4514831542968807,0.8960131663091481,-0.7219891631811857,1.5361708723694083,-0.6403875350952148,-0.0887466818094253,0.3190556466579437
2.4614477539062705,0.8310960191100836,-0.8812178943678736,1.335862819558382,-0.6665214896202087,-0.1505215317010879,0.4104944765567779
2.471412841796891,0.6298263547252864,-0.944437151607871,0.9930424848228692,-0.6458356380462646,-0.1998986601829528,0.4877362549304962
2.4813789062500007,0.4122432689212262,-0.9998489499673248,0.6360913334041833,-0.6066571474075317,-0.2442901730537414,0.5421860218048096
2.4913439941406494,0.2752064227331429,-1.0264382662072775,0.1764157205700874,-0.558527946472168,-0.2965661585330963,0.573976993560791
2.5013088378906474,0.1410213127143681,-1.0243146981820463,-0.2720569457262754,-0.4815727770328522,-0.3441376686096191,0.5982847809791565
2.5112749023437573,0.0455618008006364,-1.0191662293776869,-0.6647691463559866,-0.3782839477062225,-0.372835099697113,0.6141034364700317
2.521239990234406,0.0485933505162596,-1.0252955259129404,-0.9243909734010696,-0.2474970072507858,-0.3567906022071838,0.6193579435348511
2.53120605468753,-0.0005081687178462,-1.022163365367055,-1.0806424423426388,-0.1075785309076309,-0.2949341833591461,0.6230357885360718
2.541171142578122,-0.0358374023828655,-1.050878879980743,-1.2155261290848254,0.02168795093894,-0.196571409702301,0.6230345964431763
2.55113598632812,-0.0240187716322019,-1.0807257367119192,-1.276585285681486,0.1232579797506332,-0.0761123672127723,0.6088109612464905
2.56110180664065,0.0951342985473573,-1.078713812367618,-1.3814754006981849,0.205383762717247,0.0230775512754917,0.5904611945152283
2.5710671386718786,0.1907316480292007,-1.0830971420183777,-1.4117092109203335,0.2769287824630737,0.1220765709877014,0.5849921703338623
2.5810317382812684,0.2924262914728373,-1.0186416209816933,-1.4227362163692712,0.3342712521553039,0.2066444307565689,0.583823561668396
2.5909980468750007,0.3901663520717993,-0.9325213806256653,-1.3822662588149308,0.3805694878101349,0.2829831540584564,0.5947337746620178
2.6009628906249986,0.4863057725410908,-0.8615908183559775,-1.334568688094616,0.3997820019721985,0.3402051627635956,0.6001104116439819
2.6109289550781227,0.5768770009566098,-0.7558423329442739,-1.2575684505224227,0.4083003997802734,0.396238625049591,0.6014356017112732
2.6208937988281207,0.6282439078394323,-0.6475061691269278,-1.1410253071129322,0.4114161133766174,0.4586591720581054,0.5930207371711731
2.6308588867187694,0.7109881689563393,-0.6554413460403681,-1.0599895304143427,0.4002172648906708,0.5159056782722473,0.596478283405304
2.6408249511718793,0.8297031034469604,-0.6803902015969157,-1.0080202737241983,0.3795024156570434,0.5599986910820007,0.602574348449707
2.6507897949218773,0.9080464261911808,-0.7212041502833366,-0.9356576328247784,0.3552237153053283,0.5951377749443054,0.6127076745033264
2.660754882812526,0.9270843041382728,-0.7494438640788197,-0.9680506669074296,0.3115980625152588,0.5885564684867859,0.6220137476921082
2.67072094726565,0.8414051586132496,-0.7381167066395282,-1.0863391926795245,0.25648233294487,0.5519595742225647,0.6157976984977722
2.6806860351562705,0.6973659593824296,-0.6689405868217349,-1.2382681222468614,0.2066032588481903,0.511509358882904,0.5870962142944336
2.6906520996094088,0.5370038402516395,-0.5992497954800725,-1.360113463717699,0.1826103031635284,0.4944560527801513,0.540894627571106
2.7006171875000007,0.3905515154644847,-0.5214332730889321,-1.5171832633048294,0.1682704538106918,0.5004581212997437,0.4929721355438232
2.7105820312499986,0.3861910552326589,-0.4977101599350571,-1.5666905137956142,0.1634381413459777,0.5283480882644653,0.4586242735385895
2.7205478515625288,0.4658984328716993,-0.4939984459355473,-1.5755992119163271,0.1469852775335312,0.5474669933319092,0.4475231766700744
2.7305131835937573,0.5792956794708967,-0.4698699668511748,-1.6614719072520732,0.1129436790943145,0.5268269777297974,0.4523179233074188
2.7404777832031186,0.6641391048241406,-0.3831733879119157,-1.6948340786278246,0.0648542642593383,0.4790087342262268,0.4654359221458435
2.750443847656257,0.6209332925651222,-0.1495037482470274,-1.7207301519066094,0.0082455798983573,0.4224522411823272,0.4731582999229431
2.7604089355468773,0.5030815507750958,0.170157536958158,-1.7023592134356498,-0.0414044559001922,0.3820114731788635,0.4674980342388153
2.770374023437526,0.3564162408243864,0.5236991721943021,-1.6065969922482966,-0.0746875777840614,0.3859457671642303,0.4646631181240082
2.7803398437499993,0.2051393454249948,0.9440662724688648,-1.4925719691395758,-0.0849031060934066,0.4039267003536224,0.466185986995697
2.790304931640648,0.0916360081028193,1.3932795279994603,-1.3446101896375418,-0.0763993635773658,0.4448949098587036,0.4733887910842895
2.800270996093758,0.0892358150932937,1.754433391804993,-1.0713111348956823,-0.0490866228938102,0.5102674961090088,0.5069466233253479
2.81023583984377,0.1896919662505388,2.0067183000907303,-0.787743199595809,0.0162082314491271,0.5623126029968262,0.5740127563476562
2.8202009277344047,0.3398297015521675,2.14623958350569,-0.4771235912412405,0.1041324883699417,0.608352541923523,0.6685415506362915
2.8301669921875288,0.5147855056375265,2.203892731051147,-0.0882476077735424,0.201526403427124,0.6275994777679443,0.7720405459403992
2.8401320800781207,0.6584056757386774,2.146224385936558,0.1343839205265045,0.2743728160858154,0.5899490118026733,0.8827059268951416
2.8500969238281186,0.7112149634495377,2.036176449765265,0.3968512001305818,0.3123380541801452,0.5507686138153076,0.9630164504051208
2.860062988281257,0.680305738183856,1.954578070747852,0.6108218675911427,0.3259624540805816,0.4839566051959991,1.0097460746765137
2.870027832031269,0.6148688048943877,1.8003332654535769,0.6769575967997312,0.3108783066272735,0.4087060689926147,1.02296781539917
2.879993652343771,0.6098618634525687,1.6810153966337442,0.6450923859834671,0.2780555486679077,0.326664000749588,0.992814838886261
2.8899589843749993,0.6131151661600918,1.5452970126330852,0.667696431979537,0.2797647714614868,0.2881182134151459,0.9465248584747314
2.8999238281249973,0.5698248174227774,1.3593649834379553,0.6874836669892073,0.2899211645126343,0.2736642956733703,0.9013072848320008
2.9098898925781214,0.6126221950113773,1.2469441806554793,0.6537485706478356,0.2843937575817108,0.2531377077102661,0.8586370944976807
2.91985498046877,0.7285211952984333,1.205950199227035,0.5976818155109882,0.2510702908039093,0.2221288681030273,0.807380199432373
2.9298200683594047,0.7657815431565046,1.1958426467105745,0.6225795254021883,0.1951047629117965,0.1955547779798507,0.7620627880096436
2.939785888671878,0.7641224508378655,1.1761235085010529,0.6082704295426606,0.1172759756445884,0.1575574725866317,0.7308502197265625
2.9497509765625267,0.7628844334755093,1.1799746309712529,0.5378343727916479,0.0090051610022783,0.1284107714891433,0.6961241960525513
2.9597160644531186,0.730808137191832,1.1757587668418883,0.491343255251646,-0.1025580763816833,0.1134654060006141,0.6617847084999084
2.9696818847656488,0.6305149945765733,1.150895251481235,0.4337047207534313,-0.1979719549417495,0.1381691545248031,0.6225302815437317
2.979646972656269,0.510771666886285,1.1222107165277004,0.3841851953029632,-0.2719508409500122,0.201513335108757,0.5814149975776672
2.9896130371094074,0.4508079043108969,1.1141665262818337,0.3395890977293253,-0.3200400769710541,0.2789226472377777,0.5420840978622437
2.9995781249999993,0.4621378382291644,1.084371691998839,0.3119821288794279,-0.3424945473670959,0.3567791879177093,0.5051473379135132
3.0095427246094033,0.4482879573792219,1.0328022482812405,0.2950865236580371,-0.3523263931274414,0.4188063144683838,0.4773668348789215
3.0195087890625274,0.4368174459464848,0.9799556242346764,0.3412567386806011,-0.3572384417057037,0.4554207026958465,0.4613073468208313
3.0294738769531193,0.482729594554752,0.9154223617866636,0.4251800535142421,-0.3617879152297973,0.4621177613735199,0.4534294605255127
3.039438964843768,0.5335247659642249,0.8306067742884159,0.5556903474777937,-0.3682006597518921,0.4507075846195221,0.4462250769138336
3.049405029296878,0.5264365612689406,0.7483668824970722,0.6976064170747995,-0.3798503875732422,0.4437173008918762,0.4426878690719604
3.05936987304689,0.4931156717516481,0.6620283232152462,0.8333084344625472,-0.4021882116794586,0.4345402419567108,0.4341283440589905
3.0693349609375247,0.4684273668274283,0.5501619394451379,0.9127280081361532,-0.4289093017578125,0.4264437258243561,0.4239566624164581
3.0793010253906488,0.4440530232232064,0.4402554575711488,1.0125070637494324,-0.4508264362812042,0.440289169549942,0.4086350798606872
3.089266113281269,0.4327283500019461,0.3500573002517223,1.0678677164435386,-0.4624681770801544,0.4456991255283355,0.392888605594635
3.099231933593771,0.4385121941003948,0.2624409761190414,0.9877338570207356,-0.4714721441268921,0.4359834790229797,0.3751329779624939
3.1091967773437688,0.4472784880757331,0.1706345068201422,0.919973741480708,-0.46419557929039,0.4345586895942688,0.3621082603931427
3.1191621093749973,0.4472266848232596,0.0861547271475195,0.8759551515340804,-0.4479301273822784,0.4329534769058227,0.3519205749034881
3.1291279296875274,0.4617523460429161,-0.0237947170853614,0.7616215008676052,-0.4340750277042389,0.4151340126991272,0.357571542263031
3.1390930175781193,0.44979280898422,-0.0752402421623468,0.6007721827417611,-0.3996205031871795,0.38294318318367,0.3515695631504059
3.1490578613281457,0.3739220868986099,-0.1269794894888997,0.4439987357527017,-0.3607213199138641,0.3486035764217376,0.3467737436294555
3.15902392578127,0.2825979212239384,-0.1968687260121107,0.3243161252737045,-0.3200932741165161,0.3146238327026367,0.3480435907840729
3.1689887695312677,0.2100802358932793,-0.2545829560950398,0.2217863096475601,-0.2754224836826324,0.2856926023960113,0.3566074967384338
3.1789541015625247,0.1614439230181276,-0.3646566112294793,0.0822270323097705,-0.2343268543481826,0.2423346191644668,0.3687407672405243
3.188919921874998,0.1197049684412777,-0.4822615386515855,-0.0983183354109525,-0.1809461861848831,0.1979557126760482,0.3817292749881744
3.19888476562501,0.030959567213431,-0.5550105485200881,-0.2678653392553329,-0.1258686631917953,0.1496747285127639,0.3926629722118377
3.208851074218771,-0.0995076913259923,-0.6225900467962027,-0.4251607642918825,-0.0702386945486068,0.1089246347546577,0.3895753026008606
3.2188159179687688,-0.2530646604865789,-0.7023261390730738,-0.5993418576776981,-0.0130342282354831,0.0797769427299499,0.3823124468326568
3.2287810058594033,-0.3729976655300706,-0.8010957253828644,-0.7916378689467907,0.0389115288853645,0.047268271446228,0.3689377903938293
3.2387470703125274,-0.4843314037282019,-0.8542980309993028,-0.9260288037359714,0.0914489850401878,0.0273518469184637,0.3372361361980438
3.2487121582031193,-0.5555731508389115,-0.8912605649545788,-1.0779992343574762,0.1442925035953521,0.0055879619903862,0.3125039041042328
3.2586770019531457,-0.6076140845257788,-0.9403697560384868,-1.2160142048627138,0.188404694199562,-0.006311900448054,0.2929519712924957
3.2686428222656474,-0.6922390448227524,-1.001560137799382,-1.2681564800322056,0.2296725064516067,0.0006527986843138,0.2847864627838135
3.27860815429689,-0.8309764843836426,-1.0473395999386903,-1.2736474786639214,0.2760942876338959,0.0171297565102577,0.2973774373531341
3.2885727539062657,-0.9629247021958232,-1.074082937696576,-1.2652958299040793,0.3198135495185852,0.0345284529030323,0.3093094825744629
3.298538818359404,-1.0822320496216415,-1.065808153565228,-1.1767319957882163,0.3589484691619873,0.0367119498550891,0.3047588765621185
3.30850390625001,-1.23190180208534,-1.025867188321054,-1.0924661511272191,0.3899567425251007,0.0242456924170255,0.2792998552322387
3.3184689941406447,-1.3388812905967236,-0.987067794327438,-0.9644178633630276,0.4239084720611572,0.0087893698364496,0.2367059588432312
3.328434814453118,-1.3728583790004252,-1.0236012892156838,-0.773608291259408,0.4536216259002685,0.0098154852166771,0.1868294775485992
3.3384001464844033,-1.3100354276016353,-1.076433007954061,-0.6171493170469999,0.4752963781356811,-0.0047282166779041,0.1397545039653778
3.348365966796891,-1.1973505670554936,-1.0336223324924707,-0.4949164375633001,0.4842864274978637,-0.0489140525460243,0.0945574641227722
3.3583308105468888,-1.114058901188895,-0.9515770864903926,-0.4034767557501793,0.4657267034053802,-0.1163371428847312,0.050672810524702
3.3682958984375233,-1.0270595399107785,-0.8792994935259223,-0.3317103271782398,0.4405915141105652,-0.1828168332576751,0.012177619151771
3.3782619628906474,-0.8547028124079108,-0.8688403510928153,-0.2050385884642601,0.4232516884803772,-0.2319256961345672,-0.0127594880759716
3.3882297363281424,-0.630687136273086,-0.9028001961007712,-0.174252989578247,0.3950575888156891,-0.2752681076526642,-0.0412260182201862
3.3981948242187627,-0.3914393311496824,-0.9952665906131268,-0.1241471886724233,0.3420621752738952,-0.308768481016159,-0.0796756222844123
3.408160888671887,-0.2546525872651487,-0.990105554588139,-0.1202484276682138,0.2654097378253937,-0.3548094928264618,-0.1319334954023361
3.4181257324218848,-0.1872951342418789,-0.9045978931725024,-0.1629296315312385,0.1708416938781738,-0.4072503447532654,-0.1911850720643997
3.4280910644531417,-0.1967944917321205,-0.7515107334807515,-0.1381131701827049,0.0537025481462478,-0.4500601291656494,-0.2523195445537567
3.4380568847656434,-0.267130302979052,-0.5609475373536348,-0.191558344644308,-0.0917698442935943,-0.510429322719574,-0.3069484829902649
3.4480219726562638,-0.3758662067037076,-0.3550108310058713,-0.3366565514087676,-0.2568919658660888,-0.5633196830749512,-0.3608727157115936
3.457988037109388,-0.5731440249733627,-0.0373605933621525,-0.5711801775544881,-0.4095817804336548,-0.6191656589508057,-0.4151559174060821
3.467952880859386,-0.8415991468153894,0.3236912713736296,-0.8944120147228241,-0.527023434638977,-0.662236750125885,-0.466941624879837
3.4779179687500203,-1.0974477389320731,0.7049217085242271,-1.2181968095988034,-0.58488929271698,-0.668185830116272,-0.5205848217010498
3.4878840332031444,-1.2595320056803525,1.0472498758286235,-1.520418007442355,-0.5712600350379944,-0.6274392008781433,-0.5639293789863586
3.497849121093765,-1.3177445406742394,1.3057207792729135,-1.7022756268054249,-0.465779036283493,-0.518017053604126,-0.5784206986427307
3.5078137207031403,-1.3339558168932797,1.4419567574068903,-1.693718226340413,-0.2747555673122406,-0.3445009291172027,-0.5565702319145203
3.5177797851562644,-1.305375326836109,1.521382176299393,-1.5296096141576767,-0.047360386699438,-0.1462375968694687,-0.5047268867492676
3.5277448730468848,-1.218780600836128,1.5518810671985148,-1.3259499128311871,0.1706747412681579,0.002037082100287,-0.432000458240509
3.5377099609375193,-1.1114120399419218,1.4947741553589702,-1.0474538739681245,0.3667302429676056,0.0672179982066154,-0.3622131943702698
3.547675781250007,-1.0441656460776925,1.4451809801504014,-0.6616302638083696,0.5297095775604248,0.0569304749369621,-0.3224617838859558
3.5576408691406414,-1.0378860543515531,1.4182590709552167,-0.2595131059736013,0.6545209884643555,-0.0227588340640068,-0.3253562152385711
3.5676059570312617,-1.047196611271426,1.3373676711633802,0.0528279193460941,0.7488834857940674,-0.1514289230108261,-0.357601523399353
3.5775717773437634,-1.0248356533162295,1.193264320655167,0.3984966292500496,0.7805836200714111,-0.2848312854766845,-0.4135515391826629
3.5875368652343838,-1.016913920406252,1.0350009273692964,0.7355015557050705,0.7516584992408752,-0.4096709489822387,-0.4867887198925018
3.597501953125004,-1.049320179296657,0.8757534914821385,0.9807155026912688,0.6494976282119751,-0.5126349925994873,-0.5835002064704895
3.6074680175781424,-1.114982518839836,0.7628963431090116,1.1323369737446307,0.4920007288455963,-0.5998631119728088,-0.6939460039138794
3.6174328613281403,-1.1909864388510585,0.7360644502848386,1.1560405054152012,0.3060208261013031,-0.652357280254364,-0.8115490078926086
3.6273989257812644,-1.3410384686306118,0.7677022820860147,1.128282729917765,0.1054706647992134,-0.6573435068130493,-0.9191511273384094
3.6373637695312624,-1.5087771078787744,0.8595639887034893,1.0196651188105343,-0.0812146216630935,-0.6101438999176025,-1.0221805572509766
3.6473286132812603,-1.6235625939659772,0.9904612361580132,0.8671504983097315,-0.2363035380840301,-0.5374007225036621,-1.1062949895858765
3.657294921875007,-1.659378149843216,1.128237137210369,0.6507581566601991,-0.3512451350688934,-0.4733504056930542,-1.1800270080566406
3.667259765625019,-1.6447994432620705,1.248243280555308,0.4545826736092567,-0.4320363998413086,-0.4118279218673706,-1.2337663173675537
3.6772248535156393,-1.657079371381551,1.3649804852321743,0.3379319781720638,-0.4536080360412597,-0.3468681573867798,-1.265466332435608
3.6871909179687634,-1.6691750289753078,1.4814721907153725,0.2847615289986133,-0.427964985370636,-0.2801429331302643,-1.2727620601654053
3.6971560058593838,-1.6315253895387052,1.499965294261277,0.2754711380839347,-0.3743663132190704,-0.2354239374399185,-1.2559493780136108
3.70712084960941,-1.588493472541869,1.458843010278046,0.2720715587735176,-0.3252847790718078,-0.2182276397943496,-1.225349187850952
3.71708691406252,-1.5726578977674246,1.4339073064640164,0.3962356985807418,-0.2685752809047699,-0.2058513313531875,-1.19398832321167
3.7270520019531403,-1.5398358246177437,1.3216618602484465,0.6047989540398121,-0.2026239782571792,-0.187902957201004,-1.1569347381591797
3.737016845703124,-1.4503243343882262,1.123902907398343,0.8374071019530296,-0.1360214054584503,-0.1787670403718948,-1.1117099523544312
3.7469829101562624,-1.3476353826776146,0.9558309445425868,1.1256792694211006,-0.0909194350242614,-0.1830376833677292,-1.0659488439559937
3.7569479980468827,-1.1848002975620329,0.739415222017467,1.3744260667085646,-0.0621899142861366,-0.2181604206562042,-1.013095498085022
3.7669138183593844,-1.0333370858103037,0.4739776944309473,1.50588036352396,-0.0504096858203411,-0.2974413633346557,-0.9536345601081848
3.7768786621093824,-0.9395232952769844,0.2055509219005704,1.618450511649251,-0.0530310571193695,-0.390030562877655,-0.8973223567008972
3.7868439941406393,-0.8706661782804876,-0.0557248098313808,1.688624702593684,-0.0701442658901214,-0.5145685076713562,-0.8442263603210449
3.796809814453141,-0.775073249245435,-0.3004024579837918,1.604324955663085,-0.0972067341208458,-0.6697236895561218,-0.8033272624015808
3.806774658203139,-0.7430038941591978,-0.5483557668060064,1.5681775374829767,-0.1267007142305374,-0.7935566902160645,-0.7724117040634155
3.81673999023441,-0.7576274627953767,-0.7784560235515237,1.5093687901616095,-0.1576944589614868,-0.9003716707229614,-0.7451966404914856
3.8267058105468834,-0.7603557917807251,-0.9297066154658794,1.3439917654782534,-0.1909408271312713,-0.9878732562065125,-0.7321817278862
3.836670898437518,-0.8174857922349125,-0.9435504319012163,1.1541934162437917,-0.2206725180149078,-1.0586605072021484,-0.7449213862419128
3.84663574218753,-0.9496446571230888,-0.8760787779137492,0.8845762648850679,-0.2381447106599807,-1.095071792602539,-0.7777373790740967
3.85660180664064,-1.047871734054014,-0.7720856117367744,0.6446230149060488,-0.2208067923784256,-1.099886417388916,-0.8169416785240173
3.8665668945312603,-1.0456139451898634,-0.6498378269448876,0.466339162376523,-0.1787778437137603,-1.079409956932068,-0.846923291683197
3.8765319824218807,-0.9148528913356364,-0.6876140153706073,0.3507774312198162,-0.1371599733829498,-1.039198398590088,-0.8609126210212708
3.886498046875019,-0.7340352825447917,-0.6488116987675429,0.1736269666343927,-0.1005180776119232,-1.018048644065857,-0.8686781525611877
3.8964626464844088,-0.5799198027186095,-0.6354261474937201,0.0301274272382259,-0.0776922702789306,-1.006901502609253,-0.8652454018592834
3.9064277343750007,-0.4522051308229565,-0.6563172520920634,-0.0899140796810388,-0.062355663627386,-0.9915693402290344,-0.8614272475242615
3.916393798828139,-0.3110750970371067,-0.6352189344838262,-0.2139355961471795,-0.0587663948535919,-0.965201199054718,-0.8564937710762024
3.9263588867187593,-0.1973205614328384,-0.6834238702043891,-0.3313689663946628,-0.0511614754796028,-0.9122051000595092,-0.8570173382759094
3.9363237304687573,-0.1088089872271753,-0.6851183991625904,-0.4811123686164617,-0.0468596406280994,-0.8453932404518127,-0.861328125
3.9462897949218814,0.0253999968575313,-0.6719441525518893,-0.625985534453392,-0.0376246012747287,-0.7651407122612,-0.8709040284156799
3.95625488281253,0.1486183619809337,-0.6432637092515826,-0.7708055087983607,-0.0191337466239929,-0.6848229765892029,-0.8854438066482544
3.9662207031250034,0.2801042229783721,-0.5734691652745008,-0.9166928201138972,-0.0017832517623901,-0.6106970906257629,-0.8950229287147522
3.9761860351562603,0.4266066522512585,-0.524152468919754,-0.9313537981510162,0.0310844667255878,-0.5093817114830017,-0.8911994695663452
3.9861508789062583,0.5686481748588383,-0.4702534132108092,-0.9229740923404692,0.0576361864805221,-0.4251606166362762,-0.8666797280311584
3.9961169433593824,0.6885546572215855,-0.4714654193490743,-0.9317845907837152,0.0859121307730674,-0.3353707194328308,-0.8345997333526611
4.006081787109409,0.8043866566870361,-0.4938096453651786,-0.8780605993807316,0.1085186451673507,-0.2455822527408599,-0.7984830141067505
4.016047119140637,0.987013799117878,-0.591949117077887,-0.8236012794405222,0.1109263524413108,-0.1633351296186447,-0.7567278146743774
4.026012939453139,1.156284470238909,-0.721992378051579,-0.7868342680573462,0.1119492724537849,-0.1187032237648963,-0.7048736810684204
4.035977783203123,1.2859146934323011,-0.7957128633007406,-0.8395347616314888,0.1180475875735282,-0.1277624815702438,-0.6498214602470398
4.045942871093757,1.3574689405582845,-0.8476964407771825,-0.8753513404220342,0.1144818887114524,-0.1710385829210281,-0.6009697914123535
4.055908691406259,1.4071987477585672,-0.9144657917141914,-0.934300957518816,0.1232640594244003,-0.2263258695602417,-0.5583707094192505
4.065873779296879,1.4182507415182888,-1.0428408272147178,-0.9548930791705846,0.1242353171110153,-0.2740739583969116,-0.531132161617279
4.075838867187528,1.472554724766314,-1.1511682232037186,-0.9710323130667208,0.1264092028141021,-0.3017529547214508,-0.5167720317840576
4.085804931640638,1.5058420773401855,-1.277853698182106,-0.9350158277899028,0.1170977354049682,-0.3070694208145141,-0.5061827898025513
4.09576977539065,1.5139780375227332,-1.3728411356046797,-0.8414800504803657,0.0807815343141555,-0.2895694673061371,-0.510894238948822
4.1057348632812705,1.5057758802361785,-1.3613131948962809,-0.8853811515271663,0.0185114983469247,-0.3208877146244049,-0.5280037522315979
4.115700927734409,1.4564860718883572,-1.2610206368029118,-1.038668509966135,-0.0663870051503181,-0.3878887891769409,-0.5630085468292236
4.125666015625001,1.3701163868159054,-1.0871043318331242,-1.1428741498500108,-0.1850302964448928,-0.4452487528324127,-0.6130250692367554
4.135630859374999,1.2707801065340638,-0.8527735979110002,-1.3952812232106924,-0.3292260766029358,-0.4970678389072418,-0.6573945879936218
4.145596923828123,1.1502684978850186,-0.6007511399537324,-1.5973171227276324,-0.4611734449863434,-0.4932600557804107,-0.6785331964492798
4.155562011718757,1.0339457192279398,-0.2229980235248804,-1.8460732723653317,-0.5536465644836426,-0.4720111191272735,-0.6892783641815186
4.165526611328119,0.9441506628166884,0.2483990067631006,-2.109911255800724,-0.5836217403411865,-0.4042339622974396,-0.688727617263794
4.175492919921879,0.809866622468084,0.648233022096753,-2.2750831133008003,-0.5360692739486694,-0.2766186594963074,-0.652388870716095
4.185457763671877,0.6810795721005648,0.867654940700531,-2.282833873558044,-0.4104024171829223,-0.0813343822956085,-0.5568077564239502
4.195422851562526,0.6869779824893921,1.1299275745153423,-2.2456372385859487,-0.2413413971662521,0.1286270171403885,-0.4287948608398437
4.20538891601565,0.7414555687386543,1.3549506741270425,-2.1137293527841567,-0.0518180653452873,0.3374683856964111,-0.282892495393753
4.2153540039062705,0.840850082013756,1.4645695712313056,-1.879487466189265,0.1414770036935806,0.4989824891090393,-0.1304060667753219
4.225318847656268,0.9547593697883188,1.483272810396552,-1.591084950339794,0.3016666769981384,0.6079419851303101,0.0088940318673849
4.235284912109407,1.055960713289678,1.4657856690227984,-1.3022545644670724,0.4244153797626495,0.6462970972061157,0.1294544637203216
4.245249999999999,1.1030628023348747,1.4139403309732674,-0.9862176072388886,0.5325482487678528,0.6374356746673584,0.2414337247610092
4.255215820312529,1.1226097988478838,1.3275892044708133,-0.7257014617025852,0.5984322428703308,0.580070436000824,0.3365603983402252
4.265180908203121,1.1519950294166803,1.1997206571877002,-0.4808680384665727,0.6358230710029602,0.5007023811340332,0.4186278283596039
4.275145996093769,1.1468149964302778,1.0853320614635944,-0.2312631630450487,0.6514228582382202,0.4203377366065979,0.4802411496639251
4.285111816406257,1.082106450480595,0.9480258237496018,-0.0364186363369226,0.653159499168396,0.3601644039154053,0.5220038294792175
4.295076660156269,0.9461576187249272,0.8806286963030695,0.1516191329658031,0.627301037311554,0.3125286996364593,0.5353033542633057
4.305041992187526,0.8286042753595858,0.888977422453463,0.2649731249451637,0.5796259045600891,0.2624703347682953,0.5289381742477417
4.315007812499999,0.6923318376727402,0.8807572911188006,0.3100917850881814,0.5094954967498779,0.2120003551244735,0.5051254034042358
4.324972656249997,0.6026668008493259,0.9028452042862772,0.256042799514532,0.4376742541790008,0.163489282131195,0.480244517326355
4.334937988281268,0.4433904676612466,0.913763196402788,0.2927916907191276,0.3751603662967682,0.1562999933958053,0.4558007717132568
4.34490380859377,0.2529701140709221,1.044719772829115,0.3554869240850209,0.3077480494976043,0.1755927354097366,0.4212478399276733
4.354868896484405,0.2091365253023803,1.1548457426726817,0.2942711156219244,0.2506868243217468,0.1825928390026092,0.3915972709655761
4.364833740234388,0.1964816263906657,1.1703814577177167,0.2074403889089822,0.2032849490642547,0.1941879689693451,0.376769870519638
4.374799804687527,0.2032604728758335,1.1889461651951074,0.1952799955159425,0.1705145984888076,0.2241288274526596,0.3891881108283996
4.384761230468769,0.1408404031895101,1.271643153104186,0.212235806491971,0.141032874584198,0.2584779858589172,0.4155984222888946
4.394726318359403,0.1402309660542756,1.2823027865454557,0.2230897934615612,0.1200651973485946,0.2994453608989715,0.450389951467514
4.404692382812527,0.1182091769255697,1.266187810307741,0.2815413979083299,0.1060931906104087,0.342705488204956,0.4864736497402191
4.414657226562525,0.0311846446735784,1.2594666853591798,0.3511439264446497,0.1007198169827461,0.3786559700965881,0.5133090615272522
4.424622314453146,-0.0428814026102423,1.2436696890294552,0.4433206903606653,0.1071833148598671,0.4042636156082153,0.5297527313232422
4.43458837890627,-0.0788507973423227,1.1659963745012878,0.549596706777811,0.1305650621652603,0.4109428226947784,0.5413156151771545
4.44455346679689,-0.0582268923128023,1.069840477821231,0.6539087296456099,0.1491829603910446,0.4009479880332947,0.5355331301689148
4.454518066406266,-0.0376227148970589,0.9242959885939956,0.7671323732435703,0.1827664226293563,0.3773098587989807,0.5128887891769409
4.464484374999998,-0.0350636415313929,0.7657125695735215,0.8908885167717933,0.2166080176830291,0.3499727845191955,0.4897856116294861
4.47444921875001,-0.0440349200269207,0.6225199041694403,1.059282258927822,0.23942431807518,0.3354403972625732,0.4673780798912048
4.4844143066406446,-0.0764080073000863,0.4572282196819782,1.2466729624986648,0.2470390945672989,0.3327692449092865,0.446929007768631
4.494380371093769,-0.1321544444413855,0.2529080086201429,1.3166548457413911,0.2236626595258712,0.3378660082817077,0.4215991497039795
4.504345214843767,-0.2068110414968803,0.0967681833595037,1.3839917674332856,0.1959308981895446,0.3426288068294525,0.3791997730731964
4.514310302734387,-0.2512044561052695,-0.0273275673866271,1.375551855868101,0.1651609987020492,0.3333705961704254,0.322296530008316
4.524276367187525,-0.2054343828488141,-0.1952297266334295,1.2130144385248425,0.1473276764154434,0.2909227311611175,0.2718144357204437
4.534241455078146,-0.1199199994314461,-0.3644768707484007,0.9659335286229848,0.1607962250709533,0.2142431885004043,0.2417785823345184
4.544207275390647,-0.0748777655255049,-0.4890057522147893,0.7100304298400878,0.1934716254472732,0.113999418914318,0.2208117693662643
4.554172363281268,-0.0949840764217078,-0.5564584092408418,0.4704360763013362,0.2292299121618271,0.0069267922081053,0.2047788053750991
4.564137451171888,-0.1823074089571833,-0.6294429814308882,0.2523825234413147,0.2635513842105865,-0.0786610767245292,0.1926422417163849
4.574103271484404,-0.3382206589203327,-0.7329746675759553,0.0670586892724037,0.2882687747478485,-0.1111102253198623,0.1771122962236404
4.58406835937501,-0.4408598166724666,-0.8252776882201432,-0.1434293967694044,0.3100659549236297,-0.1010011285543441,0.1590371429920196
4.594033203125008,-0.5343821134459227,-0.9135299721688032,-0.3297989405989647,0.3425845503807068,-0.0384115539491176,0.1282720565795898
4.603999511718769,-0.6185261583581566,-0.9147095373421908,-0.4710521623730659,0.3836473226547241,0.0593546889722347,0.0944994539022445
4.613964111328144,-0.7084390689954161,-0.8661077112585306,-0.603652122092247,0.4389535188674927,0.15872722864151,0.0494712553918361
4.623929443359387,-0.7395931358676403,-0.8110895883917808,-0.7625158193588256,0.4914644062519073,0.2372934073209762,0.0028752565849572
4.633895263671889,-0.7019654890671372,-0.7767220393657683,-0.7896540016531943,0.5614089369773865,0.304915189743042,-0.0376912541687488
4.643860351562523,-0.5848461532048881,-0.7863193042725324,-0.7663491139113903,0.634297251701355,0.3237472176551819,-0.0668174475431442
4.653825195312507,-0.4405429692756384,-0.722527507841587,-0.6862596781522036,0.6997954249382019,0.3005968928337097,-0.0773717388510704
4.663791259765645,-0.2599431679539382,-0.6656552815407514,-0.5699094269663095,0.7346426248550415,0.2214946150779724,-0.0523982159793376
4.673756347656266,-0.1170812688741832,-0.6624690527200698,-0.5127402635455132,0.7286971211433411,0.0897800922393798,-0.0083437375724315
4.6837211914062635,-0.032006592048332,-0.5845943704009056,-0.4753618422657251,0.6814342737197876,-0.0619982481002807,0.0317086055874824
4.69368750000001,-0.0343141383383423,-0.5124450799912214,-0.391164386665821,0.6383110284805298,-0.1838531643152237,0.0832952708005905
4.703652343750008,-0.1340391987420618,-0.5352765050023793,-0.2955874589174985,0.5996560454368591,-0.2377414405345916,0.1470478773117065
4.713618164062524,-0.3245011264517903,-0.5828957497894763,-0.2465320438474416,0.5772870779037476,-0.2198291569948196,0.1973811984062194
4.723583496093767,-0.5807388274839148,-0.59814475684762,-0.1736702212542295,0.5831340551376343,-0.1468899697065353,0.2075712531805038
4.7335483398437646,-0.8065859933622181,-0.5136480260401964,-0.2149795522421598,0.5959056615829468,-0.0743302032351493,0.1704245209693908
4.743514160156266,-0.8780792310159653,-0.436776967805624,-0.2255512151390314,0.5894091725349426,-0.0267717335373163,0.1014196276664733
4.753479248046887,-0.8219776237614452,-0.451128149241209,-0.1882850220620632,0.5745766162872314,0.0034325865563005,0.0386798493564128
4.763444335937507,-0.5843248327445238,-0.515515573477745,-0.1450783330202102,0.5719118118286133,0.0167143028229475,0.0099528627470135
4.773410156250009,-0.2499692152218893,-0.6044032327204942,-0.0993728128999471,0.5623153448104858,0.0006982509512454,0.0206510983407497
4.783375488281266,0.1083615539869293,-0.739264123108983,-0.0982306571274995,0.556544303894043,-0.0283597633242607,0.0490105673670768
4.7933403320312635,0.4566545114472508,-0.7915893536299466,-0.0397030648350715,0.5427978038787842,-0.0896584317088127,0.0923187285661697
4.803306152343765,0.5679472600478679,-0.7092828263431787,-0.04904956985116,0.5013025403022766,-0.2028702050447464,0.131055474281311
4.813271240234386,0.3933034810537472,-0.4741448676913976,-0.0181523272842168,0.4031396806240082,-0.3381533622741699,0.1596346646547317
4.8232365722656425,-0.0263658462150022,-0.2620359024494886,0.0764852737873792,0.2569300234317779,-0.4319075345993042,0.1762623637914657
4.833202392578144,-0.5788049733445048,-0.0285398657858371,0.0884305631250143,0.0710714161396026,-0.4968532025814056,0.1551805883646011
4.843167236328142,-1.095452546526864,0.264690800872445,-0.1096750112056732,-0.1421108990907669,-0.5345821976661682,0.0987849608063697
4.853132568359385,-1.6042093664593993,0.5963046819388866,-0.3287830415546894,-0.3336739540100097,-0.5116663575172424,0.0189022831618785
4.863098388671887,-2.0237850240953263,0.9334656757384538,-0.4539455447494983,-0.4627895951271057,-0.3983701765537262,-0.0703447684645652
4.8730632324218845,-2.22088200590536,1.248791269826889,-0.516757682493329,-0.4976983964443207,-0.2321875095367431,-0.1452550143003463
4.883029296875009,-2.079927474816889,1.3889514356672763,-0.6075806937128305,-0.447465568780899,-0.0625816956162452,-0.1855771392583847
4.892994140625021,-1.7460566086038949,1.4011942466467615,-0.6736825206518173,-0.3142997920513153,0.0488280318677425,-0.1849509328603744
4.902959228515641,-1.339434978956729,1.3597750255435703,-0.6799947725385427,-0.1490285396575927,0.0772532820701599,-0.1596242785453796
4.912925292968765,-1.004409608946368,1.316511637878418,-0.5487994189202785,0.0184190589934587,0.0291929841041564,-0.1178551912307739
4.922890380859386,-0.8099469942279159,1.2644319065511227,-0.2006067434966564,0.1665906757116317,-0.0552912764251232,-0.0753934830427169
4.9328552246093835,-0.758618373528868,1.2037088500410318,0.1423591371893882,0.2712956964969635,-0.1917321532964706,-0.0526637956500053
4.942821533203144,-0.7176086830746382,1.1200023928284644,0.3617372166514396,0.323490172624588,-0.3780863285064697,-0.0728223249316215
4.952786376953142,-0.6485610119421035,0.9813491244196892,0.5671317789465189,0.3229971826076507,-0.5710909366607666,-0.1294634938240051
4.9627514648437625,-0.6570384059734642,0.7542834130644798,0.8136077086925506,0.2779383659362793,-0.7299959063529968,-0.2041912525892257
4.972717285156264,-0.7139303598880767,0.563899372896552,1.1007254454284905,0.1691798567771911,-0.8131860494613647,-0.3033604025840759
4.9826823730468845,-0.7830035307880491,0.4922083476483821,1.3060007652580736,-0.0056105926632881,-0.844630777835846,-0.4127585291862488
