time,ax,ay,az,gx,gy,gz
0.0,0.0654806263007223,-1.4535001879453655,-0.2357201424539089,0.1844551116228103,-0.6438931226730347,-0.29215008020401
0.009964843750005059,0.052332646642439,-1.455925953787565,-0.4283803108602761,0.2536265254020691,-0.7027403712272644,-0.302738755941391
0.019929931640625398,0.0380480641696602,-1.4066048735186456,-0.5600234082460404,0.3096956312656402,-0.7369758486747742,-0.313088059425354
0.029894775390630457,-0.0028352234259247,-1.3176859423547982,-0.6707634183347225,0.3539875745773315,-0.7586894035339355,-0.3251678943634033
0.039860107421880286,0.0237657832518219,-1.2326558353230357,-0.7211018589526415,0.3796490132808685,-0.7602745294570923,-0.3409031927585602
0.04982495117187824,0.1101344454109668,-1.1604697200343013,-0.7272527827978134,0.3894363045692444,-0.7403344511985779,-0.3560241162776947
0.059789794921876194,0.2302156998187303,-1.133563885191083,-0.7774661357313394,0.3734685480594635,-0.7085086107254028,-0.3553777635097503
0.06975463867188125,0.434607807072997,-1.2521584081724286,-0.7503449045717716,0.3404141068458557,-0.6223093867301941,-0.350971519947052
0.07971997070313108,0.6045485594753176,-1.297087098701298,-0.7914385469824076,0.2936077117919922,-0.5338975191116333,-0.3428305089473724
0.08968481445312904,0.6795322695933282,-1.2423489618197083,-0.8829594773381948,0.2256941348314285,-0.4555789232254028,-0.3276718258857727
0.09964990234374937,0.7105489007562399,-1.1750775065794588,-0.9801227974951268,0.1499863266944885,-0.379874050617218,-0.3100638091564178
0.10961499023437682,0.7836553457602858,-1.1765373499989509,-1.0765005202323197,0.0916363075375557,-0.3044094741344452,-0.2884868681430816
0.11958007812500426,0.9455537345476448,-1.2651616821303964,-1.168617662915587,0.0522747784852981,-0.2227250039577484,-0.2661855816841125
0.1295449218749951,1.119833466002345,-1.3286723235324025,-1.3490923034876583,0.0139478091150522,-0.1833756268024444,-0.2667043507099151
0.13950976562500017,1.367091486036777,-1.3861363782465457,-1.5747949097961187,-0.0130726248025894,-0.1902215480804443,-0.2771471440792084
0.14947485351562761,1.6566484326183797,-1.4418085811078547,-1.8092893098473548,-0.0358923375606536,-0.2492094933986663,-0.296153575181961
0.15943969726562557,1.7783539272271096,-1.4012439310073852,-2.2081693854570386,-0.0685120671987533,-0.3646734952926636,-0.3252616822719574
0.1694050292968754,1.763913898464292,-1.2287114816114306,-2.536017191988229,-0.114437535405159,-0.4792794287204742,-0.356065958738327
0.17936987304688046,1.5813440391786395,-0.9957765859618782,-2.726958281517029,-0.1786530166864395,-0.5451471209526062,-0.385169506072998
0.1893349609375008,1.2905017289616167,-0.5799085506722331,-2.895910826599598,-0.2609041631221771,-0.551882266998291,-0.418619304895401
0.19929956054687636,0.9995064932052046,0.0013560907840728,-2.950880434149504,-0.3330616950988769,-0.4827846884727478,-0.4512749910354614
0.2092648925781262,0.7610802335977553,0.5488958650320768,-2.9675235259145496,-0.3473943173885345,-0.3500416278839111,-0.4560266137123108
0.2192307128906279,0.723777580967918,0.9933300695925952,-2.863205657827854,-0.26718470454216,-0.1347426474094391,-0.4171801507472992
0.22919580078125534,0.8523376176465303,1.401727330610156,-2.675778129377961,-0.1286509782075882,0.1067806184291839,-0.3327039182186126
0.23916088867187568,1.1201267498604952,1.6770745500534772,-2.4731273128330704,0.0493690855801105,0.3265015482902527,-0.2092051357030868
0.24912597656251023,1.4360437339708207,1.8319328110709785,-2.1182582283854483,0.2290877997875213,0.5237120389938354,-0.0708403140306472
0.2590908203125011,1.739137476865202,1.9187734746560452,-1.731822039285302,0.3874553442001343,0.6568535566329956,0.0748590975999832
0.2690559082031285,2.000970404088497,1.940562989398837,-1.2917325859308242,0.509612500667572,0.7411447167396545,0.2216426879167556
0.2790207519531265,2.1313767992861568,1.9129148117557169,-0.975937036243081,0.5908392071723938,0.7545590400695801,0.3432261049747467
0.288985839843761,2.2353335789754984,1.8656451110586525,-0.6863742444425821,0.6418096423149109,0.7376492619514465,0.436699628829956
0.29895092773437426,2.350841387987882,1.7811390279009938,-0.3850684078782797,0.6598466634750366,0.6950258612632751,0.4970652461051941
0.3089157714843793,2.4647347475409505,1.647579283238947,-0.1741325780689716,0.6363084316253662,0.6479768753051758,0.5464340448379517
0.31888085937499966,2.509223585347831,1.515781287552416,-0.0336041634380817,0.5701475143432617,0.6003174781799316,0.6029441952705383
0.3288459472656271,2.4678645699992776,1.3868237759888171,0.1024526587367057,0.4648104310035705,0.5777806043624878,0.6596125364303589
0.33881127929687693,2.352283549620211,1.3919240217372777,0.1078226613372564,0.3249619901180267,0.5633020997047424,0.7010478973388672
0.3487763671875044,2.2131761077031493,1.4583289232760668,-0.0110778588533401,0.1834701597690582,0.5726175904273987,0.7315977811813354
0.35874121093750233,2.044357710394263,1.5375766475141048,-0.1521224063128232,0.0651765465736389,0.6089385747909546,0.7664825320243835
0.3687060546875003,1.8215822435788809,1.6154975070625543,-0.3463759813904762,-0.021445382386446,0.6654701828956604,0.8068745136260986
0.37867114257812773,1.6293255414068697,1.7450085608556865,-0.4732815288603305,-0.0740888863801956,0.725784420967102,0.8378294706344604
0.3886362304687552,1.4935900601409375,1.8865718714922664,-0.5590490102559328,-0.0958228856325149,0.7852864265441895,0.8621336817741394
0.3986013183593755,1.349190941556543,2.015517400357127,-0.5201356344938278,-0.0817771106958389,0.8577883243560791,0.8888942003250122
0.40856616210938057,1.2265642404496668,2.109062530016899,-0.3985708635300398,-0.0583153814077377,0.9186200499534608,0.9221486449241638
0.4185312500000009,1.130388616155833,2.1506030394122004,-0.3202186268270015,-0.0411824658513069,0.9574958086013794,0.9617087841033936
0.42849609375000597,1.0764736322253945,2.197555344723165,-0.0809311472803354,-0.02028489112854,1.007546067237854,1.008644938468933
0.4384611816406263,1.024916901858896,2.136135538120568,0.1630927131384611,0.0011434350162744,1.0439887046813965,1.0652709007263184
0.44842626953125375,1.0273433983534574,2.0448332189515237,0.3843593828260898,0.0287736244499683,1.0662658214569092,1.124265193939209
0.4583911132812517,1.057598251363635,1.9523408132150768,0.6536614768862724,0.0523010566830635,1.0782142877578735,1.177823543548584
0.46835620117187915,1.0542890537504106,1.7907871462121605,0.8900999967426061,0.0731710121035575,1.07189679145813,1.226222276687622
0.4783212890624995,1.0051057014517486,1.6196633945703505,1.072203115299344,0.0733995139598846,1.0503603219985962,1.257944941520691
0.48828637695312693,0.9584016718134284,1.467034207779169,1.2163152336359024,0.0662891417741775,1.0146665573120115,1.2670055627822876
0.4982509765625096,0.8334365908868611,1.289608725644648,1.2940858710587024,0.046769767999649,0.956010103225708,1.2661890983581543
0.50821606445313,0.6909488588817417,1.0871423257559538,1.3422995746076103,0.0136692328378558,0.8916481733322144,1.245059609413147
0.5181811523437503,0.5079459419410676,0.924981632770598,1.3885726654827597,-0.0347763299942016,0.8428452014923096,1.201526165008545
0.5281462402343777,0.318738252076134,0.7532312736630439,1.3852449823647737,-0.0953175723552703,0.8108634352684021,1.1459590196609497
0.5381110839843757,0.1579157671582885,0.577771246382594,1.367511757275462,-0.1475690603256225,0.8076484203338623,1.0912127494812012
0.5480761718750031,-0.00064982394455,0.4172971913099288,1.2780354844897983,-0.1989625543355941,0.8012354969978333,1.0535632371902466
0.558041503906253,-0.1279899999720044,0.3071224138885736,1.128921612343192,-0.2413060069084167,0.7806396484375,1.0216317176818848
0.5680061035156285,-0.2436154988136142,0.1809542407825589,0.9696820675015448,-0.2623065710067749,0.7704179286956787,0.9977073073387146
0.577971191406256,-0.4039270568009466,0.0251329799517989,0.8265005080133676,-0.2572841048240661,0.7491419315338135,0.9748775959014891
0.5879360351562539,-0.5592932673405856,-0.1061152728974819,0.5935130053937435,-0.2537214457988739,0.7017765045166016,0.939651370048523
0.5979013671875038,-0.6826850345358252,-0.2447735097423195,0.3590682897031307,-0.2461737990379333,0.6393370628356934,0.8889410495758057
0.6078662109374946,-0.8193152726843953,-0.395032460270822,0.1913315501511097,-0.228636622428894,0.5808891654014587,0.8361151218414307
0.6178312988281291,-1.0410575239945203,-0.4825546763792633,-0.1080851116657257,-0.2136994749307632,0.5027208924293518,0.7711369395256042
0.6277961425781271,-1.234942923346907,-0.5413324440404772,-0.3478349480271339,-0.1898199170827865,0.4249888658523559,0.690833568572998
0.6377612304687545,-1.3179415245510635,-0.579994475390017,-0.5192459921777248,-0.1675359159708023,0.3474155068397522,0.6022376418113708
0.6477260742187596,-1.3525576415106653,-0.6034136371612548,-0.6512117456465959,-0.1547751277685165,0.2700819969177246,0.5216219425201416
0.65769116210938,-1.3463457812584936,-0.6141317227914929,-0.7588245636254548,-0.1380605995655059,0.2096767127513885,0.4581886231899261
0.6676562500000003,-1.3731333965495227,-0.6111641051575541,-0.8145090414464473,-0.1359934955835342,0.173513263463974,0.4084003269672394
0.6776213378906277,-1.4057562938652932,-0.5544546682029963,-0.8245148871541023,-0.1334594935178756,0.1624765843153,0.3759158849716186
0.6875864257812552,-1.4275848254442214,-0.477657844248414,-0.796696905902028,-0.1283967047929763,0.1724099665880203,0.3578380644321441
0.6975512695312531,-1.46207585471943,-0.3994447237551212,-0.8486883744239807,-0.1224250867962837,0.1711918413639068,0.3401413559913635
0.7075161132812511,-1.4543619193412365,-0.3351549146741628,-0.8618640823394059,-0.0979222506284713,0.1746475845575332,0.3138602077960968
0.7174809570312561,-1.418768920173496,-0.3230456669464707,-0.8942302284151316,-0.0524836629629135,0.1671515852212906,0.2838466465473175
0.727446289062506,-1.2176854260105638,-0.430161641319096,-0.9892536139339208,9.7174197435e-06,0.1317098587751388,0.2587689459323883
0.737411132812511,-1.0411591577380894,-0.4787456394851207,-1.0098603486329316,0.0519131273031234,0.0893980860710144,0.2339799702167511
0.747377197265628,-0.9524572303257882,-0.4845493573278188,-0.9258107770711184,0.0906049609184265,0.0477445945143699,0.2286659330129623
0.7573422851562555,-0.9225633926477282,-0.477051695048809,-0.8174684757739304,0.110475867986679,0.0104118697345256,0.2259708046913147
0.7673073730468758,-0.8160828666344284,-0.564276097254455,-0.756302936193347,0.1222269907593727,-0.0244354866445064,0.231405034661293
0.7772722167968809,-0.6356763228625059,-0.7606257678285241,-0.6970417689293622,0.1370242983102798,-0.0400906130671501,0.2398957312107086
0.7872373046875012,-0.4964829562276601,-0.9385974856689572,-0.6343810223549604,0.1357816159725189,-0.0464851222932338,0.2468108385801315
0.7972021484375063,-0.2783355328054167,-1.2478726936772464,-0.561538488984108,0.1108429878950119,-0.0292368941009044,0.2533963322639465
0.8071672363281266,-0.0886223959026858,-1.5066966483429074,-0.5136836818754673,0.0560306422412395,-0.01355283241719,0.253353476524353
0.8171320800781245,-0.1387394579880405,-1.4804223894014954,-0.5352291587293148,-0.0365906357765197,-0.0542057193815708,0.2300473749637603
0.8270971679687591,-0.5055418399414048,-1.1562252143323422,-0.6541729335397481,-0.1720273345708847,-0.1725474894046783,0.1749076247215271
0.8370622558593794,-1.0336470285423098,-0.6996247711598873,-0.905859291410446,-0.3432480990886688,-0.3436217904090881,0.0660911351442337
0.8470273437499998,-1.6003000840611754,-0.2082216024145483,-1.2247060453623533,-0.5077347159385681,-0.5078732371330261,-0.1060809269547462
0.8569924316406272,-2.1163556096345184,0.1980532596215605,-1.5334838252425194,-0.6212593913078308,-0.5871925950050354,-0.2962250113487243
0.8669570312500028,-2.4157597042307257,0.4799459551855921,-1.6587012734949589,-0.6698151230812073,-0.551112174987793,-0.4502340257167816
0.8769221191406231,-2.448031157760322,0.7573407548084855,-1.725844718441367,-0.6525841951370239,-0.3976493775844574,-0.5403830409049988
0.8868872070312577,-2.400259352760017,0.9750886027202008,-1.8068121060788631,-0.5466989278793335,-0.191273957490921,-0.5562243461608887
0.896852294921878,-2.225715563541651,1.156590832774341,-1.8428040414363145,-0.3612193465232849,0.0330893732607364,-0.5233537554740906
0.906817138671876,-1.9472363296829165,1.272417352347076,-1.774127980095148,-0.1318247318267822,0.2037675827741623,-0.4535736441612243
0.9167822265624963,-1.6398882903449237,1.3201193069815635,-1.722674271711707,0.1171952113509178,0.2679971754550934,-0.3801028728485107
0.9267473144531309,-1.4099264191567895,1.3306105981186032,-1.4983558132380246,0.3718730211257934,0.2515646517276764,-0.3382249474525451
0.9367121582031288,-1.2203014537278565,1.290486677522957,-1.038853218883276,0.5986806154251099,0.1823166310787201,-0.3240651786327362
0.9466770019531268,-1.0233446110408753,1.2392527493700385,-0.690979107889533,0.7747323513031006,0.0212013684213161,-0.3407825827598572
0.9566420898437471,-0.8254572825707495,1.1785226785972711,-0.2923708349585533,0.8956742286682129,-0.1589332520961761,-0.3863127827644348
0.9666071777343817,-0.7082075983271002,1.061266710743308,0.2416542086780071,0.9477750658988952,-0.3285819292068481,-0.4270898699760437
0.976572265625002,-0.6539004002086818,0.9095762661069632,0.694293347004056,0.9258455634117126,-0.4531283676624298,-0.4693211913108825
0.9865373535156294,-0.6038944794807583,0.8362690378338098,1.1149690748363732,0.8423023819923401,-0.5456377267837524,-0.5004023313522339
0.9965021972656416,-0.5429140872087329,0.7505199688777328,1.338835697889328,0.7315399050712585,-0.6326272487640381,-0.5336676239967346
1.006467285156262,-0.5022775409158319,0.7231433016523718,1.4937527033567428,0.6023019552230835,-0.6871459484100342,-0.5660932064056396
1.01643212890626,-0.5223294912762939,0.7273200028151273,1.7074661811858414,0.4648468792438507,-0.6838457584381104,-0.6021236777305603
1.0263972167968802,-0.5480825028225779,0.7500280937075614,1.8491876049935816,0.3279501795768738,-0.6459798812866211,-0.6270114779472351
1.0363620605468782,-0.5709099823109806,0.8089411781862378,1.89577867577672,0.1880399584770202,-0.589795708656311,-0.6482965350151062
1.0463273925781351,-0.5629414145845919,0.8949971211344003,1.971456724834442,0.0610388778150081,-0.5041448473930359,-0.6606911420822144
1.056292236328133,-0.5568188400510699,0.9674038934364916,2.083349996611476,-0.0465440414845943,-0.3700837194919586,-0.6729267835617065
1.0662573242187534,-0.5288010984431952,1.008265188395977,2.08914260853827,-0.1281528770923614,-0.2545951902866363,-0.6782405972480774
1.076221923828129,-0.3994508612349629,1.028312827907503,2.0031424874305723,-0.1910239905118942,-0.1720872521400451,-0.6759377717971802
1.086187255859386,-0.1950424604330211,1.0542670611143112,1.9427970320612191,-0.2155892699956894,-0.1430083662271499,-0.6786472797393799
1.0961523437500063,0.025883706987556,1.0384475606918335,1.847206660309434,-0.2086759656667709,-0.1593639105558395,-0.6843421459197998
1.106118164062508,0.2011623680854216,1.003324809384346,1.712390778106451,-0.1798842698335647,-0.2103139013051986,-0.6881718039512634
1.116083007812506,0.3642294353259727,0.9320391500666736,1.7128525503993033,-0.1341708451509475,-0.262421578168869,-0.6792653799057007
1.1260483398437628,0.5429418519984931,0.8483829617366194,1.6818892568588255,-0.1016569882631301,-0.3414846062660217,-0.6705136895179749
1.1360131835937608,0.7145347555220126,0.7229334582939744,1.7089935368835925,-0.0730575695633888,-0.4023050665855407,-0.6608328223228455
1.1459782714843811,0.7998183989234268,0.5514072633311152,1.801485942620039,-0.0690096244215965,-0.4525406062602997,-0.6362984776496887
1.155943115234379,0.8631047300502658,0.3810498198866844,1.8111504275441168,-0.0920742005109787,-0.4859097301959991,-0.609979510307312
1.1659082031250136,0.8896711768712848,0.2356827330529689,1.9151380407631395,-0.1352304816246032,-0.4786268174648285,-0.5848779082298279
1.175873291015634,0.8693910437781364,0.0890723681598901,1.9820131901621816,-0.2124512195587158,-0.4620164036750793,-0.551844596862793
1.185838134765632,0.8312124850966036,-0.0549167083188891,1.8882506183594463,-0.2999390959739685,-0.4346151351928711,-0.5182110667228699
1.1958032226562665,0.8067790317162871,-0.1773971328228712,1.82746326444149,-0.3985327780246734,-0.4072287678718567,-0.4869329929351806
1.2057683105468868,0.7830305649254471,-0.2997632832974195,1.5526070433855057,-0.4703076481819153,-0.3922943770885467,-0.4582549929618835
1.2157333984375072,0.7894652010828256,-0.4444555396094918,1.2062684713959693,-0.4991762936115265,-0.3914973139762878,-0.4255529642105102
1.2256979980468827,0.7741214284133165,-0.555340803387761,0.8647568811714649,-0.4794313311576843,-0.3983044028282165,-0.382785826921463
1.235663085937503,0.7485365399755537,-0.6446656850039959,0.5237006334990263,-0.4278552234172821,-0.4070190787315368,-0.3332643508911133
1.2456281738281376,0.7346611593581736,-0.8009493026494979,0.2584334940433502,-0.3647226989269256,-0.4010474979877472,-0.2816954255104065
1.255593261718758,0.749367730102688,-0.9580416063293814,0.033387305817008,-0.2989040017127991,-0.4077043235301971,-0.2242284268140792
1.265558105468756,0.7702610266581177,-1.117936692470312,-0.2370031680017709,-0.2332444787025451,-0.4235965311527252,-0.1706045866012573
1.2755231933593905,0.7890118312921375,-1.2523144755169748,-0.4477531198501586,-0.1680700033903122,-0.4319511353969574,-0.123273029923439
1.2854882812500108,0.7317834119647741,-1.3791238691359755,-0.6584896276950836,-0.1031775698065757,-0.4257668256759643,-0.0909198746085167
1.2954533691406311,0.6963955799803138,-1.460355752928555,-0.901831351068616,-0.0466706231236457,-0.4185472726821899,-0.0713477656245231
1.305418212890629,0.6595937895447015,-1.491711845178902,-1.1574176389873028,-0.0009872815571725,-0.398907721042633,-0.0635574907064437
1.3153830566406413,0.6052191522132605,-1.451019477045536,-1.375854053685069,0.0291969869285821,-0.3694896399974823,-0.0614405460655689
1.3253481445312616,0.5206677686091512,-1.3788830461174248,-1.5869079569160938,0.0618507638573646,-0.3174503445625305,-0.0586538836359977
1.335313232421882,0.4758194498401135,-1.2469856817096472,-1.6920003165066242,0.0870860740542411,-0.251774400472641,-0.0580120608210563
1.3452749023437605,0.4760276126980781,-1.0601134490549564,-1.8380501249074932,0.10486900806427,-0.181260883808136,-0.0576823130249977
1.3552399902343808,0.6239929723966866,-0.9603238720476628,-1.882046503022313,0.1189435496926307,-0.0990994423627853,-0.0499953627586364
1.3652050781250153,0.8506168582685292,-0.9224784177780152,-1.9324848968833683,0.141398623585701,-0.0256225727498531,-0.0304240379482507
1.3751699218750133,1.038090344751999,-0.778048904055357,-2.0343997954815625,0.1663585752248764,0.0143213812261819,0.012762046419084
1.3851350097656336,1.1228775829385966,-0.6127668641790748,-2.079087078469992,0.2137181311845779,0.045737836509943,0.0589204542338848
1.3950996093750092,1.123156399879977,-0.4677998825788497,-2.0197686280608176,0.2772917747497558,0.0759258344769477,0.1066126152873039
1.4050649414062661,1.1153524481307715,-0.4077624702453613,-1.9416437703728675,0.3418526351451874,0.1119672432541847,0.1530054360628128
1.4150300292968865,1.1589806505203246,-0.3841331728547811,-1.8292600847303864,0.3937344551086426,0.1153190955519676,0.1774431318044662
1.4249948730468844,1.2434997392900289,-0.3897691329151391,-1.7786586092621086,0.4346640706062317,0.1090732291340828,0.1868869662284851
1.4349599609375048,1.336552555388212,-0.4450578894168138,-1.5942302626281977,0.4652885496616363,0.1002224758267402,0.2089659124612808
1.4449250488281393,1.3958309660479429,-0.4924658295407891,-1.45425714379251,0.4488362669944763,0.0963504388928413,0.2336776852607727
1.4548901367187597,1.5052712917149067,-0.5332268789961934,-1.349467566540837,0.3907585740089416,0.1006892621517181,0.2430139333009719
1.4648547363281352,1.573184844250977,-0.5182753935799003,-1.2748574389755725,0.3062257468700409,0.1157927364110946,0.2483996450901031
1.4748198242187556,1.5212093039505183,-0.3919301103413105,-1.2926163830280304,0.1960736662149429,0.1223249360918998,0.2553768455982208
1.4847849121093901,1.3592919182017444,-0.1135568210750818,-1.3838929832339286,0.0839869305491447,0.1381734907627105,0.2582136690616607
1.4947500000000105,1.1527915866218506,0.2859077764242887,-1.4669120427042246,-0.0063083413988351,0.1696278154850006,0.2638068199157715
1.5047148437500084,0.9685465606655924,0.7061833990231156,-1.5614508595764636,-0.0515324771404266,0.2155855149030685,0.2782531082630157
1.5146799316406288,0.8984896394252777,1.0587810314074158,-1.5844488733261823,-0.0397682338953018,0.2888083457946777,0.3064424097537994
1.5246450195312633,0.9074079821571708,1.3422674259036778,-1.45181384229362,0.0398121029138565,0.3932544291019439,0.3457266688346863
1.5346098632812613,0.951858972171694,1.5334928853318095,-1.3013164068341254,0.1488176882266998,0.4799118340015411,0.4039532244205475
1.5445749511718816,1.1014505448326468,1.6615499409243464,-1.1642483617901802,0.2466877400875091,0.5163302421569824,0.4700531959533691
1.5545397949218795,1.2183997848249972,1.749703732934594,-0.9119809891611336,0.3095591068267822,0.5360373258590698,0.5353478193283081
1.5645058593750036,1.244754123265296,1.7599112386941909,-0.6333055020779371,0.3489064276218414,0.5503466725349426,0.5954805612564087
1.5744709472656382,1.1568575208865106,1.7022405554920437,-0.5327233133882284,0.355139821767807,0.5570778250694275,0.6444872617721558
1.5844357910156361,1.1082887202896177,1.6444965147927402,-0.3661450962215661,0.3495684266090393,0.5841429829597473,0.6748705506324768
1.5944008789062565,1.063088957734406,1.548900297822058,-0.2849731259226798,0.3238396644592285,0.6136268377304077,0.6836611032485962
1.6043662109375134,1.104999469485879,1.434132055130601,-0.2832131305128336,0.3030201196670532,0.6431412100791931,0.6936092972755432
1.6143310546875114,1.1832821480840443,1.325887076728046,-0.2446089668303728,0.280698299407959,0.6615825295448303,0.7164523005485535
1.6242958984375093,1.2447639140069484,1.2439841618061065,-0.2536754858613014,0.2406775206327438,0.66561359167099,0.7402530312538147
1.6342607421875073,1.294036186698079,1.1949439443051817,-0.2035994955718517,0.1847226470708847,0.6579455733299255,0.7691786885261536
1.6442260742187642,1.2719888978019356,1.193887128728628,-0.248646259522438,0.1234583556652069,0.6250665783882141,0.795548677444458
1.6541909179687622,1.1802733216568826,1.201289513939619,-0.2637421218454838,0.0694318711757659,0.5964069962501526,0.818488597869873
1.6641560058593825,1.0073505577690898,1.2169634684115649,-0.280741187441349,0.0184953548014163,0.5682976245880127,0.8295934796333313
1.6741208496093805,0.7852578855860978,1.2775883252441882,-0.303102656853199,-0.023538913577795,0.5410457253456116,0.8312134742736816
1.6840861816406374,0.5842881905285641,1.2988818731635807,-0.2056733792364597,-0.0612666718661785,0.5340787172317505,0.828794002532959
1.694050781250013,0.4128715568874031,1.320974462506175,-0.1103723458200693,-0.1039371713995933,0.5530279278755188,0.8278946280479431
1.7040158691406333,0.2426084041303023,1.3005576974213122,0.0088619363695383,-0.1370668560266494,0.6063453555107117,0.8216503858566284
1.7139809570312536,0.0933406200636178,1.2966945922523736,0.1696481261312961,-0.1555151045322418,0.673942506313324,0.8053627610206604
1.7239460449218882,-0.0016241306031122,1.3179115678042173,0.2828922279953956,-0.1643930971622467,0.736052393913269,0.7898714542388916
1.7339111328125085,-0.0761906382223591,1.3098980649575591,0.3643851008117199,-0.1589240133762359,0.7822065353393555,0.7749071717262268
1.7438759765625065,-0.0944287440938875,1.2934256535843014,0.504118565672636,-0.1499444246292114,0.8028647899627686,0.758610188961029
1.753841064453141,-0.0137739660695195,1.2351277783945205,0.6231997031271457,-0.1332599818706512,0.8102558255195618,0.7516803741455078
1.763805908203139,0.0796444502043537,1.1614873726442456,0.8118430371075868,-0.1015035882592201,0.8049484491348267,0.7435252070426941
1.7737709960937593,0.1758653201457113,1.0762079670265317,0.9636065469801426,-0.07621980458498,0.766810417175293,0.74091637134552
1.7837358398437573,0.2269674203461967,0.975099708636105,1.0838877078741789,-0.0522636324167251,0.7153961062431335,0.7359552383422852
1.7937019042968814,0.2545079728963785,0.8831360029488802,1.2354501422166824,-0.0330955311655998,0.6476303339004517,0.7243361473083496
1.803666992187516,0.2614088200597092,0.7828583501636982,1.3710744181931018,-0.0255834460258483,0.5920432209968567,0.7068301439285278
1.8136320800781363,0.2265819098936393,0.6531652178019285,1.4997627574265002,-0.0324828960001468,0.5212215185165405,0.6918115019798279
1.8235969238281342,0.1650285583055578,0.5285281997859478,1.5802870774716138,-0.0452547706663608,0.4582575261592865,0.6700946688652039
1.8335620117187545,0.0557348974005552,0.4157987694457173,1.5725065065979955,-0.060992456972599,0.4265981316566467,0.6386597752571106
1.8435268554687667,-0.0546676974273053,0.3170686383634805,1.6733166588246822,-0.0790642276406288,0.4124454259872436,0.6025342345237732
1.853491943359387,-0.17698604953764,0.2126008404120802,1.6505331646084784,-0.1191605105996131,0.3893150687217712,0.5691176652908325
1.863456787109385,-0.263925223327428,0.1331368430748581,1.5653800157189368,-0.1609283089637756,0.3727903366088867,0.5367432832717896
1.8734218750000053,-0.3456793774284422,0.0467737338736653,1.4919769258558748,-0.1958072036504745,0.3601512610912323,0.4999930262565613
1.88338696289064,-0.4010463502654806,-0.0813283299043774,1.2977397173911331,-0.2174606323242187,0.3202514052391052,0.4709083437919616
1.8933520507812602,-0.4263454805644229,-0.2075374195426702,1.071127595022321,-0.2226676493883133,0.2729211747646332,0.4380747675895691
1.9033171386718806,-0.4416637899991125,-0.3439540149405598,0.8042682179391384,-0.2054984122514724,0.1992029696702957,0.4010967910289764
1.9132817382812561,-0.4452509277708828,-0.4432257055535912,0.5719499928832054,-0.1739554107189178,0.1174441874027252,0.348602682352066
1.923247070312513,-0.4580494729369878,-0.5316743888571858,0.3373527169793844,-0.1479328572750091,0.0275384932756423,0.2956342995166778
1.933211914062511,-0.4914428066359833,-0.6107216220870614,0.100602062433958,-0.1277522295713424,-0.0703459903597831,0.2485759556293487
1.9431770019531314,-0.5328387564614415,-0.6222375800967216,-0.1404167709499597,-0.1227258667349815,-0.1579894572496414,0.1915006637573242
1.9531418457031293,-0.6155473617430776,-0.6391273400992155,-0.4212216712772846,-0.1218994930386543,-0.2301430106163025,0.144425019621849
1.9631071777343863,-0.7188386632610112,-0.6259934254989028,-0.6019377193897962,-0.1254839152097702,-0.2699837386608124,0.1075087860226631
1.9730720214843842,-0.8138628524973988,-0.5751517115339636,-0.7763046907365322,-0.1406849771738052,-0.266862004995346,0.0682849511504173
1.9830371093750045,-0.9394207116853444,-0.5001382638648152,-0.8870213199496269,-0.1602044999599456,-0.2296184599399566,0.0254892949014902
1.9930017089843801,-1.0284092009540646,-0.391888024765253,-0.997787633523345,-0.1811281591653823,-0.1530946642160415,-0.006338142324239
2.0029667968750147,-1.0745827039122582,-0.3015513357579708,-1.0372352622926235,-0.1824357360601425,-0.0434401184320449,-0.0293611101806163
2.012931884765635,-1.0057904688455164,-0.245863643066585,-1.0603758993834256,-0.1493059992790222,0.0770407542586326,-0.0403575673699379
2.0228969726562553,-0.7771854921590536,-0.3099330873951316,-1.0697913779824972,-0.0888627991080284,0.1650984138250351,-0.0351985618472099
2.03286206054689,-0.5410999139262364,-0.2807376803100109,-1.1512106010407208,-0.0146029498428106,0.1800888180732727,-0.0296735651791095
2.042826904296888,-0.3744170308087021,-0.2063718828946351,-1.1214975998222827,0.0764664784073829,0.1486753672361374,-0.0301329437643289
2.052792968750012,-0.2420425138758495,-0.2167477309584617,-1.0255839874655008,0.1487723737955093,0.086721196770668,-0.0299965906888246
2.0627580566406323,-0.0690261899530887,-0.2552700615763664,-0.9221516700416804,0.2074165791273117,0.0048764781095087,-0.0375556647777557
2.072722656250008,0.1345810596669558,-0.4010790469586849,-0.8277402789413929,0.2504822909832001,-0.0688981413841247,-0.0412502661347389
2.082687988281265,0.3940627749884501,-0.648928895406425,-0.7724778259247541,0.2734672129154205,-0.1260280460119247,-0.0440300703048706
2.092653076171885,0.7627545965507626,-1.0741025191798803,-0.8304518759876489,0.2717446982860565,-0.160990834236145,-0.0292322188615798
2.102617919921883,1.0734453704454003,-1.4671233473673462,-0.7918009505540132,0.2604322135448456,-0.1613173484802246,0.000561031512916
2.1125830078125034,1.1384048954814672,-1.5533230827003717,-0.7206418402254581,0.1982801556587219,-0.1772643625736236,0.0269055534154176
2.122548095703138,0.97367077181153,-1.410017312310636,-0.7214262686014175,0.0792684182524681,-0.2439876645803451,0.0404427610337734
2.1325131835937583,0.6187849554248154,-1.1561547794446347,-0.7772744125515222,-0.1038886234164238,-0.3854899406433105,0.0265359990298748
2.142477783203134,0.0145316160364076,-0.7473954071164131,-1.0069996985048055,-0.3670471012592315,-0.5842090249061584,-0.0260215178132057
2.152442871093754,-0.7266336279861628,-0.1767415915235877,-1.2801520382523537,-0.6646412014961243,-0.7483817338943481,-0.1387619078159332
2.1624079589843888,-1.577559259942919,0.3464671668052673,-1.5902636970847843,-0.9060827493667604,-0.7936556339263916,-0.2766239047050476
2.172373046875009,-2.1145624426074323,0.7867176559403538,-1.8165110777944324,-1.037438988685608,-0.6937114596366882,-0.4031738340854645
2.182337890625007,-2.276031646197289,1.1127020066872235,-2.042524065226316,-1.0050231218338013,-0.4209029376506805,-0.4679749310016632
2.1923029785156416,-2.241219714404642,1.2826318723693488,-2.143281610482931,-0.8129803538322449,-0.0165677145123481,-0.4302893579006195
2.202268066406262,-1.973108145303279,1.40531921762228,-2.082756122371554,-0.5201247930526733,0.3963295817375183,-0.30211141705513
2.21223291015626,-1.5263792539343235,1.5185291249558328,-2.0023165580004454,-0.193218320608139,0.6511282920837402,-0.1504433304071426
2.2221979980468802,-1.0672808564662932,1.573501655115187,-1.8516180470108985,0.1383583396673202,0.7245054244995117,-0.026619704440236
2.232162841796878,-0.8230407229483128,1.5124337306901812,-1.3151286590874194,0.4484035670757293,0.6887444853782654,0.0665475279092788
2.2421279296875127,-0.6684243809279053,1.429659293630719,-0.8266419623106718,0.7075966000556946,0.5189419388771057,0.1079985946416854
2.252093017578133,-0.569140196159482,1.337713123600185,-0.42432606703341,0.9110141396522522,0.2569745481014251,0.088044598698616
2.2620581054687534,-0.482920879343152,1.2096864631459117,0.0125087684392929,1.0619405508041382,-0.0552804619073867,0.0169731043279171
2.2720229492187656,-0.4195627250891178,1.0290452338352798,0.5019073193639516,1.137695550918579,-0.3531273305416107,-0.0780045390129089
2.2819877929687635,-0.4580156437326222,0.8447057345286011,0.960332639876008,1.1144250631332395,-0.6221252083778381,-0.1581934243440628
2.291952880859384,-0.5364462794341147,0.7425576116964221,1.2732032420277597,1.00785231590271,-0.862427294254303,-0.2406472861766815
2.301917968750004,-0.6350436509821563,0.6860179783508181,1.4782716411083936,0.856769859790802,-1.0397893190383911,-0.3362321555614471
2.3118828125000164,-0.7756133474715053,0.6455410065338015,1.6069330923348664,0.6729052662849426,-1.1587287187576294,-0.4411529898643493
2.321849121093763,-0.9150698950871824,0.6501753883361816,1.66515205706954,0.4623295962810516,-1.1894478797912598,-0.5320641994476318
2.331813964843761,-1.0624861695356669,0.7301075877070426,1.717681285730004,0.2551977038383484,-1.1424639225006104,-0.5999891757965088
2.341780029296885,-1.242256022839248,0.8502794430077075,1.765748858806491,0.0539698712527751,-0.9941985607147216,-0.655947208404541
2.3517451171875052,-1.3060381746590135,0.9549275659620762,1.8451631717830896,-0.132125973701477,-0.7801637649536133,-0.6969619989395142
2.36171020507814,-1.2910678384117782,1.0115794275105,1.879342504760623,-0.2927144467830658,-0.4977939426898956,-0.709868311882019
2.3716750488281377,-1.2648407796129584,1.0532020622313023,2.0125322470664977,-0.4465580582618713,-0.1851942539215088,-0.6944552659988403
2.381640136718758,-1.0747274461451917,1.0266361268669366,2.0988246291190387,-0.5916088223457336,0.0970993712544441,-0.6529977917671204
2.391604980468756,-0.8660869607314466,0.9978460857123136,2.001136408305168,-0.707463264465332,0.2785386741161346,-0.6091552376747131
2.4015700683593906,-0.6814136994257569,0.986250632725656,1.8484142825335264,-0.7689242959022522,0.366613358259201,-0.5883386135101318
2.4115349121093885,-0.4825252310890704,0.8844748503372073,1.7992957390993831,-0.7824720144271851,0.3989720940589905,-0.5722472667694092
2.4215002441406313,-0.3158915208755061,0.743014707814157,1.7583599175989626,-0.7694843411445618,0.359601080417633,-0.5482516288757324
2.431465087890629,-0.1953954751217737,0.6235723358318209,1.6654244442701338,-0.735541045665741,0.2485081255435943,-0.5268294215202332
2.4414301757812638,-0.0926521994080394,0.5028396317780017,1.556804495075345,-0.667606770992279,0.0959289222955703,-0.5304545164108276
2.4513947753906393,-0.0241953520418144,0.3644903147518634,1.446653683051467,-0.5801823735237122,-0.0947614014148712,-0.5430606007575989
2.461360107421882,0.0305067088793963,0.216398479129374,1.3966454973012208,-0.4947633147239685,-0.2854586839675903,-0.5546299815177917
2.47132495117188,0.1153319957877509,0.0244826993495225,1.3658172283172607,-0.4338927865028381,-0.468504399061203,-0.5546531677246094
2.4812900390625146,0.1260107175219804,-0.1667944902658462,1.3517127151191233,-0.4041100740432739,-0.6152719855308533,-0.5411469340324402
2.491255126953135,0.1242768429340794,-0.337929640084505,1.39509885238111,-0.3984473943710327,-0.699127733707428,-0.5157859325408936
2.5012202148437552,0.1067866693530231,-0.4914759417206049,1.432787070262432,-0.418882668018341,-0.7257387638092041,-0.4774776101112366
2.51118530273439,0.037417584246397,-0.6283282981872558,1.3686398845225571,-0.4564920961856842,-0.728584885597229,-0.4270594418048858
2.5211499023437653,-0.0616489757159724,-0.7102791439041495,1.295914255529642,-0.5042301416397095,-0.6814238429069519,-0.3816528618335724
2.5311149902343857,-0.1499799143914133,-0.7235550973236561,1.1594301478534936,-0.5437815189361572,-0.6269797682762146,-0.3452852666378021
2.541080078125006,-0.241698193950206,-0.7469032396852969,0.857932588109374,-0.5635278224945068,-0.5769410729408264,-0.320492535829544
2.5510451660156406,-0.2693776800470426,-0.7488993819385766,0.5874924299299716,-0.5547857284545898,-0.5411497950553894,-0.307640939950943
2.5610100097656385,-0.2397743132155388,-0.7361670338764786,0.3015624416738748,-0.5080977082252502,-0.5234972238540649,-0.3022405207157135
2.570975097656259,-0.1502403919585049,-0.6960477894559502,-0.0120943424195051,-0.4237013161182403,-0.5352886319160461,-0.2982747852802276
2.580939941406257,-0.0464678827948868,-0.7238388827010989,-0.3080179014235735,-0.318576842546463,-0.5673491358757019,-0.2839819192886352
2.5909052734375138,0.1044468282286077,-0.7745996403843164,-0.5338754060328006,-0.2058481574058532,-0.6107951402664185,-0.2542051076889038
2.6008701171875117,0.2438971652992069,-0.8089414704471826,-0.7537099970906972,-0.0934905931353569,-0.6476380228996277,-0.2149959206581115
2.6108349609375097,0.2856006101712584,-0.8932777499958873,-0.8296914130091667,0.0114970775321125,-0.6524332761764526,-0.1688252240419387
2.62080004882813,0.2887237106278538,-0.9213739636674524,-0.799384537550807,0.080278530716896,-0.6278513073921204,-0.131726861000061
2.6307651367187646,0.1956377229124307,-0.9239119577124716,-0.7767021656215191,0.1115720048546791,-0.5836960673332214,-0.1144831553101539
2.640730224609385,0.0993638258758932,-0.8805182216659188,-0.7608668831080198,0.1195680201053619,-0.5131468772888184,-0.1161074265837669
2.650695068359383,0.0472485848437994,-0.8656216813072561,-0.7006359940290451,0.1031048968434333,-0.425968587398529,-0.1140051260590553
2.660659912109381,0.0406501364268362,-0.8456441844224929,-0.6867863323748111,0.0712409615516662,-0.3189907670021057,-0.1134711652994155
2.6706262207031415,0.0996782255873084,-0.834901548872888,-0.6433902582406997,0.04084337875247,-0.2178478986024856,-0.1176696345210075
2.6805910644531394,0.2729361397136002,-0.9449003852054476,-0.6932312707304954,0.0288828462362289,-0.1265987306833267,-0.1119025573134422
2.6905559082031374,0.4285402506623417,-1.0614277465239166,-0.7445663211703301,0.0279155857861042,-0.0569184496998786,-0.1111198514699935
2.70052124023438,0.5288262328844517,-1.0747940085753798,-0.8964701162964105,0.0467098541557788,-0.0394909121096134,-0.1134809702634811
2.710486083984378,0.5202901674684137,-1.073993798108399,-0.9937930109292268,0.0774821490049362,-0.0485184974968433,-0.1182845160365104
2.7204511718750126,0.5170105612758547,-1.059202179428935,-1.1077923150748017,0.1244836375117302,-0.0706357657909393,-0.1328349858522415
2.7304160156250106,0.5090618672937155,-0.9903548531740904,-1.265385261753201,0.1906727701425552,-0.1046901419758796,-0.1682955026626587
2.7403813476562533,0.5332224220167845,-0.916499343368411,-1.3908148914515972,0.2460986375808715,-0.1482890844345092,-0.221108928322792
2.750345947265629,0.5249396737746894,-0.8785168187156319,-1.4610820213764906,0.2970406413078308,-0.1622999757528305,-0.2627493143081665
2.7603110351562634,0.5979300911836326,-0.8963903290584683,-1.4322586624741551,0.3292157351970672,-0.1304330080747604,-0.293336808681488
2.7702758789062614,0.7123070695351809,-0.951710649742186,-1.393400231769681,0.3449164032936096,-0.0651509463787078,-0.3194815814495086
2.7802409667968817,0.8559117498062551,-0.9947463661313056,-1.412967686548829,0.3342448472976684,0.0067501449957489,-0.3439629673957824
2.7902062988281386,1.0052315197885036,-1.0585051370754837,-1.4656284326344728,0.2944591045379638,0.0561027824878692,-0.369819313287735
2.8001711425781366,1.119482095281407,-1.0168249269485472,-1.5909867506623268,0.2435068786144256,0.0606827214360237,-0.4086551368236542
2.810136230468757,1.2183530961390583,-0.9675070615500212,-1.7548609695672988,0.1567429602146148,0.035821046680212,-0.4450341761112213
2.8201008300781325,1.225954291857779,-0.8370148877650498,-1.8830284997969864,0.0354926921427249,-0.0039317347109317,-0.4837371110916137
2.8300661621093894,1.1245911819234489,-0.5807847489848733,-1.9780261663526293,-0.0905347540974617,-0.0102319745346903,-0.5191587209701538
2.8400310058593874,0.9363886505130676,-0.2392678980633616,-2.143607189175486,-0.1970055103302002,0.0327862352132797,-0.5567380785942078
2.8499960937500077,0.730867393098399,0.1116881045937538,-2.250487016704678,-0.2565442025661468,0.1455119848251342,-0.5868754386901855
2.8599609375000057,0.6904473391003906,0.4886111999392509,-2.3042665376871825,-0.2696065306663513,0.2980454862117767,-0.5928246974945068
2.8699262695312626,0.764617906204611,0.7985366885498165,-2.259880283471942,-0.2088310718536377,0.4912892580032348,-0.5613269805908203
2.8798911132812606,0.9565274754393844,1.0629390278697013,-2.1664830378502606,-0.0994098037481308,0.6913033723831177,-0.4986781775951385
2.8898559570312585,1.2233084535241123,1.3025544241964817,-2.039354787540436,0.0425055213272571,0.8487755656242371,-0.3909264504909515
2.899821044921879,1.5140151546627283,1.403146549758315,-1.9745073445767165,0.1810802221298217,0.9280372858047484,-0.2632755637168884
2.9097861328125134,1.7536306971199809,1.4842159364655614,-1.7629840702682733,0.3117990791797638,0.9580769538879396,-0.1226715594530105
2.9197512207031338,1.9427233823031187,1.501298880952597,-1.507402458524704,0.4232672750949859,0.9306567311286926,0.0017633116804063
2.9297160644531317,2.0583049872040746,1.4621519886955618,-1.350495740544796,0.5039299130439758,0.8662705421447754,0.1173913776874542
2.9396811523437663,2.065438930737227,1.418838332147896,-1.1691209362626076,0.5415528416633606,0.7929008603096008,0.2161464691162109
2.9496462402343866,2.0501818865031,1.3676736698389051,-1.0034563268095251,0.5437086820602417,0.728266179561615,0.3106042444705963
2.9596110839843845,1.9947931767582887,1.3398542272821068,-0.8964970043033361,0.510616660118103,0.6911412477493286,0.4084522426128387
2.9695759277343825,1.8621771426871416,1.3431255040377377,-0.7892448363304138,0.4562223851680755,0.6788627505302429,0.5045455098152161
2.979541015625003,1.6869471247702836,1.371853878132999,-0.7422656430125236,0.3806619644165039,0.6927030086517334,0.6018038988113403
2.989505859375015,1.515505685481429,1.4342051203668116,-0.7481020940810441,0.3050966262817383,0.7186762690544128,0.6875816583633423
2.9994711914062577,1.377245215782523,1.4933853313490748,-0.7221054830372333,0.2342288941144943,0.7620878219604492,0.7684293985366821
3.0094360351562557,1.2067596889790146,1.5834899651661514,-0.6832236714571714,0.1749277561903,0.7919541001319885,0.8411305546760559
3.0194011230468902,1.0409745949514209,1.6835484222427008,-0.6890776581823825,0.1521728634834289,0.8109866976737976,0.8978001475334167
3.029365966796888,0.8665867269471287,1.764090862466395,-0.6475123066067695,0.1743055880069732,0.8277374505996704,0.9433189034461976
3.0393310546875085,0.6870628112286329,1.8357772115394475,-0.4869429744660854,0.2311646491289138,0.851844072341919,0.9729776978492736
3.049296142578129,0.5275708990611135,1.891276688182354,-0.3806009070754051,0.2992065548896789,0.8443341851234436,0.9930574297904968
3.059260986328141,0.370001698584482,1.9017194640025492,-0.1941647277504205,0.3640966415405273,0.8421996235847473,1.006127953529358
3.0692260742187614,0.2822821150067262,1.9104554359048604,0.1368973646521568,0.4121448695659637,0.8431658148765564,1.016592025756836
3.0791911621093817,0.2370412532561458,1.8584622138172384,0.4221417087316513,0.4264438152313232,0.8318683505058289,1.0310306549072266
3.0891562500000163,0.2197676085026003,1.8115154614642264,0.7436193957090378,0.4085106253623962,0.8246352076530457,1.041928768157959
3.099120849609392,0.2057615689765662,1.7536542241260409,1.0244482614338395,0.3733521997928619,0.8273820281028748,1.0456793308258057
3.109085937500012,0.1670190562693402,1.7166653866857289,1.3375906662642956,0.3213563561439514,0.8410810828208923,1.0467323064804075
3.1190510253906325,0.1601079799729399,1.6686398991852998,1.5680594640612602,0.2647079229354858,0.866752564907074,1.042513132095337
3.129016113281253,0.1934709733325988,1.5941688878297804,1.7104747153520583,0.2030869275331497,0.8822771906852722,1.0481624603271484
3.1389812011718874,0.2306137592256069,1.544469329637289,1.7960165712982414,0.1471541225910186,0.8754056692123413,1.0539170503616333
3.1489460449218853,0.2402808379655703,1.4700404038578272,1.8184978676974768,0.0997754260897636,0.8369544148445129,1.0585222244262695
3.158911376953128,0.2353107579354196,1.3830255527496338,1.8305904565513131,0.0540027059614658,0.779153048992157,1.0600838661193848
3.1688759765625036,0.1470442627983167,1.3150316284537316,1.7887503796875477,0.0215121433138847,0.7123292684555054,1.0466889142990112
3.178841064453138,0.0327512729357928,1.2509136688083409,1.7767992451310155,-0.0048826597630977,0.6524752974510193,1.012308120727539
3.188805908203136,-0.0897781052764505,1.1782874085366726,1.7567039670854805,-0.0411719568073749,0.5866467356681824,0.975708544254303
3.198771240234379,-0.2316943575365468,1.059924063962698,1.6818290511041878,-0.0839104577898979,0.5321848392486572,0.9300066232681274
3.208736083984391,-0.3861366216316819,0.97681557264328,1.7004069103240966,-0.1342415362596511,0.5039441585540771,0.8770256638526917
3.2187011718750114,-0.5264189890796318,0.8557166656255721,1.6830734982073303,-0.1990550905466079,0.4934723079204559,0.8236708641052246
3.2286660156250093,-0.6312518574837594,0.6943079600512981,1.5358739352494477,-0.2678946256637573,0.4784922897815704,0.7778916358947754
3.2386308593750073,-0.7293965168282389,0.5334294158309698,1.390201727989316,-0.3337975442409515,0.4706683754920959,0.7295129299163818
3.248595947265642,-0.807124191892147,0.3595990355789661,1.2501847700119018,-0.3853984177112579,0.4632208347320556,0.6813461780548096
3.258561035156262,-0.8412251258712261,0.1748869035676121,1.015415060150623,-0.4343553781509399,0.4468922317028045,0.6387304663658142
3.2685261230468825,-0.9112501906685532,-0.0182666013136506,0.8112842341810464,-0.4847607612609863,0.4295995235443115,0.5931518077850342
3.2784909667968805,-0.9892556597605348,-0.1491927826017141,0.5860241109430789,-0.5296109914779663,0.3909261226654053,0.5393552184104919
3.2884562988281374,-1.0741732463285327,-0.3099965080201625,0.3088894235610961,-0.5705751776695251,0.3415625691413879,0.481598436832428
3.2984211425781353,-1.164008415554464,-0.4326540426567196,0.0836813227713108,-0.599321722984314,0.2853626012802124,0.4102709889411926
3.3083862304687557,-1.2538430002585053,-0.5000245743572712,-0.1980593971014022,-0.6217040419578552,0.2061748504638672,0.341011494398117
3.3183508300781313,-1.373310214421153,-0.5264671756029129,-0.4842769701272248,-0.6187635064125061,0.1269141733646392,0.2575812935829162
3.328316162109388,-1.472216871114075,-0.5471814623296261,-0.728633423501253,-0.5973684787750244,0.0629272013902664,0.1846996545791626
3.338283935546883,-1.5536086216434837,-0.5592661601379514,-0.9405179323375225,-0.5535951256752014,0.0063559305854141,0.1248829141259193
3.3482485351562588,-1.6446438143089412,-0.5755617536395787,-1.0756056172192097,-0.4945914447307586,-0.0189683344215154,0.0730580687522888
3.358213623046879,-1.7030793444037435,-0.6534115937784314,-1.1847072124511002,-0.4136199355125427,-0.0234349407255649,0.0231496468186378
3.3681784667968913,-1.683543307676166,-0.7656976642653346,-1.2452841384887694,-0.3143298327922821,-0.0062160068191587,-0.0199837088584899
3.3781435546875116,-1.5924758201763034,-0.8778779362902045,-1.2287158655256032,-0.2163025140762329,-0.0060380846261978,-0.0576298795640468
3.388108642578132,-1.52636756349653,-0.9221566384777428,-1.1672089651614428,-0.1345631778240203,-0.0349656082689762,-0.0810806080698967
3.3980737304687665,-1.4087025764502583,-1.023125488397479,-1.0439823984652756,-0.0701989755034446,-0.0902985706925392,-0.0881265327334404
3.4080385742187644,-1.2604841918386518,-1.156277236780524,-0.8596154266297816,-0.0330753065645694,-0.1357518136501312,-0.0877459645271301
3.4180034179687624,-1.1626657687738535,-1.30282768817991,-0.7053273667156696,-0.0106712393462657,-0.1781033724546432,-0.0890999585390091
3.4279685058593827,-1.0729248537026346,-1.4119897814273834,-0.6007096388995647,-0.004316936712712,-0.2155468761920929,-0.1021755412220954
3.437933593750003,-0.9348656056642533,-1.5213307383731007,-0.5256172807753086,-0.0047722607851028,-0.2609571814537048,-0.1227409839630127
3.4478986816406376,-0.7413195943340659,-1.647130078166723,-0.5492249508559703,-0.0184806156903505,-0.3432126343250274,-0.1548046469688415
3.4578635253906356,-0.5774077468324452,-1.5980276090845464,-0.5849731405854225,-0.0435280725359916,-0.4508711993694305,-0.1968498229980468
3.4678288574218783,-0.5771436160035431,-1.4159174762651323,-0.6302735870361328,-0.0962938070297241,-0.5803250670433044,-0.2429328858852386
3.4777937011718905,-0.6840721049800514,-1.1379460457980632,-0.67115972417593,-0.1919605284929275,-0.7125417590141296,-0.2895808219909668
3.4877585449218884,-0.8593288647733628,-0.8164113679364323,-0.744974901971221,-0.3521336913108825,-0.8292361497879028,-0.3359110355377197
3.4977233886718864,-1.180196457028389,-0.3629942309752106,-1.0115116229712962,-0.5600607991218567,-0.9147388339042664,-0.3898269832134247
3.507688720703129,-1.6329308724224567,0.1444584475561976,-1.2683558019965886,-0.756545901298523,-0.9065541625022888,-0.4516120553016662
3.5176535644531413,-2.076415813434124,0.6596981267020106,-1.4501082074195146,-0.9099706411361694,-0.7777723073959351,-0.5220257639884949
3.5276186523437616,-2.3460218588769437,1.1597171481013298,-1.7815666056632995,-0.9904601573944092,-0.556987464427948,-0.576852560043335
3.5375834960937595,-2.4491972789302467,1.4731509370937943,-1.965910781145096,-0.978156805038452,-0.2300644367933273,-0.5946115851402283
3.5475488281250165,-2.352326219718158,1.629910647818446,-1.9276093998014925,-0.8724024295806885,0.1736031323671341,-0.5572642087936401
3.5575136718750144,-2.1112346133589743,1.7180273226886986,-1.89917357891202,-0.6979503631591797,0.5233846306800842,-0.4669196605682373
3.5674785156250124,-1.778473023562133,1.6496119581103323,-1.890204090514779,-0.4696711599826813,0.7514052987098694,-0.3635801970958709
3.5774436035156327,-1.537812794357538,1.619293099953234,-1.6675959430903196,-0.208811730146408,0.8469247221946716,-0.2712303102016449
3.587408691406253,-1.4483913204990326,1.49392572183609,-1.3615566482633352,0.056578129529953,0.7821771502494812,-0.2096092849969864
3.5973737792968876,-1.3834030077598989,1.379119777482748,-1.2212345698595046,0.302447110414505,0.5511345863342285,-0.2258961051702499
3.6073386230468856,-1.405304020053148,1.2901257352560758,-1.002232922494411,0.5394658446311951,0.2208341211080551,-0.3083882927894592
3.617303710937506,-1.499843421447277,1.176982463417947,-0.7871990097165107,0.7526593804359436,-0.1665402799844741,-0.4407996237277984
3.6272683105468815,-1.65602270193547,1.062978483097255,-0.5154004226654768,0.9234923720359802,-0.534149706363678,-0.5982323884963989
3.6372336425781384,-1.730942772232741,0.8763105408430099,-0.1248059448421001,0.9976745843887328,-0.8306727409362793,-0.7692975997924805
3.6471984863281364,-1.8156012694731356,0.7912357178866862,0.2188385657578706,0.978456974029541,-1.0737221240997314,-0.941313862800598
3.6571635742187567,-1.9311901808977123,0.7979112501278519,0.3814063782393932,0.9014165997505188,-1.2642111778259275,-1.1061162948608398
3.6671286621093913,-1.9954535403631624,0.8055623494029045,0.615948124563694,0.7847579121589661,-1.354582905769348,-1.2483850717544556
3.6770937500000116,-2.047976193152368,0.8502969786643981,0.8054185570180415,0.6377771496772766,-1.3345941305160522,-1.3575024604797363
3.687058837890632,-2.0307665535457438,0.9215542886704206,0.951104792803526,0.4703146815299988,-1.2206214666366575,-1.4320305585861206
3.6970234375000075,-2.0129969419687983,0.9627619128495454,1.0283166272997857,0.2986607253551483,-1.0358810424804688,-1.4722421169281006
3.706988525390628,-1.934716601458192,1.0442042245224117,1.1755272961735723,0.1431520879268646,-0.8047730326652527,-1.478254795074463
3.7169536132812624,-1.863067223394662,1.1160805432096124,1.2768302003532648,-0.0068341884762048,-0.5607844591140747,-1.4604756832122805
3.7269187011718827,-1.7273790884017943,1.1546651254087683,1.3591402347713708,-0.1336890757083892,-0.3357809484004974,-1.4178476333618164
3.7368835449218807,-1.5693490654803812,1.132559676584601,1.4152864848852156,-0.236668974161148,-0.1533111780881881,-1.358658790588379
3.7468486328125152,-1.4272732752770183,1.0933245215222238,1.4162719887912272,-0.3006218671798706,-0.0336795896291732,-1.304405927658081
3.7568137207031356,-1.3147642096891998,1.046799793973565,1.3965157334417104,-0.3188138604164123,0.0128798065707087,-1.2518852949142456
3.766778808593756,-1.2234771611545234,0.9936959802955388,1.3244272333085536,-0.290006160736084,-0.0220313053578138,-1.2095966339111328
3.7767434082031315,-1.144855094534159,0.9071069533839822,1.2887953634351492,-0.2227153778076172,-0.1085522398352623,-1.1836355924606323
3.786708496093766,-1.062665471625328,0.7697147909522056,1.2570172463804483,-0.138311818242073,-0.2371530830860138,-1.1661498546600342
3.7966738281250088,-0.9431054646126924,0.6498711446925998,1.288879534587264,-0.0457512401044368,-0.388501763343811,-1.1561781167984009
3.8066386718750067,-0.8271978426277637,0.4600900388538837,1.342720430368185,0.0312567241489887,-0.5555126070976257,-1.1378886699676514
3.8166037597656413,-0.739177467738837,0.2380243277430534,1.3791057489573957,0.0901607424020767,-0.7142114639282227,-1.1108002662658691
3.826567382812513,-0.6669344346310943,0.02802168713063,1.5359411552667617,0.1195023879408836,-0.8327841758728027,-1.0780510902404783
3.8365324707031334,-0.6261163212262094,-0.1842915685117244,1.5635288348942995,0.107071004807949,-0.9376158118247986,-1.0410864353179932
3.8464978027343903,-0.6264677650123834,-0.3646484279230236,1.5535831949412822,0.0785480216145515,-1.0078675746917725,-1.0113203525543213
3.8564626464843883,-0.5932100769244134,-0.5232312624216079,1.5683639999657868,0.0333564579486846,-1.0659667253494265,-0.9871979355812072
3.8664277343750086,-0.5727070217955857,-0.645379678492248,1.4648814136594532,-0.0360130295157432,-1.0985294580459597,-0.9688543677330016
3.8763925781250066,-0.6116845488350838,-0.6905342867314815,1.405250244039297,-0.1185067147016525,-1.103481650352478,-0.9576746821403505
3.886357666015641,-0.6331769803274423,-0.6840595377594232,1.1982733809888362,-0.1902725249528885,-1.0765225887298584,-0.9451402425765992
3.896322509765639,-0.6428112893089651,-0.6615814562305807,1.0064064087867737,-0.2488358169794082,-1.038810133934021,-0.9333669543266296
3.9062875976562594,-0.6238688345603645,-0.6038818391948938,0.7749070988982916,-0.2867070436477661,-0.9797526001930236,-0.9235614538192748
3.9162524414062574,-0.586028275661543,-0.5708449542507529,0.5699217019259929,-0.2980446219444275,-0.9029074907302856,-0.9186494946479796
3.926217529296892,-0.5557531105156988,-0.5506006231233477,0.24813889452219,-0.2873070240020752,-0.8544451594352722,-0.924302875995636
3.9361826171875123,-0.4909605030117556,-0.5278431401312351,-0.0790115773946046,-0.2534543871879577,-0.8158963918685913,-0.9279510974884032
3.9461477050781326,-0.4194264584235846,-0.5232713021710514,-0.2883417255729437,-0.1989879608154297,-0.7667403221130371,-0.9389268159866332
3.956112792968753,-0.2985630771948024,-0.5433206952482461,-0.4145376634687185,-0.1395383179187774,-0.698091447353363,-0.9363721013069152
3.9660773925781285,-0.1671014190568588,-0.6090954821899532,-0.5458277096331119,-0.0825474709272384,-0.6418122053146362,-0.9167360663414
3.9760427246093855,-0.0041041473831981,-0.6587921177729964,-0.6541670883208512,-0.0339112430810928,-0.5888252854347229,-0.8996089696884155
3.9860075683593834,0.161382000230439,-0.7293938864797354,-0.6918079599291086,0.0096812397241592,-0.5444165468215942,-0.8797998428344727
3.9959726562499966,0.2740459641190245,-0.7747814266920089,-0.7879150490313768,0.0425701215863227,-0.5170422792434692,-0.858255922794342
4.005937500000009,0.3041015682300552,-0.7802724253237246,-0.8377432020395994,0.0691529959440231,-0.4947971403598785,-0.8392175436019897
4.0159028320312515,0.3416897598030045,-0.7624599975183606,-0.9116250153303146,0.0893831998109817,-0.4906612932682037,-0.824187695980072
4.0258676757812495,0.4086758587632328,-0.7346645203590393,-0.9758107795149088,0.1201674789190292,-0.4659434258937835,-0.8156618475914001
4.035832519531247,0.506064219847694,-0.8256874380648136,-1.0082254409074782,0.1520809680223465,-0.4373523294925689,-0.8044672608375549
4.04579736328126,0.5965334491934627,-0.8991445962026715,-1.0626911905884742,0.1736783981323242,-0.4229635298252105,-0.7928404211997986
4.055762695312502,0.6319443697925656,-0.8379571370512247,-1.174186987480521,0.1704377979040146,-0.4316073656082153,-0.7843042612075806
4.0657275390625,0.6278038359217345,-0.8412856969520449,-1.2206021171748638,0.1623061001300811,-0.4391545057296753,-0.7802320122718811
4.075692626953135,0.6086446331499145,-0.8359948970675468,-1.2899410263389348,0.1508165001869201,-0.4276642501354217,-0.7842746376991272
4.085657714843755,0.6030100613290443,-0.84356094840765,-1.3455518544018268,0.1404440104961395,-0.3925757706165313,-0.7918604016304016
4.0956228027343755,0.5950605270966887,-0.9288368468940258,-1.4700433264672754,0.114286720752716,-0.3630883991718292,-0.7950133085250854
4.105587890624996,0.5840844481173902,-0.979928443966806,-1.5393617773652075,0.0750019028782844,-0.3238808214664459,-0.8034693598747253
4.115552490234371,0.5020855254750699,-0.9337333867639304,-1.5980185489952563,0.0132542056962847,-0.29719078540802,-0.8336480259895325
4.125517578125006,0.3982090079477056,-0.8541419636547565,-1.71364165495038,-0.0698414742946624,-0.2813998162746429,-0.8821162581443787
4.135482421875004,0.2975342090710997,-0.7271510759890079,-1.8487234946131703,-0.1587671488523483,-0.2549861669540405,-0.9310609102249146
4.145446777343757,0.2115517697505652,-0.5724219943091273,-1.9860107353657483,-0.2257656157016754,-0.2023357450962066,-0.9678985476493835
4.1554118652343774,0.0885713598351925,-0.3835173790439963,-2.0772055025070904,-0.2780112326145172,-0.1280883848667144,-0.9950071573257446
4.165376464843753,-0.0292771122855134,-0.1389832310155034,-2.1739660870820283,-0.3048209846019745,-0.0315554626286029,-1.0121855735778809
4.175341552734373,-0.0631267749172635,0.1441673556551337,-2.194039737817645,-0.3097878992557525,0.0783746540546417,-1.012618064880371
4.185306396484371,-0.0680247578255832,0.4666512970656156,-2.165766414013505,-0.2837999761104584,0.1904402077198028,-0.9908843040466307
4.195271728515628,-0.0233412833625916,0.7150637478321791,-2.0859224774479865,-0.223434492945671,0.3066482841968536,-0.9301021695137024
4.205236572265626,0.0565292306825984,0.9280869053095578,-1.915059130308032,-0.1288408786058426,0.4153979420661926,-0.8358310461044312
4.2152016601562465,0.2143999439896084,1.057163951599598,-1.7196984707713123,0.0049604666419327,0.5119515061378479,-0.7130295038223267
4.225166503906259,0.291163979919441,1.1245566951319574,-1.4437164605557915,0.1648848801851272,0.5845879316329956,-0.5671125054359436
4.235131591796879,0.4162707708716392,1.1619085206657649,-1.1632131735235451,0.3497229218482971,0.594110369682312,-0.4118006825447082
4.245096679687499,0.5877664976309984,1.138656824415922,-0.8820400244057178,0.5335228443145752,0.5219056606292725,-0.2730217576026916
4.255061523437497,0.6694765203293412,1.114728836339712,-0.5731511853665113,0.6980103850364685,0.3987826406955719,-0.1576773226261139
4.265026611328132,0.6830817057032138,1.0734718200609088,-0.3033966713637113,0.8338196277618408,0.2372169196605682,-0.0674217268824577
4.274991699218752,0.6562748742550611,1.0208069823220371,0.0420282929122447,0.9153688549995422,0.0914651304483413,-0.0059538385830819
4.2849567871093726,0.6493581536691635,0.9401704340741036,0.3433890745341778,0.9322567582130432,-0.0303100422024726,0.0364325009286403
4.294921630859385,0.6304089038535953,0.8681637670055031,0.6405944900423288,0.8863601088523865,-0.089206725358963,0.0664223432540893
4.304886474609383,0.6182588126588613,0.8093240400239825,0.9276450067609548,0.7880474328994751,-0.0727694258093833,0.0933335870504379
4.314851562500003,0.6124111095439643,0.697127985908091,1.0839233637094496,0.6366817951202393,-0.0031841029413044,0.1180474683642387
4.324816650390623,0.6703845750849694,0.6239964064627885,1.1949737549215556,0.4539601802825928,0.1088766604661941,0.1375167667865753
4.334781494140621,0.7824117754399776,0.4960176768034696,1.1124340034008025,0.2720118463039398,0.2070878893136978,0.1629227995872497
4.344743408203122,0.8909495262440293,0.3590326338678598,0.9716770407110452,0.1245962977409362,0.2772475481033325,0.1977505534887313
4.354708251953134,0.9718830116119236,0.3086576606318354,0.7167033317327499,0.0217115450650453,0.298352837562561,0.2317766994237899
4.364673583984377,1.0093386628463863,0.3281368526056408,0.4485457315325736,-0.050931766629219,0.2547078728675842,0.2577848732471466
4.374638427734375,0.9011205724507568,0.4192620616421103,0.0442313559144735,-0.0878031924366951,0.1368651837110519,0.2600860893726349
4.38460351562501,0.7062718079589307,0.5613949888601899,-0.2341922022342681,-0.0842776969075203,-0.0002631016541272,0.2427483797073364
4.394567382812504,0.3945318903375416,0.7313911977767944,-0.3413783192336559,-0.0561572611331939,-0.1180187463760376,0.218588188290596
4.404532226562502,0.0838603508663363,0.85455492836982,-0.3162579065024852,-0.0216983538120985,-0.1596101373434066,0.184756189584732
4.414497558593759,-0.1242811537830159,0.9731889065787196,-0.1232388416558504,-0.0110351471230387,-0.1299370229244232,0.1575136333703994
4.424462402343757,-0.2013796092989854,1.0054197358369827,0.074434186476469,-0.0160402916371822,-0.0355703085660934,0.1402536928653717
4.434427490234377,-0.2184811123560182,0.9726941087991,0.4293716599851846,-0.039860475808382,0.1329702585935592,0.138490691781044
4.444392578124997,-0.1589996168722398,0.96722941365242,0.7929355075418949,-0.0882514417171478,0.3350993990898132,0.1526842713356018
4.4543574218750095,-0.0213561282942071,0.9698431032821536,1.1444301471203564,-0.1587720513343811,0.5211220979690552,0.1813777089118957
4.46432250976563,0.1454249179681763,0.970534300416708,1.3082505900114774,-0.2288368940353393,0.6424552202224731,0.2139984965324401
4.474287353515628,0.306493176074326,0.9879492533370852,1.4208639927566051,-0.2675193548202514,0.706031858921051,0.2412048280239105
4.484252441406248,0.4103042271500453,0.9820768541723488,1.5025859981536864,-0.2805787026882171,0.7068614363670349,0.257234126329422
4.494217285156246,0.4471977144571021,0.9083665980562567,1.6576771911442278,-0.2772547006607055,0.6929517984390259,0.2727686166763305
4.504182617187503,0.4801414777576923,0.8742509779646992,1.8021821081906555,-0.2681823670864105,0.6564332246780396,0.2800102829933166
4.514147460937501,0.4429200736705213,0.8360831598728895,1.8167957399547097,-0.2509155571460724,0.5814477205276489,0.2725070714950561
4.524112548828121,0.4466694162666797,0.8325348197415471,1.8778338537633417,-0.2240104377269745,0.49637570977211,0.2538758814334869
4.534077148437497,0.4613666346609592,0.7594479562208056,1.9484359147310253,-0.2035534381866455,0.4199297726154327,0.2416266798973083
4.544042480468754,0.504889696175605,0.6180757842421531,2.079102276039124,-0.1993669420480728,0.3840245008468628,0.2440368384122848
4.554007324218752,0.6306794644232839,0.4391586022451519,2.197861341932416,-0.2228693962097168,0.3748686909675598,0.2474496662616729
4.563972412109372,0.726040703594312,0.2582601833030581,2.2266706723093983,-0.2711967229843139,0.3807028830051422,0.2506750226020813
4.573937500000007,0.7589761009253561,0.1505143865942955,2.167468541756272,-0.3366420567035675,0.3885840177536011,0.2527371048927307
4.583902587890627,0.7197571663454174,0.0131105337247252,2.0491998897284267,-0.4140447080135345,0.3889209032058716,0.2521584033966064
4.593867675781247,0.6229805804837495,-0.0319125570893287,1.91690972661078,-0.4994138777256012,0.4047814607620239,0.2598645091056824
4.603832275390623,0.4636200396109372,-0.1726075604587793,1.7463631903350352,-0.5777771472930908,0.4444961249828338,0.2658539712429046
4.613796386718754,0.3250901053208858,-0.3257496652081608,1.5020692808032037,-0.6482188105583191,0.5105841159820557,0.2653431892395019
4.623761474609374,0.172197810614109,-0.508059412252903,1.22254857506752,-0.6936395764350891,0.5780781507492065,0.2577648758888244
4.633726562500009,0.0720375005982816,-0.6818082517012953,0.844413181322813,-0.726668655872345,0.6167382597923279,0.2419720739126205
4.643691650390629,-0.0692515231415629,-0.8696534210413693,0.382947177940607,-0.7392366528511047,0.6158913373947144,0.224485233426094
4.653656494140627,-0.2557918204281479,-1.0303551473900676,-0.0393155268222093,-0.7247835993766785,0.5901254415512085,0.2082841545343399
4.663621337890625,-0.430959075307101,-1.1912643790096045,-0.4543646469444036,-0.6863837838172913,0.5424937009811401,0.1915310025215149
4.673586425781259,-0.6027568537529557,-1.337943717485666,-0.9020224897265434,-0.6308332681655884,0.4596678018569946,0.1698944419622421
4.68355151367188,-0.7389017926026136,-1.482583074566722,-1.2457704607009887,-0.5523706674575806,0.3739345371723175,0.1535836458206176
4.693516357421878,-0.8995016660120337,-1.619593544204533,-1.5347253497362137,-0.4458789527416229,0.2839020192623138,0.139689639210701
4.703481445312498,-1.095540882397443,-1.6968226220965383,-1.781642008987069,-0.3326890170574188,0.1997490525245666,0.1290756165981292
4.713446289062496,-1.303063250501454,-1.742402470010519,-1.9441455240607264,-0.2064438313245773,0.1237029582262039,0.1203729435801506
4.723411621093753,-1.498732975987345,-1.7091496042281389,-2.077594209563732,-0.061516735702753,0.0529462322592735,0.1232009530067443
4.733376464843751,-1.6885912387154995,-1.649715126223862,-2.1827491129964587,0.0952408835291862,-0.0157401636242866,0.1409996747970581
4.743341308593749,-1.8237419058308004,-1.6137550473093984,-2.1176889040648934,0.2571352422237396,-0.0565594993531703,0.1582609415054321
4.753306396484383,-1.881881083327532,-1.7013026901200412,-1.971468415272236,0.4153795838356018,-0.089305393397808,0.1757738888263702
4.763271484375004,-1.9215309566706416,-1.792692395311594,-1.903253541702032,0.5609210729598999,-0.1429209560155868,0.1720555871725082
4.773236572265624,-1.9219699326097963,-1.7857409687384962,-1.818934505549073,0.6865702271461487,-0.2199712395668029,0.1457771062850952
4.783201416015622,-1.8894759223707016,-1.7508333214864134,-1.7621183933496474,0.8134053945541382,-0.3221559226512909,0.1190874427556991
4.7931665039062565,-1.8249065656960008,-1.7375465544119475,-1.6393600286871195,0.9257725477218628,-0.4473446607589721,0.1003321260213851
4.8031313476562545,-1.6894103000134228,-1.6780328736916184,-1.554844593179226,0.9974970817565918,-0.5972747802734375,0.0621871389448642
4.813096435546875,-1.5091247522726654,-1.574430752658844,-1.3906886347234249,1.040854573249817,-0.7430552244186401,-0.0064164246432483
4.823060546875006,-1.3438546950951218,-1.4377864859849214,-1.27754740871191,1.0515214204788208,-0.8789869546890259,-0.0813292786478996
4.833025390625004,-1.1497171476125716,-1.354443601387739,-1.0873293727606534,1.020958423614502,-0.9557488560676576,-0.1504809111356735
4.842990478515624,-0.856169231698662,-1.4036568373680114,-0.7853606883734464,0.9319942593574524,-0.967063009738922,-0.2027049660682678
4.8529555664062585,-0.7020442533917725,-1.3824462915569542,-0.5610299549400806,0.773555338382721,-0.9478801488876344,-0.2431778311729431
4.862920410156256,-0.7980342189203947,-1.1083861893147229,-0.3447702997595072,0.536396861076355,-0.893876314163208,-0.302621990442276
4.872885253906254,-1.1499320324722675,-0.570807544849813,-0.2434025136500597,0.2392168492078781,-0.8600541353225708,-0.3957918882369995
4.882850341796875,-1.6006605879366398,0.1821183161258697,-0.3541378475636244,-0.1144229918718338,-0.8447332382202148,-0.5421930551528931
4.892815429687509,-2.1527724924057723,0.9072256113275884,-0.5888204636633396,-0.4643481075763702,-0.8014020323753357,-0.7092901468276978
4.90278051757813,-2.707807298584282,1.6997054840564727,-0.8539543321281671,-0.733085036277771,-0.6986841559410095,-0.8811354041099548
4.91274560546875,-2.9260552049726245,2.344165125094354,-1.1868494851768017,-0.8707581758499146,-0.5061219930648804,-1.0199239253997805
4.922710449218748,-2.806695835098624,2.660841549269855,-1.376809162452817,-0.8445795774459839,-0.2087092250585556,-1.0775206089019775
4.9326755371093824,-2.4937735027596357,2.7910414621099826,-1.3077519928395749,-0.6835432648658752,0.1399081200361251,-1.0180549621582031
4.94264038085938,-1.8893441126845776,2.74705209825784,-1.2288643340855836,-0.4430558383464813,0.397789716720581,-0.8926578164100647
4.952605468750001,-1.3158712941482662,2.607676360793412,-1.1397674160063267,-0.1532088220119476,0.5178256630897522,-0.7369124293327332
4.962570312499999,-0.9880936302438378,2.468314651854336,-0.7607540703833102,0.1481379717588424,0.4938188791275024,-0.5946376323699951
4.972535644531256,-0.8456232877649367,2.249661671796441,-0.433149424958229,0.4251535832881927,0.3286546170711517,-0.4966955780982971
4.982500488281254,-0.7947286745689809,2.0542215172827243,-0.129811790305376,0.6600531935691833,0.0484128631651401,-0.4875209927558899
