time,ax,ay,az,gx,gy,gz
0.0,0.9409895684372632,0.3450815576657652,-0.1763216125458478,0.8962540626525879,-1.4361473321914673,0.849286675453186
0.009965087890591917,0.8341462735261768,0.1960723149374127,-0.0682978756785392,0.9584753513336182,-1.296825647354126,0.8093288540840149
0.019930908203122044,0.5623894067250191,-0.1495449570402502,0.3696346919029951,0.9572089314460754,-0.98661869764328,0.8207761645317078
0.029896240234364768,0.355531640009582,-0.3229050894320011,0.7553495809912681,0.8377342224121094,-0.6019786596298218,0.8389458060264587
0.03986108398436272,0.4209665274724364,-0.352987800745666,0.8621756325066089,0.641502857208252,-0.2249433994293213,0.8193234205245972
0.04982690429687864,0.6070457100532949,-0.5928729539245366,1.0100883121699094,0.3980843722820282,0.1215037703514099,0.785344660282135
0.05979223632812136,0.6157965872637927,-1.1107897433251142,0.9893728563994167,0.111137643456459,0.4220901429653168,0.731194019317627
0.06975805664059465,0.5401005641579628,-1.4355302314907312,0.7367237909764051,-0.1501751840114593,0.6279101371765137,0.6400718688964844
0.0797231445312434,0.3784945824459195,-1.4483251233950256,0.4040793978184461,-0.3419017493724823,0.7593734860420227,0.4777444005012512
0.08968798828124136,0.1785568242520094,-1.214625965374708,-0.1181295358180999,-0.4321357905864715,0.8138862252235413,0.2282424122095108
0.09965405273435124,-0.0404486225053668,-0.5460568422138691,-0.64221478472054,-0.359624832868576,0.930608868598938,-0.1288922727108001
0.109619140625,-2.412266455287486,0.2529737673327326,-2.1467776359051465,0.0937815308570861,1.3321436643600464,-0.7116749882698059
0.11958398437499795,-2.740511006051302,-0.3373398574978113,-2.2351918324172497,0.2283499538898468,1.561249852180481,-0.7604736089706421
0.12955029296874443,-1.8491861436888573,-0.0403659126579761,-2.1167413940817115,0.3940396010875702,1.6732443571090698,-0.616803765296936
0.13951489257812,0.3020482524294406,0.26076515186131,-0.6139689334452152,0.4472837150096893,1.767246127128601,-0.4082308411598205
0.1494809570312441,2.133334070833772,0.0834466372326016,-0.6620704087913036,0.4026155769824981,1.5771429538726809,-0.1864470392465591
0.15944604492187864,2.2580274952121075,0.5353960397288203,0.7740268089324236,0.3266947269439697,1.7994483709335327,0.0082506947219371
0.16941113281248477,2.922320694619417,1.205931494526565,-0.1296674133986234,-0.0313462354242801,1.083249807357788,0.2434815764427185
0.17937695312500068,3.228244546373188,0.901560425172746,-2.311889287650585,-0.393104076385498,0.6274191737174988,0.5340564846992493
0.1893420410155926,2.498733755515516,0.967207201820612,-0.9312877471774816,-0.4478059411048889,0.5227300524711609,0.7183837294578552
0.1993081054687451,1.6080563972763715,0.8243237484961747,-1.3373036660164594,-0.2949977517127991,0.5184407830238342,0.7591120004653931
0.20927294921874307,1.2269868497759102,0.8067045051753521,-1.372898126488924,-0.1067434400320053,0.4135705530643463,0.7847563624382019
0.21923828125,1.6308958594635128,0.70765785548985,-0.7020645655274391,-0.0065275281667709,0.2186054736375808,0.8242108225822449
0.22920410156247328,2.2632950603514908,0.4994911981329321,0.0341653044521808,-0.0719094648957252,0.0083867236971855,0.796699047088623
0.23916918945312204,2.51164146014452,0.4445265590190887,0.8599731540262698,-0.2886416316032409,-0.1021964848041534,0.666670560836792
0.24913525390623192,2.598374571701884,0.2160062649413943,0.985239702117443,-0.6497185826301575,-0.1551923155784607,0.476096898317337
0.2591000976562441,2.6627824542045597,0.8600678465723991,1.1591314571678637,-1.084625244140625,-0.227411612868309,0.2368247210979461
0.26906494140624204,2.7535645488917826,2.4867273836404085,1.6550521033376455,-1.5047551393508911,-0.3083272278308868,0.0085454788058996
0.27903125000000273,3.3576816581472757,2.7356138816595075,1.8503379440724848,-1.8649544715881348,-0.2965453565120697,-0.1826727986335754
0.2889960937500007,2.8302175804615017,2.1583669514119626,1.395039231148362,-2.0559444427490234,-0.4411792457103729,-0.4076920747756958
0.29896093749999864,2.172923153900355,2.468623571673036,0.3724643623709678,-1.916021585464477,-0.5495463013648987,-0.85234135389328
0.3089270019531227,1.5980528896562751,3.653382514311373,-0.5797147816658019,-1.407386064529419,-0.7224978804588318,-1.2495588064193726
0.31889208984374307,0.7398259947754442,4.359546331851184,-1.867325903752446,-0.7134553790092468,-0.8440462946891785,-1.457777976989746
0.32885791015624477,0.0504902336461469,3.3913173857674,-2.8817823480039837,-0.0614506788551807,-0.9138748645782472,-1.4548264741897583
0.3388229980468793,-0.7281046503867954,1.6484312238931655,-2.500855277714133,0.4901928901672363,-0.8703540563583374,-1.2312349081039429
0.34878808593747124,-0.8397489889040589,0.1042880574703216,-1.3628262298077345,0.8537743091583252,-0.8718899488449097,-0.8769863843917847
0.3587541503905953,-0.3023025925166904,-1.822482845680416,-0.934576851850748,0.8769748210906982,-1.0092973709106443,-0.4128601849079132
0.3687189941405933,-0.1527528131708502,-2.772714070519805,0.7222650575131178,0.8286389708518982,-0.7253043055534363,0.0294594448059797
0.3786850585937316,-0.5356997719157487,-0.5701373905032873,2.888511948519945,0.7786363363265991,-0.1919206082820892,0.2265825867652893
0.3886501464843519,-0.6914235637214035,-0.4996177471220493,3.1944284937500957,0.6144327521324158,0.3087190389633178,0.4166379868984222
0.39861547851559465,-0.2321370232701301,-1.642256919172406,2.1831249605715275,0.3517646789550781,0.4441676735877991,0.6955548524856567
0.40858178710935533,0.5881809967160224,-2.298681138770282,0.9931284095406532,0.0521209873259067,0.331384927034378,0.971252739429474
0.4185466308593533,1.0950873664762824,-2.3706509809598324,1.0350643479943276,-0.2440940588712692,0.2766359448432922,1.1696457862854004
0.42851147460935124,1.0895010177113116,-1.939945734283328,1.9930746824026109,-0.4960682392120361,0.338039368391037,1.3079859018325806
0.4384777832031119,0.9383845735706388,-1.6213804276213049,2.5348317815959454,-0.6856799721717834,0.4827093482017517,1.4151121377944946
0.4484426269531241,0.7927755677398294,-1.653874291729927,3.0092180568277835,-0.8677171468734741,0.6897339224815369,1.5216130018234253
0.4584084472655974,0.5846096410352737,-1.5954761710360643,3.1669384292781357,-1.1118630170822144,0.8148245215415955,1.5950943231582642
0.4683735351562319,0.4950527772940695,-1.3982520557150244,3.05146729901433,-1.263851523399353,0.8418526649475098,1.698055863380432
0.4783386230468807,0.2921060465425252,-1.3122379060819744,2.5233389122009275,-1.2124991416931152,0.7836982607841492,1.817734241485596
0.48830444335935397,0.4687075720082968,-1.0564157635807991,2.0926590922266244,-0.9793111085891724,0.6796272397041321,1.927478313446045
0.49826953125000273,1.6110262068673968,-1.2524044918879866,2.1260797157913447,-0.6223326921463013,0.7421984672546387,2.0304744243621826
0.5082355957031126,2.488042557892203,-1.223856150534749,1.5130296507567167,-0.3077544867992401,0.7422059178352356,2.075027704238892
0.518200683593733,2.1354685986444357,-0.9723217683553697,0.0846013602256774,-0.1204925775527954,0.5629267692565918,2.080294132232666
0.5281655273437451,1.356416655026376,-0.7283934772655367,-0.6653320409357547,-0.1064369529485702,0.2752082049846649,2.1263368129730225
0.5381315917968834,0.9086060328353196,-0.3511763674095273,-0.9973375516682864,-0.2608973383903503,-0.0728589594364166,2.1358368396759038
0.5480966796874753,0.7815808045085519,-0.0738368051052093,-1.156644901049137,-0.5164462327957153,-0.5550860166549683,2.098388910293579
0.5580615234374733,1.1821831738661974,0.460699402923882,-1.4241022440254687,-0.7616473436355591,-1.187635064125061,1.9541517496109009
0.568027832031234,1.6553931718602777,0.5578302821159362,-0.9296762203276157,-0.9127433896064758,-1.592966079711914,1.7941123247146606
0.5779924316405953,1.239758945326507,0.032117139750719,-0.1523445246309042,-1.11225426197052,-1.6389890909194946,1.6732397079467771
0.5879582519531112,0.7759963554397225,-0.3517684880837798,-1.9985130740642547,-1.2258751392364502,-2.040663957595825,1.6441584825515747
0.597923583984354,0.8626797826364636,-0.2793240141198039,-3.149183576878905,-1.0658490657806396,-2.448586940765381,1.6552846431732178
0.6078884277343519,0.9344435808598994,0.3857403157904744,-2.5203835695266723,-0.6239288449287415,-2.562608242034912,1.5441114902496338
0.617854492187476,0.7594868269264697,0.9259332344070076,-0.7201134324371814,-0.2134730666875839,-2.0313713550567627,1.3781367540359497
0.6278195800781248,-0.9879898776084184,1.282445117625594,1.051592873468995,-0.351601094007492,-0.9307247400283812,1.2976016998291016
0.6377856445312347,-2.7258769160211083,0.192874249548465,-0.7594564317882061,-0.8385682702064514,-0.3003110885620117,1.4369386434555054
0.6477504882812326,-1.5822724060699342,-1.1266655039794742,-3.391303064981103,-0.8367104530334473,-0.2944793105125427,1.5848774909973145
0.6577155761718814,0.5236980031505227,-0.8995312574326991,-1.5654676940023895,-0.4413467347621918,0.1108776330947876,1.653090238571167
0.6676816406249912,1.4639236745432018,-0.5826891213014721,2.183310254010558,-0.257303923368454,1.2019505500793457,1.635624885559082
0.6776464843750034,0.7486682035312056,-1.3346554895952345,4.003050815245509,-0.2919452488422394,2.580739021301269,1.687215805053711
0.6876115722655953,0.2571858320698142,-2.0119592694841324,4.329156162023544,-0.1347497701644897,3.6681430339813232,1.8347967863082888
0.6975776367187336,-0.0333668475508689,-2.229846379736066,3.08266790844202,0.1427449733018875,4.675297260284424,1.935259699821472
0.707542724609354,0.5138711672715842,-1.5628766545958817,3.1812013479083774,0.4127743244171142,6.001628398895264,1.831088304519653
0.7175085449218841,1.0618332585848866,-0.8300828965447843,3.569877424889803,0.51304692029953,7.552619457244873,1.6187913417816162
0.7274738769531126,0.5137261327777057,-1.4094830593034624,-4.05017789260149,-0.5209423899650574,5.954598903656006,1.9401429891586304
0.737438476562474,-0.2429213425369933,-0.0734963211044669,-12.965382910990714,-0.7730138301849365,3.031141996383667,1.4998730421066284
0.7474042968750041,2.07156515853256,0.6241193021900951,-12.429264109945295,-0.7680912613868713,-0.6431171894073486,1.262594223022461
0.7573696289062326,3.1210633978098627,-0.9696620476268232,-13.763450520724057,-0.7488784790039062,-3.328183889389038,1.0702786445617676
0.7673354492187343,2.6834052632555365,-0.2966865062005818,-3.153530666172504,-1.3327672481536863,-3.0682687759399414,1.1740801334381104
0.7773005371093547,0.0387632267016917,-0.8679723360866308,2.1951292866200207,-1.5631541013717651,-1.52165424823761,1.3042583465576172
0.7872656250000034,-1.642135630880296,-1.0174182166665793,1.406540868371725,-1.396636724472046,-0.399605929851532,1.346048355102539
0.7972314453124767,-2.965946485856175,1.0863168347172438,1.3447037131398916,-1.1843039989471436,0.8067067265510559,1.302871584892273
0.8071965332031112,-3.0914725616663694,2.579490130750835,0.0896867006659507,-0.8460832834243774,1.4033842086791992,1.1598068475723269
0.8171616210937316,-2.630913443996012,3.165070297318697,-2.1436481057077645,-0.5522823333740234,1.610903024673462,1.104015231132507
0.8271276855468841,-1.7143414737828075,5.01679180470407,-5.32491024389267,-0.3933390378952026,1.240813136100769,1.0254701375961304
0.837092529296882,-1.546177887120843,4.435215613080561,-2.289414420992136,-0.000841639470309,1.019674301147461,0.9584758281707764
0.8470588378906143,-1.358559512273967,4.6997173211216925,-3.94228684220314,0.2957431674003601,0.450070708990097,0.7965121865272522
0.8570236816405981,-1.1724652782544494,5.010808054119348,-3.2218922547370195,0.456211656332016,0.0280689820647239,0.5686217546463013
0.866988525390596,-1.0304854227062314,4.695559324659407,-2.4601374828785656,0.5841799378395081,-0.1756037175655365,0.3112351596355438
0.8769545898437343,-1.057637122069299,3.945228156352043,-1.8198533739596603,0.6235275864601135,-0.3508171737194061,0.045952271670103
0.8869194335937323,-1.0147184561885894,3.331391324853897,-1.1056991421878335,0.5432779788970947,-0.5336636900901794,-0.205812856554985
0.8968845214843526,-0.7917807114835828,2.7909116982504725,-0.3167717012435198,0.3803131282329559,-0.7629871368408203,-0.4622081518173218
0.9068503417968827,-0.7121512944515794,2.2916458333060143,0.6008300504088402,0.2360331714153289,-0.9874985814094543,-0.7033610939979553
0.9168156738281112,-0.6221100081942975,1.7837693764045834,0.9927934784978628,0.1710717976093292,-1.1308032274246216,-0.8763990998268127
0.9267814941405987,-0.4914235539462417,1.3193592823944984,1.305288233074546,0.2775236666202545,-1.0733684301376345,-0.9143262505531312
0.9367465820312333,-0.3416501219123601,0.9220658183891326,1.7042378667891025,0.5326368808746338,-0.9484038352966307,-0.8354185819625854
0.946711669921882,-0.3849932237502187,1.059782755795866,1.889793756148219,0.8637501001358032,-0.9806318283081056,-0.6748933792114258
0.9566774902343553,-1.663552659048885,1.458438521130383,2.284721879261732,1.2291600704193115,-0.9311991930007936,-0.464186429977417
0.9666425781250041,-2.2096131545245647,0.9250549902677536,3.1150738020062443,1.4771063327789309,-0.5060005187988281,-0.1712975651025772
0.976607666015596,-0.9393967462878674,0.9736861885763703,3.085191289439797,1.582695722579956,0.0323815457522869,0.1005083173513412
0.9865737304687343,0.4837221127234399,1.4457272158563137,2.589126850885153,1.594357132911682,0.482548713684082,0.2388627380132675
0.9965385742187323,1.2197712193086745,1.8760824800513685,1.3417144681960345,1.558205485343933,0.6120972633361816,0.2073296457529068
1.0065048828124787,1.3394669815301894,2.152154652768373,0.348787718707323,1.4767612218856812,0.460950642824173,0.0488401390612125
1.0164694824218827,1.0683538925252851,2.4312787604019044,0.2884749965637922,1.3612390756607056,0.2235601246356964,-0.2083174139261245
1.0264345703124746,0.5566620420541614,2.316582998424768,0.8638263223230839,1.205633521080017,0.0455461926758289,-0.4024748802185058
1.0364003906250048,0.4227752573948353,1.5977325716607271,1.603017380195856,0.9779716730117798,0.0256140381097793,-0.4670279622077942
1.0463654785155967,0.3868012960854917,0.7805515345260501,2.746063379481434,0.7446089386940002,0.2188018709421157,-0.39873868227005
1.0563305664062312,0.2394992956664413,0.2397629881039261,3.367005074548721,0.5630281567573547,0.4090848863124847,-0.2564497292041778
1.066296386718733,0.0237482475951313,0.0986585271507501,3.3569109660357235,0.4670281112194061,0.5557334423065186,-0.1215917617082595
1.076261718750004,-0.0526066047456115,0.1391086109608411,3.121446259647608,0.4362874329090118,0.6393256187438965,-0.0399706587195396
1.0862275390624774,-0.0060080082431435,0.2291124147519469,2.81871360515058,0.4258446395397186,0.6721480488777161,-0.0032009230926632
1.096192626953112,0.0061047831485047,0.241868728211522,2.3703321242690083,0.3843437433242798,0.6432744860649109,0.0685180723667144
1.1061577148437323,-0.0964470616463571,0.2684212195724249,1.5102391432553528,0.3179881572723388,0.516329824924469,0.1325535178184509
1.116123535156234,0.0781589791532605,0.5385103723570704,1.0390332516252994,0.2347971647977829,0.3932733833789825,0.16457299888134
1.1260886230468827,0.3135596073292195,0.5874018290370703,0.8246604331046342,0.1576533764600753,0.3119899928569793,0.1960720717906952
1.1360534667968807,0.1983978900744579,0.5329714429304003,0.7322685651332139,0.1071989089250564,0.2440299838781356,0.2378261536359787
1.1460197753905987,-0.0181514870340004,0.7038526179879904,0.7734060466855764,0.0694134458899498,0.1986169517040252,0.2515598237514496
1.1559843750000027,-0.1282869736245833,0.902539791598916,0.8611246621489524,0.0113590452820062,0.1511449813842773,0.2374582588672638
1.165950683593735,-0.2895545171624981,0.9965656905129552,0.9876777429193258,-0.0658803507685661,0.1793454587459564,0.2106580734252929
1.175915527343733,-0.4577766473449766,0.8603118844613432,1.1873527585238215,-0.1396490186452865,0.2561518847942352,0.2088209092617035
1.1858806152343533,-0.4399444919258355,0.6040484279334545,1.0474906988471746,-0.2198226749897003,0.3417184352874756,0.2453498840332031
1.1958464355468834,-0.367218388008885,0.3667828096032142,0.6842717192053794,-0.2929793298244476,0.4020398557186126,0.3099223375320434
1.2058115234374753,-0.236817436171323,0.2203282197937369,0.2633808873176574,-0.32548588514328,0.4482843279838562,0.4045860171318054
1.215776611328124,-0.2790666418252512,0.2747241191089153,-0.1696966414481401,-0.2740183174610138,0.4667737782001495,0.4906188547611236
1.2257424316405974,-0.4784957929098978,0.4953913615986705,-0.597879968431592,-0.1621359884738922,0.4379304349422455,0.5532777309417725
1.2357077636718827,-0.6222333423130214,0.7010901675373316,-0.7982067259430885,-0.0543719306588172,0.4206169843673706,0.5864323973655701
1.245673583984356,-0.7024011040054261,0.9484951948270202,-0.8656459389656782,0.0109104039147496,0.436389297246933,0.5813862085342407
1.2556386718750048,-0.6845460791673511,1.1216431457728149,-1.05173257420063,0.0438781790435314,0.4494431912899017,0.5690258741378784
1.2656037597655967,-0.8128910117905587,1.21698188085109,-1.3640309294223785,0.0891039818525314,0.4105522334575653,0.5489035248756409
1.2755695800781126,-0.8328378212761134,1.3121183713555336,-1.5020482380151747,0.1142448484897613,0.3279596865177154,0.5076731443405151
1.285534667968733,-0.8271796493839472,1.309482469893992,-1.5491414131015535,0.0880284309387207,0.2191077470779419,0.4577490091323852
1.2954992675781227,-0.7909158382825553,1.2701619746357202,-1.3362234695643185,0.0352762974798679,0.1504241526126861,0.4101514816284179
1.3054658203124774,-0.8438658496383578,1.0918535721868277,-1.0813438686102628,-0.032741367816925,0.0804117694497108,0.3834919333457947
1.3154304199218814,-0.8715437648326158,0.8348965804368257,-0.9287479995667934,-0.1145699694752693,0.0245465710759162,0.3543388843536377
1.3253964843749912,-0.8162746628794819,0.7231085225999355,-0.6482078876554965,-0.1747973561286926,0.0052093584090471,0.3241820335388183
1.3353615722655974,-0.8417419162869453,0.5126663215264677,-0.3455015366435051,-0.1761583536863327,0.0293116085231304,0.3156248033046722
1.345326660156232,-0.8002453921638428,0.2994596241757273,-0.0428606520831584,-0.1398464292287826,0.0992094650864601,0.3285177052021026
1.3552924804687336,-0.6959621569991111,0.0703746819525957,0.0937473742336034,-0.090252861380577,0.1816475242376327,0.3541239500045776
1.365257568359354,-0.5489344800094142,-0.1270809040367603,0.1153179855287074,-0.0054418272338807,0.27541583776474,0.3870177268981933
1.3752226562500027,-0.4371303843531757,-0.2851452676191925,0.0263876561880111,0.0968886911869049,0.3262558579444885,0.4286361038684845
1.385188476562476,-0.295960530013591,-0.5309288311868906,-0.1614969683796167,0.1911230534315109,0.3061023950576782,0.4746728241443634
1.3951540527343553,-0.1614333650914952,-0.6678434392347932,-0.1884907737672329,0.2402469217777252,0.2855225503444671,0.5128210186958313
1.4051201171874936,-0.0252395729982759,-0.8004483673900366,-0.0392991602092981,0.2250557243824005,0.2593519389629364,0.5509029030799866
1.4150849609374774,0.0765702577902469,-0.9052961045697332,0.2117413009732961,0.1839799135923385,0.2572541534900665,0.5921413898468018
1.425050048828112,0.1684238815659657,-0.8787380602508783,0.4189946428775787,0.1168131306767463,0.2456278502941131,0.6323519349098206
1.435016113281236,0.2953968134499155,-0.8783248032748698,0.5780740287214517,0.0270494446158409,0.2629926204681396,0.6784873008728027
1.4449812011718564,0.3916805560270324,-0.8366179974019526,0.7014215914487838,-0.0772956013679504,0.2978134453296661,0.7268553376197815
1.454945800781232,0.4587443233333528,-0.7609148139029741,0.6911503728032111,-0.1533547788858413,0.3608719110488891,0.7841302752494812
1.464911865234356,0.5062380055120215,-0.6619897447705269,0.5942600243687629,-0.1693004518747329,0.4367397725582123,0.8501140475273132
1.4748769531250048,0.5770906071746722,-0.4633785590052604,0.3159866883456707,-0.1186251938343048,0.4627355337142944,0.9023011922836304
1.4848420410155967,0.6965821155283599,-0.2026815039440989,0.0943307270795106,-0.0291182119399309,0.490377813577652,0.9290867447853088
1.4948078613281126,0.7436484756730496,-0.0108574941009283,-0.0899935746580362,0.0608086660504341,0.496117353439331,0.9326883554458618
1.504772949218733,0.8497011316630989,0.055338440862298,-0.2674275323599577,0.121298111975193,0.4895036518573761,0.9177507162094116
1.514739013671857,0.9778538296498358,0.0889832285717129,-0.4879530282914638,0.1461182385683059,0.4636402130126953,0.8871158957481384
1.5247038574218834,1.1144394980043173,0.1078106786385178,-0.6121691905468702,0.1632636785507202,0.408892273902893,0.8366891741752625
1.534669189453112,1.2381423039101065,-0.0652171530589461,-0.5493862788975239,0.1623086929321289,0.3679604232311249,0.8038548827171326
1.5446350097656136,1.3421573896579444,-0.3993336645960808,-0.3198825267404317,0.1510805338621139,0.3809095025062561,0.8121790885925293
1.554600097656234,1.4341777939684688,-0.712596480935812,-0.1103074638903141,0.1280851811170578,0.4438599050045013,0.8604296445846558
1.564564941406232,1.4952866349257528,-0.8284232927694917,-0.0849240163087844,0.121166817843914,0.5230947732925415,0.9267881512641908
1.574531005859356,1.5699869249925016,-0.7735211974978446,-0.2469394556045532,0.1293500661849975,0.5595213174819946,0.9863846898078918
1.5844960937500048,1.5508927868135272,-0.5990680091723799,-0.4724941778749227,0.1326973885297775,0.5589476823806763,1.036218285560608
1.594460693359352,1.512559110635519,-0.4713438387960195,-0.7218781040221453,0.118438497185707,0.5440984964370728,1.0720471143722534
1.6044270019531126,1.379297179876268,-0.2200105321466922,-0.9198229348331688,0.1223043352365493,0.5000599026679993,1.087378740310669
1.6143918457031248,1.2036968673422932,0.197554370188713,-1.051835450053215,0.1549547165632248,0.4353481829166412,1.056715726852417
1.624357666015598,1.0636280330471697,0.6069952950403094,-1.0436918910861015,0.1939111799001693,0.3733119666576385,0.9977450966835022
1.6343229980468834,0.945150414443761,0.8525774908170104,-0.945491044574976,0.2367010116577148,0.3469657003879547,0.9345209002494812
1.6442880859374753,0.8413479485332965,0.9469476731240748,-0.8069494198471308,0.2867354154586792,0.3128282427787781,0.8942187428474426
1.6542539062499912,0.744831109586358,0.8993690526083111,-0.7342524324268103,0.3569996654987335,0.2548783719539642,0.8539289832115173
1.6642189941405974,0.7548734148468822,0.8581418469458818,-0.4177823444783687,0.4177687466144562,0.2422922551631927,0.8198860883712769
1.674184082031232,0.7964850167170167,0.8243769399881362,-0.1243763212531805,0.4623689949512481,0.2729315757751465,0.7992463707923889
1.6841499023437336,0.7751260023459792,0.6858215789958835,0.0598585486352443,0.5056701302528381,0.2926650643348694,0.7871667742729187
1.6941152343750048,0.7890889151163398,0.5443596829071641,0.3204571117579937,0.5423996448516846,0.294409304857254,0.7890191078186035
1.7040800781250027,0.7459361482188105,0.4251642714232206,0.5844178447902202,0.5447898507118225,0.3261112868785858,0.7978557348251343
1.714045898437476,0.678676164220646,0.352920580728352,0.7304670686691999,0.5129154324531555,0.3786865770816803,0.7871523499488831
1.724010742187474,0.5992379223791882,0.3602323650464415,0.7733996169447899,0.4692742228507995,0.4126780927181244,0.752718448638916
1.7339770507812347,0.4759221795622259,0.2785898546263575,0.6859563112914562,0.4087464809417724,0.4326044619083404,0.7042939066886902
1.7439418945312326,0.4066169900046661,0.1827311873272061,0.5858429091572761,0.3410931527614593,0.4318606555461883,0.6286558508872986
1.7539067382812448,0.3158894385162741,0.1394125623434782,0.5566302586764097,0.2715202867984772,0.4259837865829468,0.5329869985580444
1.7638730468749912,0.2911668294636532,0.13415917185992,0.503609447106719,0.1789711862802505,0.3907605409622192,0.4036199450492859
1.7738378906250034,0.2831030942671,0.113181558021903,0.5272808300733566,0.0610982738435268,0.3525190055370331,0.2468939870595932
1.7838029785155953,0.4217452567599714,0.0079573887452483,0.6683996118128299,-0.1109989210963249,0.3746642768383026,0.0994731113314628
1.7937690429687336,0.6405794386036694,-0.1733309062972664,0.7244155135452747,-0.3147272169589996,0.4345194697380066,-0.0209174882620573
1.8037338867187316,0.8598002816773951,-0.3992053620412945,0.6263835938602685,-0.5306121110916138,0.5096808075904846,-0.1085839569568634
1.813698974609352,0.9930727338306604,-0.6423948174625634,0.3902881883531808,-0.7145614624023438,0.5813770890235901,-0.1465834230184555
1.823665039062476,1.0533445394419132,-0.7546393868952989,0.1104576860159635,-0.8333554863929749,0.64556485414505,-0.1623389571905136
1.8336301269531248,1.1001084825739265,-0.753822517554462,-0.2665951731890439,-0.8550087213516235,0.6783953905105591,-0.1501921266317367
1.8435949707031227,1.088992118341103,-0.7116121460735797,-0.7185889993488788,-0.7669853568077087,0.6669384837150574,-0.1268628388643264
1.8535612792968834,1.0144203500248492,-0.5784130514174699,-1.0713204872459172,-0.5653820037841797,0.5667662024497986,-0.1108943596482276
1.8635258789062448,0.9180877816036344,-0.4375675336614251,-1.0406821878761052,-0.2984048724174499,0.4367326200008392,-0.1193336546421051
1.8734916992187323,0.673039181246981,-0.3495107722848654,-0.70047758859694,-0.0307543314993381,0.3250940442085266,-0.141415849328041
1.8834567871093526,0.3585587327457964,-0.3740983933135867,-0.1680225707560777,0.2053018808364868,0.2565794289112091,-0.162753090262413
1.8934218750000014,0.0715693716298788,-0.481244178302586,0.4073538894444704,0.3841819167137146,0.2226061373949051,-0.1706154495477676
1.9033879394531112,-0.2005211110398173,-0.5764399977788329,0.9153869982123376,0.5187453031539917,0.2208191603422165,-0.1453814655542373
1.9133527832031234,-0.4445658681161701,-0.5740843745633959,1.2884534181296825,0.5985711812973022,0.2506784796714782,-0.1299066096544265
1.923318115234352,-0.6380228859886526,-0.4797767360985279,1.4793313792943954,0.6360858082771301,0.2870924174785614,-0.1230114176869392
1.933283935546882,-0.7395806417122482,-0.4843509121462702,1.468117326840758,0.6311385035514832,0.2857582569122314,-0.1143975555896759
1.943249023437474,-0.8444301324576139,-0.5354629674851894,1.3735755873590707,0.5868304371833801,0.2511430084705353,-0.1001278087496757
1.953213867187472,-0.9198903009809551,-0.5664014188453554,1.3631950631201266,0.5158725380897522,0.2148115783929824,-0.0999406427145004
1.963179931640596,-1.0049877741605042,-0.6297428411602973,1.3852788846343755,0.4168686866760254,0.1801276355981826,-0.1196916997432708
1.9731450195312448,-1.0264954032219946,-0.6864987476050853,1.4759101726740598,0.2999990582466125,0.1661819964647293,-0.1417136490345001
1.9831101074218793,-1.0796386721275746,-0.8179843163415789,1.5495388879865406,0.1827579289674759,0.1811654716730117,-0.1498378813266754
1.9930761718750034,-1.0990103120736776,-0.9755524208396672,1.5519921263575551,0.056544117629528,0.2290410548448562,-0.1473955363035202
2.0030407714843648,-1.0753060497507452,-1.1091533742949369,1.4738801281511782,-0.0450357683002948,0.2677889764308929,-0.1373807191848755
2.0130058593749993,-1.030708783133328,-1.233203532333672,1.2241373055636882,-0.1168288439512252,0.3201158344745636,-0.1207633316516876
2.0229719238281234,-0.8725834831438958,-1.3438681390985845,0.8634218331754208,-0.1464458554983139,0.3637591898441314,-0.101389892399311
2.0329370117187437,-0.7614725939162075,-1.4289014610007404,0.4513602044314145,-0.1379099190235138,0.3970451653003692,-0.0889671742916107
2.0429018554687417,-0.6436705364868045,-1.4835302922889588,0.102138770481944,-0.101007305085659,0.3970957696437835,-0.0838379263877868
2.05286791992188,-0.5184203550085426,-1.524233766338229,-0.1850222208738327,-0.0569740310311317,0.372062623500824,-0.0894125625491142
2.062833007812472,-0.4243013709835708,-1.5452160563513635,-0.3865156840771436,-0.0179025288671255,0.3490510582923889,-0.1009088978171348
2.0727980957031207,-0.3346856897272169,-1.607689171399176,-0.5505751964211464,0.0128693506121635,0.3197330832481384,-0.1133946776390075
2.0827641601562448,-0.206718065983802,-1.7066808760270475,-0.6991676750421524,0.0241702068597078,0.2790197432041168,-0.1175361573696136
2.0927290039062427,-0.0772761319041252,-1.777872719581425,-0.8367009995102882,0.0165530405938625,0.2403633743524551,-0.1142484471201896
2.1026950683593526,0.0955417103044688,-1.797067249394953,-0.9891203429430724,0.0094916690140962,0.2002905309200287,-0.1027827411890029
2.1126599121093648,0.2036770908527076,-1.7919956452190875,-1.2619745765268802,0.0154338050633668,0.105798028409481,-0.0731531530618667
2.1226252441405933,0.297788329962641,-1.755945842194557,-1.4545061501175165,0.0242294259369373,0.0076304459944367,-0.0479947999119758
2.1325910644531234,0.3437174297057092,-1.6773647651717063,-1.5298948608398435,0.0262379925698041,-0.0801034495234489,-0.0235205851495265
2.1425556640624848,0.3471292839758098,-1.5153069480389356,-1.5815052210897207,0.0360565297305583,-0.1662495136260986,-0.0126801878213882
2.1525209960937417,0.3393400914043188,-1.3515131008937955,-1.6168845775067806,0.0606078170239925,-0.2590395212173462,-0.0117946714162826
2.1624868164062434,0.3148389796152711,-1.2236892695352437,-1.5318173533350228,0.1058434769511222,-0.3270721137523651,-0.0070840721018612
2.172451904296878,0.3283971109770238,-1.083234504662454,-1.3642138847738503,0.1649672091007232,-0.3756168186664581,0.0076571963727474
2.182416992187484,0.3670001056157052,-0.896487944214046,-1.268952014324069,0.2300711125135421,-0.4287788271903991,0.0229474697262048
2.192383056640594,0.3266433991774916,-0.7196531214490532,-1.1384282763570546,0.3147306442260742,-0.4891004860401153,0.029283819720149
2.202347900390592,0.2147425286158919,-0.6332990723371505,-0.9471791437923908,0.4167081415653229,-0.5200493335723877,0.0207025837153196
2.2123129882812407,0.0621283932633697,-0.5799465445950627,-0.7010831532746553,0.5267787575721741,-0.5388889312744141,-0.0009270152077078
2.2222790527343648,-0.1103043951503932,-0.6214616272881627,-0.4227420127123594,0.631696343421936,-0.5155817270278931,-0.0346815139055252
2.2322438964843627,-0.2827899366647005,-0.789188429968059,-0.1344821202039718,0.7192639112472534,-0.4598921537399292,-0.0733408108353614
2.242208984374983,-0.3814474409021437,-1.0446242035001516,0.1415098268836736,0.7859651446342468,-0.3768745064735412,-0.1018672585487365
2.2521750488281214,-0.3410875195935368,-1.3301979256644845,0.3310959946721792,0.8115566968917847,-0.2628761529922485,-0.1170937120914459
2.2621398925781193,-0.1503600728154182,-1.5759516786158083,0.3759019356042146,0.7792709469795227,-0.1495474725961685,-0.1161853075027465
2.2721047363281173,0.1515025208488106,-1.7562880797609686,0.2835328639864921,0.7077065110206604,-0.0609120838344097,-0.0814254954457283
2.282071044921878,0.4982068574108183,-1.866962331137061,0.1571107161194086,0.5851579904556274,0.0034549238625913,0.0018366393633186
2.2920358886718617,0.8094771847590804,-1.792416208718717,-0.0200578686445951,0.4067895114421844,0.0489265546202659,0.1171897500753402
2.302000976562482,1.0318486008182168,-1.341189859800041,-0.298113762524724,0.1995463371276855,0.0564699582755565,0.2241151332855224
2.311967041015592,1.1489293582357465,-0.6068041563823818,-0.6217202782243489,0.0220201071351766,0.0018891809741035,0.2985617220401764
2.3219318847656183,1.1546063809588551,0.1632370900452137,-0.920115780299902,-0.0886147916316986,-0.1215296909213066,0.3337905406951904
2.3318969726562386,1.032174471771717,0.903789207138121,-1.0774328326463698,-0.115676537156105,-0.2906702756881714,0.3310944736003876
2.3418630371093627,0.8207767235390842,1.5287942061215638,-1.0478022490143777,-0.0732936635613441,-0.4877894818782806,0.2841072678565979
2.351828124999983,0.5554978205803781,2.0115496657699343,-0.8516045541316271,0.0207713637501001,-0.687351644039154,0.1957693845033645
2.3617939453124848,0.3016946166861802,2.239791727428138,-0.5038952783107757,0.1633383631706237,-0.8737457990646362,0.0946198552846908
2.3717590332031193,-0.0005574146870523,2.2256690940514208,0.0674421356320381,0.3128335773944855,-1.0126277208328247,-0.0020662071183323
2.3817241210937397,-0.2970071164570748,2.0252213405087587,0.8020499573677777,0.4494785070419311,-1.046576976776123,-0.07882010191679
2.3916899414062414,-0.5111342896535992,1.7075538594692945,1.5986135922789573,0.5501335859298706,-0.9792270064353944,-0.1300675272941589
2.4016594238281215,-0.689691260036081,1.3256246263995766,2.2417811476796863,0.6152441501617432,-0.8369300961494446,-0.1468172073364257
2.4116242675781194,-0.7494961057227104,0.9181400963127612,2.593490891313553,0.6355931162834167,-0.6740258932113647,-0.1339685320854187
2.4215903320312435,-0.759772512000054,0.5794128761097789,2.699732420939207,0.6109588742256165,-0.5120689868927002,-0.1107590869069099
2.431555419921878,-0.7627628529224544,0.314040814974904,2.598758602583408,0.5570117831230164,-0.375108540058136,-0.0717838481068611
2.441520507812484,-0.7348516404289752,0.0871867005437612,2.3441098877757787,0.4840211868286133,-0.2655381262302398,-0.0145985884591937
2.451486572265594,-0.6825581932857632,-0.0056368368431925,2.102398980474472,0.3911680579185486,-0.1662891656160354,0.0445068255066871
2.461451416015592,-0.5669566415753216,0.0373699457123875,1.8308008844316004,0.281189888715744,-0.0867224410176277,0.1076482385396957
2.471416503906241,-0.3876586070345714,0.1484194601416587,1.5482447565227746,0.1593265682458877,-0.0577044710516929,0.150739848613739
2.481382568359365,-0.2766913275286555,0.3148512545749545,1.3148498421460388,0.0189670734107494,-0.0526212975382804,0.1756430715322494
2.4913476562499994,-0.1988310390610247,0.4633247829914093,1.231611002445221,-0.1493191570043563,-0.0441403612494468,0.1869481354951858
2.501312255859361,-0.1411972903357818,0.5938409221738576,1.2035171268612146,-0.3329558372497558,-0.028002405539155,0.1907287538051605
2.511278320312485,-0.0528277366830036,0.6920984673082828,1.1543968298614025,-0.5337463021278381,-0.0018228143453598,0.1902196854352951
2.5212434082031194,0.0421587143588811,0.7263000121176243,1.061139869493246,-0.7464936971664429,0.0396442003548145,0.1909216940402984
2.5312084960937398,0.1419565477378666,0.7855819299086928,0.8951064267277717,-0.9425787925720216,0.0728393197059631,0.1917490512132644
2.541174560546878,0.2196015860196203,0.8783654275462031,0.625810177886486,-1.105924367904663,0.0777358040213584,0.1892539411783218
2.551139404296862,0.3100814463572576,0.8621163035348057,0.3527507771193981,-1.2142688035964966,0.073702335357666,0.1983304917812347
2.561104492187482,0.4049856259431689,0.8205591352656483,0.0172480719208717,-1.2545204162597656,0.0261950008571147,0.1977555155754089
2.571070312499998,0.4582503292713314,0.8793290118813514,-0.2719353651732206,-1.2348636388778689,-0.0417885594069957,0.1815558671951294
2.581035644531241,0.4627214102707803,0.8918836652889848,-0.4231529316008091,-1.1604615449905396,-0.1132172048091888,0.1478996276855468
2.5910004882812387,0.4233988691858947,0.8522954590052366,-0.4019862249314784,-1.0464824438095093,-0.1603664010763168,0.1009485945105552
2.6009663085937405,0.3714370651498436,0.73236004280895,-0.2581131760478019,-0.9087061882019044,-0.1677638590335846,0.0415023118257522
2.610931640624983,0.3001478256355971,0.5641498405262828,-0.0617155746787786,-0.7639855146408081,-0.1458490192890167,-0.0253624431788921
2.6208967285156177,0.1635519646806642,0.3199371795371175,0.2468459321022033,-0.6269437074661255,-0.0761120170354843,-0.0924051254987716
2.6308625488281194,0.05538005151432,-0.029122049587965,0.5599889214545488,-0.5053322911262512,0.0344947576522827,-0.1393667757511139
2.6408273925781174,0.0575788402002304,-0.4175716243371367,0.736212918844819,-0.3858874142169952,0.1477150619029998,-0.1535414457321167
2.6507924804687377,0.0884825490405783,-0.7457251358166337,0.8148059785664081,-0.2785823047161102,0.2665851414203644,-0.1388168334960937
2.6607583007812394,0.1360160517729818,-0.9935907663553952,0.8261889578461646,-0.1797452121973037,0.3820574283599853,-0.1100794598460197
2.6707233886718598,0.1736767971254885,-1.2069640524446963,0.6985872448056936,-0.0816979855298996,0.4698528051376343,-0.0716712027788162
2.6806884765624943,0.2389262450188398,-1.389820911978185,0.5177618910998105,0.0009982269257307,0.5158559679985046,-0.0271476749330759
2.690654296874982,0.2493387718312442,-1.529516090655327,0.3705307639598846,0.0585750080645084,0.5488972067832947,0.0244720503687858
2.7006193847656164,0.1902786070320755,-1.5918784388050435,0.2625298234462738,0.0932440385222435,0.5716739296913147,0.0772300660610199
2.710584716796859,0.117872053925693,-1.6451406579151748,0.1405792680352926,0.1179894134402275,0.5858957767486572,0.1321582794189453
2.720550537109361,0.0448093019329011,-1.6804846507579088,-0.0194335992664098,0.1294071823358535,0.5932269096374512,0.1885541826486587
2.7305153808593587,-0.0980336732506751,-1.6967203307658434,-0.2098509571820497,0.1350103765726089,0.588948667049408,0.2477223575115203
2.7404807128906157,-0.1875649641592055,-1.663313151204586,-0.3587918108493089,0.1335640102624893,0.5879989862442017,0.2956297099590301
2.7504465332031174,-0.232353588630259,-1.5659738899588584,-0.5747749871760607,0.1099239140748977,0.577699601650238,0.3380268514156341
2.7604113769531153,-0.2620660053268074,-1.417081843869388,-0.8381389233589172,0.0775830149650573,0.5686693787574768,0.3762120604515075
2.7703762207031133,-0.2150768751367926,-1.258623512533307,-1.1025853940814734,0.0276486612856388,0.5961952209472656,0.4164508283138275
2.7803422851562374,-0.1000234588284045,-1.1207596409365534,-1.553928647378087,-4.36878763139e-05,0.5806293487548828,0.4530953764915466
2.7903073730468577,0.0358235199879854,-1.0093012534454464,-2.181200129988789,0.0030392846092581,0.4806864559650421,0.4814543724060058
2.800272460937478,0.1043227634575217,-0.9023094899743797,-2.69327345405817,0.0312192551791667,0.323976457118988,0.5056667327880859
2.8102385253906164,0.0951871977783739,-0.81521280580163,-3.0085674839645624,0.0838049724698066,0.1510983854532241,0.528814435005188
2.8202033691406143,-0.0195720578890293,-0.7571937475532293,-3.1576597288012502,0.1707241535186767,-0.0401964783668518,0.540772557258606
2.8301684570312347,-0.254854393447563,-0.680283234091103,-3.0715339354872704,0.284193605184555,-0.2170053273439407,0.5336231589317322
2.8401345214843587,-0.6103714204099029,-0.6299819106131792,-2.722979441013932,0.3788836300373077,-0.3362904489040375,0.5228940844535828
2.8500996093749933,-0.9938085007593036,-0.6376619437217712,-2.2401433173447844,0.4284397065639496,-0.3844814300537109,0.5170695781707764
2.8600644531249912,-1.241577392925322,-0.5841489647209644,-1.8229115924865007,0.4264423549175262,-0.3578538298606872,0.5126833319664001
2.8700305175781153,-1.3668302047520875,-0.3836091489806771,-1.446743114900589,0.3932800590991974,-0.2898918986320495,0.5087669491767883
2.8799956054687357,-1.381704971670359,-0.0930626068398356,-1.217936697357893,0.3347957134246826,-0.1944359540939331,0.5087389945983887
2.8899604492187336,-1.397491592736542,0.2161518108919262,-1.2636352032154798,0.2862448990345001,-0.1230131089687347,0.503096878528595
2.8999265136718577,-1.400628283327073,0.5781880104899406,-1.4778893637925383,0.2590718567371368,-0.1114786937832832,0.4641231298446655
2.909891357421884,-1.457598417044431,0.9734364515990018,-1.6997598445922135,0.2745355069637298,-0.1653549671173095,0.3931293785572052
2.919856445312476,-1.5657280985042452,1.2934832289904354,-1.8236819923371077,0.3125558495521545,-0.2546592950820923,0.2950278222560882
2.929822265624992,-1.6760775018401444,1.5463038515880705,-1.7452847474485635,0.3576266467571258,-0.3505560457706451,0.1833051592111587
2.9397875976562347,-1.7620831759057938,1.7567866769328713,-1.5376549734473228,0.3911387920379638,-0.4316650331020355,0.0687061473727226
2.9497524414062326,-1.8123595110729336,1.9188702130287885,-1.2714841631501912,0.3979333639144897,-0.5027061104774475,-0.0438709966838359
2.9597185058593567,-1.8459338638946408,2.055774007421732,-1.0090700750380754,0.3810744881629944,-0.5730233788490295,-0.1551799476146698
2.9696835937499912,-1.8768647164702412,2.2084563857048747,-0.8223439728558063,0.3348996937274933,-0.6574029326438904,-0.274616003036499
2.9796486816405974,-1.924347329265624,2.385859363746643,-0.6791068837881088,0.2820985317230224,-0.7527462244033813,-0.3994844555854797
2.9896145019531133,-1.9737407441183925,2.5875977416217326,-0.5780103158354759,0.2231007516384124,-0.8718799352645874,-0.5406321883201599
2.9995793457031112,-1.988354960404336,2.825789534886181,-0.5376572626590729,0.1695379316806793,-1.025875687599182,-0.7005230784416199
3.0095444335937316,-1.9365841488957405,3.0680256351053714,-0.4663035065412521,0.1194101497530937,-1.1787164211273191,-0.8820638656616211
3.0195102539062333,-1.861757455970347,3.1924528097629543,-0.3629290567845106,0.0794688537716865,-1.3151870965957642,-1.059187412261963
3.029475341796882,-1.7203014051005243,3.158859752240777,-0.2782213135749101,0.043911900371313,-1.4379370212554932,-1.232900619506836
3.039440429687474,-1.4987608869075777,3.079480510577559,-0.1334744044661522,0.0031769843772053,-1.527690887451172,-1.393898367881775
3.049406494140598,-1.3229144906580448,2.9693977953538297,0.0521048657685518,-0.0379679203033447,-1.569852352142334,-1.5438544750213623
3.059371337890596,-1.1502426327914,2.773988912761211,0.2225742451548576,-0.0935078784823417,-1.57315194606781,-1.664528250694275
3.0693366699218814,-0.9588788608711212,2.5235811965242028,0.396200042745471,-0.1479030698537826,-1.528032302856445,-1.7572532892227173
3.0793015136718793,-0.7799518881324679,2.2167297085314988,0.4650573058724403,-0.1906739622354507,-1.4592477083206177,-1.811267971992493
3.0892673339843526,-0.585867824402824,1.918966366879642,0.474116226118803,-0.2178466916084289,-1.3613663911819458,-1.824729084968567
3.0992324218750014,-0.4669426812276244,1.6624655944645403,0.4364145642340183,-0.2284857630729675,-1.254346251487732,-1.8003082275390625
3.1091975097655933,-0.3799398128181696,1.5147197958007454,0.3276262727349996,-0.2148233503103256,-1.1664551496505735,-1.7644912004470823
3.1191635742187316,-0.3282937236677855,1.4714172451689838,0.2455184828907251,-0.1877935975790023,-1.0872005224227903,-1.7317042350769043
3.1291281738281214,-0.2468472838090732,1.4689683907121418,0.1580471201866865,-0.1612189710140228,-1.0319545269012451,-1.7069462537765503
3.139093505859364,-0.1693562305126339,1.468999954894185,0.0498807599782943,-0.1461324244737625,-0.9969579577445984,-1.6951769590377808
3.14905932617188,-0.1396659891152754,1.4095382966220378,-0.0203483760237693,-0.1498717963695526,-0.9818544387817384,-1.685418725013733
3.159024414062472,-0.0694338939711451,1.29417442612499,-0.1293856738477945,-0.1767196506261825,-0.997110903263092,-1.66890287399292
3.1689895019531207,0.0095495167749002,1.1532447372168302,-0.2024438957959413,-0.2254445999860763,-1.0253705978393557,-1.653082251548767
3.178955322265594,0.1183039790695533,1.0075988334417345,-0.252656079685688,-0.2968729734420776,-1.06082284450531,-1.6304868459701538
3.1889204101562427,0.2347586770106106,0.8753516326829791,-0.2664437820196151,-0.365444004535675,-1.0972208976745603,-1.6092044115066528
3.198885498046863,0.3378432769753038,0.7498343247011303,-0.3037333559721708,-0.4123736917972564,-1.142820119857788,-1.576696276664734
3.2088515625000014,0.35926768473275,0.688897625440359,-0.3469143260508776,-0.4466643035411834,-1.210079312324524,-1.5470151901245115
3.2188164062499993,0.2941485121555626,0.7396434778153896,-0.2818441802471876,-0.4703586995601654,-1.2596566677093506,-1.5348656177520752
3.2287814941406197,0.0947484410349279,0.9588707506299018,-0.1147381398141384,-0.5076284408569336,-1.2860455513000488,-1.5663679838180542
3.2387475585937437,-0.1986691995628178,1.3152464402481914,0.1229886662870645,-0.5540582537651062,-1.2770580053329468,-1.64206063747406
3.248712646484364,-0.5213095005787909,1.643506626972556,0.2492658527255058,-0.6075252890586853,-1.256403923034668,-1.7654972076416016
3.2586772460937397,-0.906154548029974,1.9851769148901104,0.3447662081062793,-0.6625635027885437,-1.2048704624176023,-1.932089567184448
3.268643310546878,-1.0606957059223203,2.32668879737556,0.3655693421602249,-0.7082779407501221,-1.1605255603790283,-2.144644021987915
3.278608398437484,-0.9665727033093572,2.5197812197193503,0.2870850035101175,-0.7655710577964783,-1.130282640457153,-2.392338991165161
3.2885734863281186,-0.6230956582307815,2.516240478372574,0.1810369506299495,-0.855492115020752,-1.1104683876037598,-2.6400225162506104
3.2985395507812427,-0.1928987994678318,2.2245856827288866,0.1978086372107267,-1.011216163635254,-1.0360554456710815,-2.8689539432525635
3.3085043945312407,0.2607094030860811,1.667487222018838,0.3525876955121755,-1.2167714834213257,-0.8795439600944519,-3.037853479385376
3.318469482421861,0.5190812300700695,0.9948843132972716,0.511358453798294,-1.4621543884277344,-0.6075518727302551,-3.1519265174865723
3.328434326171859,0.5037395762924105,0.4056204897806048,0.7206108605653048,-1.706082820892334,-0.3362409472465515,-3.1564364433288574
3.3384006347656197,0.733637880725041,0.3442220182269811,0.2849117511242628,-1.9516174793243408,-0.2826602756977081,-3.011573553085327
3.3483654785156176,0.8182177597712725,0.3298357654780149,-0.1035690955460071,-2.2741847038269043,-0.2735954225063324,-2.857464551925659
3.358330566406238,0.7660676666215062,0.208382638195157,-0.0947112508296966,-2.635889768600464,-0.1626348048448562,-2.7809371948242188
3.368296630859362,0.7387070737481117,0.0375071622259914,-0.2282791787981986,-2.9839730262756348,-0.0568434558808803,-2.7030270099639893
3.3782617187499824,0.8135133084073662,0.1901296270154416,-0.6226648655980825,-3.335761547088623,-0.0111694447696208,-2.645685195922852
3.388226318359358,1.069624643113464,0.6873372442558408,-0.6350988152354955,-3.6832685470581055,0.0967797935009002,-2.580157518386841
3.3981879882812365,1.294932551015913,1.0255807725951076,-0.6775128925949335,-3.937608480453491,0.3007766008377075,-2.5114712715148926
3.4081528320312344,1.5292553938925266,1.3271022977367042,-0.8898352083265781,-4.007385730743408,0.55712890625,-2.5000877380371094
3.418117919921883,1.779124473208189,1.7060411168187857,-0.9759826289504766,-3.877863883972168,0.8473386168479919,-2.542801141738892
3.4280837402343565,2.042477887997031,1.977024734225124,-0.9675748660892248,-3.5416035652160645,1.2292494773864746,-2.6005356311798096
3.4380488281250052,2.3850766889363526,1.90556576416716,-0.853186270365119,-3.021894216537476,1.6870592832565308,-2.6028060913085938
3.448013916015597,2.7044629565924403,1.460350930622965,-1.0794231296807526,-2.375693082809448,1.9693986177444456,-2.5052244663238525
3.457979736328113,2.8959219325155017,1.1970299567990004,-1.8353326826423408,-1.659042477607727,1.9287055730819704,-2.333245038986206
3.4679448242187334,2.982435263842344,1.2519129089787602,-2.6317648001283405,-0.912680983543396,1.5778460502624512,-2.1379265785217285
3.4779099121093537,3.089673403289914,1.2827788796246051,-3.2335575580894944,-0.1522707492113113,1.0002758502960205,-1.9668176174163816
3.487875976562478,3.265162656664848,1.2233752351500091,-3.446546228775382,0.570067286491394,0.3137082755565643,-1.8634247779846191
3.497840820312476,3.610919044852257,1.2105503864988685,-2.971741435870528,1.1998169422149658,-0.2857490181922912,-1.8253493309021
3.5078061523437327,3.65225935550034,1.2457488333910702,-1.8594132309317588,1.681152582168579,-0.4348255395889282,-1.820471167564392
3.5177719726562344,2.916726235613227,1.3483961379170415,-0.7411480371594429,1.986902475357056,-0.284728467464447,-1.7744396924972534
3.5277368164062324,2.1305171137169,1.2840610283896323,-0.0220423204600811,2.1782517433166504,-0.0396199487149715,-1.669821858406067
3.537701904296881,1.5743249541968107,1.076108671370521,0.5343506223291158,2.3487417697906494,0.2222678512334823,-1.5344160795211792
3.547666992187473,1.469110137270391,1.25293874489516,0.7109335161596536,2.532970905303955,0.3770515918731689,-1.4564533233642578
3.557632812500003,2.057584271714091,1.735465656484663,0.1523655674189329,2.7323532104492188,0.2916123270988464,-1.5036131143569946
3.567597656250001,2.5948934515878554,2.2032404046222567,-0.5331845011591911,2.959059476852417,0.0338120199739933,-1.6515414714813232
3.577562988281244,2.8131454496294257,2.249428155301511,-0.5930798746734858,3.1910057067871094,-0.2266547232866287,-1.8171628713607788
3.5875288085937314,2.996531009212136,1.840950084132701,-0.0880664059877395,3.30358624458313,-0.3869549632072449,-1.8988375663757324
3.5974938964843517,2.7581971771284937,0.608690554650873,0.2898515456140041,3.013725996017456,-0.3903433084487915,-1.7820366621017456
3.6074589843750005,2.237868212019652,0.0036003625795245,0.9427782784849404,2.6427114009857178,-0.3415867686271667,-1.5683866739273071
3.6174250488281245,1.800039689334482,0.211861858613044,1.617747331815958,2.3540918827056885,-0.2837477028369903,-1.3907817602157593
3.6273898925781225,1.384858321134746,0.52422524189502,1.614720092949271,2.1119184494018555,-0.2947487533092499,-1.2826225757598877
3.6373547363281205,1.1896676844026892,0.7776622428253293,1.263396133762598,1.886318802833557,-0.3680232465267181,-1.232180953025818
3.647321044921881,1.3359371999688443,0.7247703183323144,0.9660498484790324,1.6935203075408936,-0.4672392904758453,-1.1939809322357178
3.6572856445312425,1.3294694652594623,0.2976166266575455,0.6098807873487472,1.5619254112243652,-0.5810761451721191,-1.110345482826233
3.667250732421863,1.0856387162599712,-0.0802875886797905,0.1916390086650848,1.47342050075531,-0.7225780487060547,-0.9812045097351074
3.677216796875001,0.9908793154396116,0.0763479111433029,0.0103881230235099,1.4058952331542969,-0.8267316222190857,-0.88506680727005
3.687181884765593,1.068827793647349,0.3454080131411552,-0.0120499187558889,1.3330440521240234,-0.8218934535980225,-0.8133565187454224
3.6971467285156194,1.073864180379361,0.5306105590179562,-0.1933703625023365,1.259560227394104,-0.8017529845237732,-0.7736160755157471
3.7071130371093517,1.025012617318332,0.6497159541308879,-0.4628033894658088,1.189669132232666,-0.8089406490325928,-0.7494783997535706
3.717077880859364,1.0813970601022245,0.5473883830785751,-0.7081599597930908,1.1085087060928345,-0.7865993976593018,-0.7072545289993286
3.7270429687499984,0.977853245127946,0.4236886459127068,-1.068971293771267,1.0609910488128662,-0.798175036907196,-0.6393541097640991
3.7370090332031225,0.7495864874199032,0.4404851746737956,-1.3688129030019045,1.0865955352783203,-0.8621186017990112,-0.5754368901252747
3.7469738769531205,0.4181062426704913,0.6442836999490856,-1.3969757521688937,1.1587388515472412,-0.947230339050293,-0.5406670570373535
3.756938964843741,0.0668197568168398,1.007293128493428,-1.2501263178229332,1.2156587839126587,-1.0277864933013916,-0.5556159019470215
3.766905029296879,-0.3025627412902191,1.3045803770661353,-1.2401099507212638,1.250031590461731,-1.1503616571426392,-0.6065779328346252
3.776869873046863,-0.5316246314313262,1.4340166120573878,-1.3098393205076455,1.259079933166504,-1.3163710832595823,-0.6644787788391113
3.786834716796861,-0.6678025957677513,1.474268542946875,-1.438652747425437,1.244317650794983,-1.4529200792312622,-0.7068537473678589
3.796799804687481,-0.7733383882768452,1.4723250076636671,-1.4591811561912298,1.2253655195236206,-1.5512855052947998,-0.7344412207603455
3.8067658691406194,-0.6911785759843886,1.5563798399224875,-1.395283561298251,1.188598394393921,-1.6601758003234863,-0.757323145866394
3.8167309570312398,-0.2861258396217599,1.5734651224970817,-1.2181634918510913,1.113666534423828,-1.757418155670166,-0.7621599435806274
3.8266958007812377,-0.0545180278575047,1.4708844534665346,-0.7242559390693902,0.989186942577362,-1.7459865808486938,-0.7320218682289124
3.836661865234362,-0.110134518476203,1.2279285145401957,-0.1031108303844928,0.8240624070167542,-1.5773706436157229,-0.6515968441963196
3.846626953124982,-0.3625252982892096,1.010894952377677,0.334337753072381,0.698657751083374,-1.3810818195343018,-0.5552469491958618
3.8565920410156167,-0.7405200414542108,0.97146310569942,0.5853361286789178,0.6324033737182617,-1.216010332107544,-0.4886292815208435
3.866558105468741,-1.1584406253594906,1.1098229441195726,0.9726163673877716,0.6465303301811218,-1.0580936670303345,-0.4537056088447571
3.8765229492187387,-1.4277797634944318,1.1690198139756918,1.5962836880266666,0.6591062545776367,-0.7815448045730591,-0.4424090087413788
3.8864877929687367,-1.5486409162335095,1.0370604902476073,2.0575819336265324,0.645853579044342,-0.4032489657402038,-0.4425159394741058
3.8964536132812384,-1.5345532080397009,0.8057254310101271,2.1776322083741424,0.6037420630455017,0.01583032310009,-0.4264517724514007
3.906418945312481,-1.4715665905117987,0.477902174398303,1.878128452795744,0.5644843578338623,0.3302543759346008,-0.3700205087661743
3.9163837890624933,-1.220062895731628,0.055310383811593,1.3014549385219811,0.5267862677574158,0.5130338072776794,-0.2790139019489288
3.926349609374995,-0.9129858553547412,-0.2255833638429641,0.8268605734974145,0.481381356716156,0.5851365327835083,-0.185369536280632
3.9363149414062377,-0.8432626230482011,-0.2841898665904999,0.4662158282577991,0.4221182763576507,0.5812330842018127,-0.1193636208772659
3.946280029296858,-0.8999740327641368,-0.0901525646120309,0.1146691662311553,0.3652553260326385,0.4484878778457641,-0.0619804337620735
3.9562458496093598,-0.8999520401280373,0.1830196488797664,-0.1156546701371669,0.3249992728233337,0.304218053817749,-0.0128717441111803
3.9662109374999943,-0.9516551201626656,0.1674795499205589,-0.0183393742889165,0.2626806497573852,0.2544852197170257,-0.0001511904411017
3.9761760253906147,-1.013942430314794,0.2273784305661916,0.0773234781771898,0.1792360842227935,0.2642161548137665,-0.0172044746577739
3.9861418457031164,-0.9773420807354152,0.3514952241003513,0.0503688357561826,0.072288766503334,0.2448626011610031,-0.0552827455103397
3.9961069335937367,-0.878783360697329,0.3742804718822241,-0.1377110191226005,-0.0267081223428249,0.1950585544109344,-0.0867402702569961
4.006072021484357,-0.6424001512248069,0.2560854696124792,-0.2113923414051532,-0.1245900616049766,0.1431224048137664,-0.1050821840763092
4.016037841796859,-0.3622719811152666,0.2058691940695047,-0.2578402043253183,-0.2131524235010147,0.1219002082943916,-0.1230396181344986
4.026002685546857,-0.1178029707448557,0.1302291389346122,-0.2265910795807838,-0.279167115688324,0.1203273758292198,-0.1256752014160156
4.035968017578114,-0.0588930646039545,0.0640998394668102,-0.173107911196351,-0.3041880428791046,0.1451887786388397,-0.1259468346834182
4.045933837890615,-0.0323956278985366,0.1661105996549129,-0.2397381459236144,-0.2994533777236938,0.1947371214628219,-0.1301111876964569
4.055898681640613,0.0347631607474759,0.1613444081664085,-0.2926601732939481,-0.2788918912410736,0.3048777282238006,-0.1264029890298843
4.065863769531234,0.1319098950957879,0.1136737254530191,-0.4394225138783454,-0.2309518158435821,0.4036157131195068,-0.1086294427514076
4.075829833984358,0.2770874507067725,0.1574170055896043,-0.7070382622867822,-0.1802303194999694,0.4267535209655761,-0.084417849779129
4.085794921874992,0.4656683504428714,0.2656599381655454,-0.8464818042904138,-0.1339117884635925,0.3990437090396881,-0.0565369762480258
4.095759765625004,0.5749735784880816,0.4566676631897687,-0.8918845420718192,-0.0850331857800483,0.3242834508419037,-0.0596558041870594
4.105725830078114,0.4575527023959904,0.6142717157840728,-0.794416101488471,-0.0331791006028652,0.2472338378429412,-0.0923234820365905
4.115690917968735,0.3100232864292338,0.7346095753014087,-0.6079121176242828,0.034473180770874,0.1797839701175689,-0.1470586210489273
4.125656005859355,0.267109844712913,0.8399491876512766,-0.36628713504076,0.1279317736625671,0.110912837088108,-0.2142037153244018
4.135622070312493,0.217354336815793,0.8194359764546155,-0.1115636014312505,0.224565103650093,0.0429899767041206,-0.2634617984294891
4.145586669921883,0.1901701051563024,0.6493266625523567,0.0879103386431932,0.3118577599525451,-0.0258403085172176,-0.2927807569503784
4.155551757812475,0.1842867279398255,0.3961696476072073,0.3636579555809497,0.3866225481033325,-0.0693472996354103,-0.2920148372650146
4.165517822265613,0.1352910254340618,0.2128951471835374,0.6682312695086002,0.4349984526634216,-0.0894173830747604,-0.2862539887428283
4.175482910156234,0.0520954586193896,0.0950011736869812,0.8404056992471217,0.4465709626674652,-0.1130279079079628,-0.2798250913619995
4.185447753906232,-0.0608016564379446,-0.0822463215321302,0.8967869271606206,0.4049727618694305,-0.1306250691413879,-0.2615159451961517
4.195413818359356,-0.1464384606585838,-0.3122118459820747,0.9136299254119395,0.3235239684581756,-0.1294695138931274,-0.2380297780036926
4.205378906250004,-0.2804248149685561,-0.4176280306994915,0.8965957885026932,0.228838250041008,-0.1200570836663246,-0.2109026759862899
4.215344726562478,-0.4077118360366672,-0.3499965099751949,0.8243079664051532,0.1635399460792541,-0.142024427652359,-0.1931851953268051
4.225309814453112,-0.5222507634842768,-0.2932663224935531,0.8014432236462831,0.1108129024505615,-0.1557992398738861,-0.1751680076122284
4.235274902343733,-0.5833937624394894,-0.2849655271381139,0.8252244967281818,0.0578159987926483,-0.1365166306495666,-0.1624519526958465
4.245240966796857,-0.5545187829477712,-0.262311212259531,0.7683335657268762,-0.0012209708802402,-0.1086039319634437,-0.1520747542381286
4.255205810546883,-0.5118742943659425,-0.265569337272644,0.6120329969465732,-0.0762422233819961,-0.1181636154651641,-0.1393951773643493
4.265171142578112,-0.4352851948779076,-0.2710878084331751,0.3907569749087095,-0.1459139436483383,-0.1540510207414627,-0.1225486546754837
4.275136962890613,-0.3591891030712053,-0.2535316934764385,0.247628022390604,-0.2150027304887771,-0.1904449760913849,-0.0978137403726577
4.285101806640597,-0.2941703586611897,-0.2350216387957334,0.1505073723316192,-0.2746217548847198,-0.2245538681745529,-0.0821861922740936
4.295066894531232,-0.2458432213330641,-0.1370680450439453,0.0672211863577365,-0.320410817861557,-0.2311840802431106,-0.0712869390845298
4.305032714843733,-0.2733935463585891,0.0011199439406394,-0.0347679465204477,-0.3454967737197876,-0.2245068550109863,-0.070992387831211
4.314997802734354,-0.2858853819293901,0.1257569619566202,-0.1561772346615791,-0.3397991955280304,-0.2300939112901687,-0.0868051722645759
4.324962646484352,-0.3236230649756267,0.2012444568783044,-0.3031336365133524,-0.3148303925991058,-0.2298374027013778,-0.1074352860450744
4.334928955078112,-0.315437822291255,0.2677840907126665,-0.416168479540944,-0.2733977437019348,-0.24160698056221,-0.1441128700971603
4.344893798828124,-0.2430686785858124,0.2624187642872333,-0.4673977315187454,-0.2057904303073883,-0.2476729601621627,-0.1796667128801345
4.354858886718745,-0.1477854730870574,0.2024777980655431,-0.4385264418214559,-0.1214374601840972,-0.2570611536502838,-0.1963918954133987
4.364824951171883,-0.0662776949625462,0.1797486643850803,-0.353034270235896,-0.036565639078617,-0.2641584277153015,-0.1960783749818802
4.374790039062475,0.0382656159104779,0.1381067404419183,-0.2194119817316532,0.0298562627285718,-0.2532975375652313,-0.1947292238473892
4.384754882812473,0.0699217140207067,0.1087619880139827,-0.1102846675366163,0.0775349363684654,-0.2426775395870208,-0.1950140595436096
4.394720947265597,0.0714747886816039,0.1273860244631767,-0.0863473271101713,0.1242747455835342,-0.2568426430225372,-0.1992106735706329
4.404685302734364,0.1382900976521894,0.1529758082717657,-0.0784592042088508,0.1533221006393432,-0.2821044921875,-0.2064875662326812
4.414651611328125,0.1505683452712372,0.128030752107501,0.0198421800673007,0.171533316373825,-0.3009388744831085,-0.2106594145298004
4.424616455078123,0.1058784684669226,0.1359884331136941,0.1506593480229377,0.1814458221197128,-0.2918666005134582,-0.2235074639320373
4.434581298828121,0.106117757115513,0.1041693995267152,0.270420284435153,0.1770726442337036,-0.2562990188598633,-0.2359281778335571
4.444547607421882,0.1227008623216301,0.0755652363330125,0.3850257377803325,0.1572972685098648,-0.2056044936180114,-0.2413927465677261
4.45451245117188,0.1257026014208793,0.044607203489542,0.3949661170363426,0.1120589450001716,-0.1574239134788513,-0.2453256994485855
4.464477539062472,0.1851705067707225,-0.0003530512213706,0.2981236993968487,0.0591101944446563,-0.1388750076293945,-0.2530413866043091
4.474443603515596,0.2586300395287573,-0.0661427434712648,0.1796457885324955,0.0064307358115911,-0.1475550532341003,-0.2586382925510406
4.484408447265594,0.2949565406028181,-0.0754027392476797,0.091994977608323,-0.0186128951609134,-0.1794413626194,-0.2564233541488647
4.494373535156242,0.2874188385743648,-0.1182423485428094,0.1250754094332456,-0.0260803997516632,-0.2012332081794738,-0.2404795140028
4.504339599609352,0.2360741435233503,-0.1917664344370365,0.2677776609718799,-0.0199970416724681,-0.1805616915225982,-0.2147764265537262
4.514304687500001,0.1463818898994475,-0.2421282559305429,0.3801958334058523,-0.0003279978409409,-0.125679537653923,-0.1922881603240966
4.524269531249999,0.1076642924377694,-0.2837807012677192,0.4590834921598434,0.0302848313003778,-0.0557769685983657,-0.1620748937129974
4.534235595703123,0.0832754819167777,-0.3223486245930194,0.4342623546361923,0.0635775402188301,0.0126289846375584,-0.1282905638217926
4.544200439453121,0.090671400854364,-0.392591204598546,0.3253554051935672,0.0842081978917121,0.0658986270427703,-0.0870727524161338
4.554166259765594,0.1283725147498771,-0.3868839328676462,0.1755506281733512,0.085228718817234,0.0882159173488617,-0.0539787150919437
4.564131347656243,0.1919560021923854,-0.2816477808922529,-0.0046066170126199,0.0836813002824783,0.076707437634468,-0.0368921235203743
4.574096435546878,0.2121667963763698,-0.1282978786110878,-0.1046282492101192,0.0882100015878677,0.0376362055540084,-0.0302688423544168
4.584062500000002,0.1270045873975381,-0.0091816698431968,-0.0865443109869956,0.0920075476169586,0.0031227620784193,-0.0332246348261833
4.59402734375,0.0289417245849967,0.0490910709053277,-0.00117488899827,0.0837365686893463,-0.0023058254737406,-0.0423986911773681
4.603992675781242,-0.0217960175488144,0.0833218418091535,0.0856827257215976,0.0666047409176826,0.0131950043141841,-0.0513788014650344
4.613958496093744,-0.0057830769134685,0.1045125138759612,0.0595125116765499,0.048322670161724,0.0036094889510422,-0.0582348480820655
4.623923583984364,0.023728373850882,0.0998024364888668,-0.001096563065052,0.0285623967647552,-0.0347629450261592,-0.0724660605192184
4.633888427734362,0.0582634249309077,0.0869710119664669,-0.016260814449191,-0.0003624642267823,-0.078963965177536,-0.0782379284501075
4.643854492187472,0.0820716590849682,0.0141167881578207,-0.0002501753687858,-0.0275975912809371,-0.1176969930529594,-0.0803774148225784
4.653819580078121,0.1114520673481747,-0.0355184726268053,-0.0083124857932329,-0.0330799743533134,-0.1554574221372604,-0.0737578645348548
4.663785644531245,0.0644041927082464,0.0128559744417667,0.0979243676573038,-0.0134621579200029,-0.1778552234172821,-0.0596112646162509
4.67375073242188,-0.0583128900958225,0.0845943459630012,0.2801788773834705,0.0234955940395593,-0.1611518859863281,-0.0601367093622684
4.683715332031241,-0.1573298752954229,0.1148269871413707,0.489778490152955,0.0604913346469402,-0.099696010351181,-0.0759338587522506
4.693681396484365,-0.2814497375695035,0.0712228232145309,0.6261690743267536,0.0813968852162361,-0.0131744351238012,-0.0886640399694442
4.703646484375,-0.3136265716182068,0.0026548984229564,0.6045593000650406,0.095311015844345,0.0640523508191108,-0.0976627022027969
4.71361157226562,-0.2458959013683721,-0.0745984371274709,0.4335509914964437,0.0921900570392608,0.0922152772545814,-0.1003085523843765
4.723577392578122,-0.1633381027342751,-0.1390945824354887,0.2830827821314334,0.0796010717749595,0.0886756926774978,-0.1041832193732261
4.733542480468742,-0.0761943645494058,-0.1612391942262649,0.1604530122846365,0.0590734258294105,0.0757311359047889,-0.1049496755003929
4.74350854492188,-0.0143103379685431,-0.198990540471673,0.0828495481222867,0.0431697629392147,0.0488596148788929,-0.0997002571821212
4.753473388671878,-0.0047062049295753,-0.2371048748105764,-0.0243505974024534,0.0216476954519748,-0.0030560481827706,-0.0912686958909034
4.763438720703121,0.0026660408714786,-0.2565747144341468,-0.0670540130972862,-0.0098069757223129,-0.0547564066946506,-0.0858660116791725
4.773404541015594,-0.003325710356608,-0.2785240959137678,-0.059691375374794,-0.0531334094703197,-0.0850866138935089,-0.0846156552433967
4.783369628906243,-0.0207964851174503,-0.3036100218534469,-0.1252536886096,-0.079375721514225,-0.1160171180963516,-0.0812445431947708
4.793334472656241,0.0222537712536752,-0.2838473367631435,-0.2625613876283169,-0.0844815298914909,-0.1648035645484924,-0.0758313983678817
4.803300537109365,0.0616157675661146,-0.1854413230687379,-0.3395686394631862,-0.0787485316395759,-0.2363204210996627,-0.0797694325447082
4.813265625,0.016130502600409,-0.0494908838778734,-0.2681593537658452,-0.0676974803209304,-0.307908833026886,-0.097633920609951
4.823231689453124,-0.0322795272381976,0.0316419234544038,-0.0598866056859493,-0.067644752562046,-0.3309246897697449,-0.135968267917633
4.833196533203122,-0.1086400421347469,-0.0101508071362972,0.1807061112403869,-0.0814092978835105,-0.2983757853507995,-0.1661551892757415
4.84316137695312,-0.1747632406553253,-0.1215910744488239,0.3397942649126053,-0.0914053246378898,-0.2299402207136154,-0.1805856823921203
4.853127197265593,-0.1713436049375682,-0.2035509802550077,0.3549959256976843,-0.0809414982795715,-0.1610762029886245,-0.1796860694885254
4.863092529296878,-0.1127922664433717,-0.2487292616307735,0.2899795559078454,-0.0604264587163925,-0.1214047744870185,-0.1662411987781524
4.873057617187484,-0.0576428818797692,-0.2325011804074049,0.2707283274710178,-0.0371115431189537,-0.0791657119989395,-0.1465098410844802
4.8830234375,-0.0279120162110775,-0.1959925276994705,0.2970616231232881,-0.0170159731060266,-0.0256313718855381,-0.1261677294969558
4.892988525390592,-0.0235987926544621,-0.1671054559111595,0.2913222026884555,-0.0075753340497612,0.0348370298743248,-0.1045055836439132
4.902954589843745,0.0169606698142364,-0.1345370652616024,0.2048416045874357,-8.88132490217e-05,0.0932625159621238,-0.0814773142337799
4.912919433593743,0.1548298021079972,-0.0812836139798164,-0.0024678514182567,0.0170009583234787,0.1125102490186691,-0.0630085617303848
4.922884765625,0.2642168997503817,-0.0199935712367296,-0.1966653123944997,0.0388820506632328,0.0817662999033927,-0.0489232651889324
4.932850585937473,0.282141007769294,0.0515852258086204,-0.301901464369893,0.0666175484657287,0.0310714300721883,-0.0338119566440582
4.942815429687485,0.3028466362655163,0.1085743564873933,-0.3242845610916614,0.0882018133997917,-0.0122157987207174,-0.0256610307842493
4.952781738281232,0.3170184425462037,0.1798608925879001,-0.2965174332439899,0.1146129146218299,-0.0580448061227798,-0.0261004511266946
4.962746582031244,0.2577338944066316,0.2793880192667246,-0.1882441055297851,0.1418894827365875,-0.1077124625444412,-0.0347532741725444
4.972711425781242,0.1715765003779903,0.3089659959286451,0.0149380414128303,0.1568772196769714,-0.1211206763982772,-0.0459113866090774
4.982677490234352,0.1336981302194297,0.2235316920101642,0.2080570595026016,0.1529645770788192,-0.1010490506887435,-0.0550934523344039
4.992642578125,0.1291326854674145,0.0836094265788793,0.3396598248779773,0.1345328390598297,-0.0704173743724823,-0.0509058982133865
