time,ax,ay,az,gx,gy,gz
0.0,-0.1687555612057447,0.7253875734478235,-3.827441734883189,1.2751617431640625,0.5843546986579895,0.2390393614768982
0.009965087890620339,-0.4832382747292518,1.203486731722951,-3.7650153815865512,1.5079612731933594,0.153823122382164,0.2452454417943954
0.019929931640618292,-0.6977209833651781,0.946572702331841,-2.81037773848176,1.761934757232666,-0.2255676090717315,0.289859265089035
0.029895996093742383,-0.4894768768578768,0.3106342214018106,-2.2333786455154416,1.9321328401565552,-0.4949929416179657,0.3382434546947479
0.03986108398437693,0.0745849931240081,-0.2315095390215516,-1.5448673890441655,1.9557952880859373,-0.602681040763855,0.4052728414535522
0.04982690429687864,0.9604949177656322,-1.134065697233379,-0.8690145386159419,1.7897708415985107,-0.5923939943313599,0.4675778150558471
0.05979223632812136,1.3623898842170834,-1.4093229003056884,-0.5387491495490074,1.4416017532348633,-0.6424648761749268,0.47293820977211
0.06975708007811932,1.1917930790588258,-1.0867889822736383,-0.8445505439668893,0.9806604385375975,-0.8185129761695862,0.4229078590869903
0.0797231445312434,0.7550348159536718,-0.7140405422642827,-0.8825006276547909,0.5166581273078918,-0.968558430671692,0.3280724287033081
0.08968798828125557,-0.0428911202866584,-0.2989700870931148,-0.6669926676243543,0.1057027727365493,-1.0554763078689575,0.2274796813726425
0.09965405273437966,-0.7792153905514627,0.1926432172715663,-0.7539326999306678,-0.2246498465538025,-1.1074817180633545,0.1467185169458389
0.109619140625,-1.1771410149805248,0.5313847582608461,-0.8146925813198089,-0.4133758842945099,-1.03517746925354,0.1043066903948783
0.11958520507812409,-1.5865093129873276,0.7537839391097426,-0.8507219260782003,-0.4540580809116363,-0.8566255569458008,0.1069948822259903
0.12955004882812204,-1.7658181246504188,1.0062745991006492,-0.8889432279229164,-0.4060438871383667,-0.6400916576385498,0.1247057095170021
0.13951489257812,-1.7369518033891915,1.0894462187841534,-0.976692238524556,-0.3173694312572479,-0.4375844001770019,0.1581214517354965
0.1494809570312441,-1.6791000645317136,0.9539818095445632,-0.8094657865822315,-0.2157437354326248,-0.2169490754604339,0.2258044779300689
0.15944604492187864,-1.6074518555119632,0.7540598334416747,-0.4023164797991514,-0.1746298521757125,-0.0260821916162967,0.2948964536190033
0.16941186523438034,-1.6208394526124,0.4786439326763153,-0.3365262030273676,-0.1824603676795959,0.1023392677307128,0.3355604410171509
0.17937695312500068,-1.632434613338113,0.21096008746773,-0.2549953362882137,-0.1868671029806137,0.1814809590578079,0.348886102437973
0.18934204101562102,-1.671998561963439,0.0237634451642632,-0.1576087287694215,-0.1657737493515014,0.1946440637111663,0.3455271124839782
0.19930810546875932,-1.731518087902665,-0.0347173853769898,-0.2056669494956731,-0.1336440443992614,0.1120652928948402,0.3176787197589874
0.20927294921874307,-1.741152762210369,0.007176467500627,-0.1646919650286436,-0.1022457182407379,-0.0294957235455513,0.2780897319316864
0.21923901367188137,-1.7084746275760232,0.0577715132281184,-0.0691957013010978,-0.0812435001134872,-0.1772013008594513,0.2271221578121185
0.2292041015625017,-1.8455800820209085,-0.0101905546247959,-0.0100315646708011,-0.0213877614587545,-0.25180184841156,0.1743143200874328
0.2391699218750034,-2.1280939782232045,-0.077863868664205,0.219173496800661,0.0835466384887695,-0.2379318624734878,0.1200486794114112
0.24913525390623192,-2.428857086212933,-0.0485112251907587,0.2290115847259759,0.1851034462451934,-0.2502585053443908,0.0735020786523819
0.2591000976562441,-2.62976982691884,-0.0838727536901831,0.3226782949388027,0.2783212661743164,-0.2606261968612671,0.0241824649274349
0.26906616210935397,-2.664088860628009,-0.0905649448052048,0.6545896976470947,0.3491783142089844,-0.2700271904468536,-0.0493017360568046
0.27903100585938034,-2.618248315951228,-0.0965443114757537,0.8877396973520517,0.3803282380104065,-0.3131538927555084,-0.1373860538005828
0.28899707031250443,-2.496927290615439,-0.0868903479456901,1.1896382391124962,0.388981819152832,-0.3511632978916168,-0.233884572982788
0.2989619140625024,-2.4078803491577503,-0.0790896110668778,1.597248733666539,0.3717303872108459,-0.3526909053325653,-0.3352322280406952
0.3089270019531227,-2.422849662491679,-0.0814744603767991,1.8858745368778704,0.3112415373325348,-0.3409253656864166,-0.4443174302577972
0.3188930664062326,-2.3115794910490512,-0.0755193513646721,2.1397230412185198,0.2042988240718841,-0.2923828363418579,-0.549876868724823
0.32885791015624477,-2.0768997975587844,-0.1445978560268878,2.39244867900908,0.0865765810012817,-0.2294268906116485,-0.6252041459083557
0.33882421875000546,-1.8536184270478784,-0.2026359112367033,2.4496973374068736,-0.0257196016609668,-0.1451671421527862,-0.6776753067970276
0.3487890625000034,-1.5739287944860756,-0.2453250061452388,2.5745091274678704,-0.1069162040948867,-0.0453015863895416,-0.6875007748603821
0.3587548828125051,-1.3626032347068189,-0.3003571575373411,2.4486381837427613,-0.1831606328487396,0.0130333611741662,-0.666144073009491
0.36871997070312545,-1.1616183786127716,-0.3810325764909386,2.137233562490344,-0.2424622476100921,0.0035290252417325,-0.631537914276123
0.3786806640625002,-0.9186760298203676,-0.5045762463122606,1.933319009619951,-0.2744060456752777,-0.0028556373436003,-0.6191057562828064
0.38864672851563853,-0.7648112368196248,-0.5335170941144227,1.739287552860379,-0.2933557331562042,-0.0447485521435737,-0.623632550239563
0.39861181640624466,-0.8156575538944453,-0.6117746382713317,1.4887281531929968,-0.3266361951828003,-0.0990679860115051,-0.6354623436927795
0.4085776367187606,-0.9462454431388526,-0.6449930172622204,1.4806588285058735,-0.3815774321556091,-0.1183500736951828,-0.6534591913223267
0.4185427246093525,-1.0330758045256137,-0.624019787338376,1.2644260613322258,-0.4630738794803619,-0.144371286034584,-0.6726009249687195
0.42850781250000125,-1.024076797772944,-0.6049748951286077,1.010598599779606,-0.5406813621520996,-0.1584910005331039,-0.697351336479187
0.43847363281250296,-0.9503393613889812,-0.6248237971976399,0.8554863640010356,-0.5965214371681213,-0.1578363925218582,-0.7168837189674377
0.4484389648437599,-0.8309478428110479,-0.6579884001746773,0.5611702401936054,-0.6321716904640198,-0.1876015812158584,-0.7233689427375793
0.4584047851562332,-0.7005795876666903,-0.6933283013641833,0.2571399471014738,-0.6208497881889343,-0.2064240127801895,-0.7168992757797241
0.46836938476562295,-0.6024092824243009,-0.7214052258133887,0.1858656859606504,-0.5436329245567322,-0.1800300478935241,-0.6934373378753662
0.4783347167968799,-0.6525497162520885,-0.6472501485392451,0.0979331354856491,-0.4503757059574127,-0.1588978618383407,-0.6519373059272766
0.48830053710935317,-0.6144659231819212,-0.6117196932137012,-0.055661096945405,-0.3836967051029205,-0.1694999188184738,-0.6027238965034485
0.49826562500000193,-0.5184807434262707,-0.677390727519989,-0.1510743585646152,-0.3018183410167694,-0.1823557913303375,-0.5527216792106628
0.5082316894531118,-0.4652817257454618,-0.7067582763016224,-0.1541395913541317,-0.2121732383966446,-0.1793179214000702,-0.5108572244644165
0.5181967773437606,-0.4263340093223378,-0.7479638546541333,-0.26514789699018,-0.1473931670188903,-0.1865052580833435,-0.4777067005634308
0.5281625976562339,-0.316763810198009,-0.8183788686171174,-0.423679001301527,-0.0683633312582969,-0.1708202958106994,-0.4621650278568268
0.5381276855468826,-0.1088950398091226,-0.8069386061921715,-0.4352402597576379,0.0428308323025703,-0.1245577335357666,-0.460688054561615
0.548092773437503,0.0875120235079899,-0.7756964957103133,-0.5125625688910485,0.1248108893632888,-0.1059479936957359,-0.4415727257728576
0.5580585937500047,0.2501550201175734,-0.7682710218846798,-0.6982429614126682,0.149809718132019,-0.1185756400227546,-0.3887582719326019
0.5680236816406392,0.4412955412086099,-0.8203533835604786,-0.6836240689516067,0.1415134817361831,-0.123777225613594,-0.3150242865085602
0.5779897460937633,0.5980950359543785,-0.8740700684398413,-0.8385334756344557,0.1066833212971687,-0.1318569779396057,-0.2253436595201492
0.5879548339843552,0.869557267190516,-1.1111661754220723,-0.9366273546397684,0.0753348693251609,-0.0995788872241973,-0.1128942742943763
0.5979196777343532,1.1831263730004429,-1.3554612539976834,-1.026206503278017,0.037483625113964,-0.0811274424195289,0.0077882013283669
0.6078857421875057,1.3753073795877395,-1.5344325042694806,-1.3205050914287566,-0.0263871308416128,-0.1183279156684875,0.1344127357006073
0.6178508300781118,1.476721927448362,-1.7916931551411748,-1.5466092642754314,-0.1132479906082153,-0.1818594932556152,0.2533742785453796
0.6278166503906419,1.2771220229066909,-1.9622668716847893,-1.9584961209744212,-0.1934912204742431,-0.2694115936756134,0.3227503895759582
0.6377817382812339,0.6107820470374077,-1.85116796515584,-2.505147421950101,-0.2519457340240478,-0.3305234313011169,0.3076774179935455
0.647747558593764,-0.231510050478205,-1.566414619463682,-2.745940045362711,-0.270757794380188,-0.2997448742389679,0.2127233892679214
0.6577124023437619,-1.0375208743009716,-1.1739034943640232,-2.633888368153572,-0.2543133199214935,-0.1786413788795471,0.0395992770791053
0.6676777343750047,-1.906505090843886,-0.455971497619152,-2.7891233535289763,-0.2715550661087036,-0.1420119851827621,-0.2050371915102005
0.6776435546874922,-2.4485722788996998,0.3385270214557647,-3.071554978275299,-0.3287048935890198,-0.2110174149274826,-0.4895655810832977
0.6876086425781125,-2.7338679147750136,0.8356976676866412,-3.141241093441844,-0.3551731705665588,-0.2954170405864715,-0.724101722240448
0.6975747070312366,-2.7827596637159586,1.024962640696764,-2.9471447547525167,-0.3146827220916748,-0.2961995005607605,-0.8618212342262268
0.7075397949218853,-2.595254101593792,0.8772536669120192,-2.507605336496234,-0.1841706037521362,-0.1723400652408599,-0.8807269930839539
0.7175046386718833,-2.3798349888905883,0.626733430211246,-2.123971929857135,0.0070361122488975,-0.0121892793104052,-0.8394831418991089
0.7274707031249932,-2.234838196673989,0.514269665069878,-2.0974293753683564,0.2242101281881332,0.1054892018437385,-0.7887903451919556
0.7374357910156419,-2.0435791272372006,0.4631143551111221,-1.9387655845880507,0.414215475320816,0.1694570034742355,-0.7641425132751465
0.7474016113281152,-1.7388246115237471,0.3930944779455662,-1.714348926436901,0.5772635340690613,0.1480098217725753,-0.7634333372116089
0.757366943359358,-1.3222579264454544,0.3009673983901739,-1.5037275694042442,0.679126501083374,0.0371871627867221,-0.7910894751548767
0.7673327636718739,-0.9018449412025512,0.2900856466308236,-1.2414818235963585,0.726570725440979,-0.1371461302042007,-0.8572998642921448
0.7772978515624942,-0.6233002408921718,0.3208616009056568,-0.9956143811374902,0.7266327738761902,-0.3511505722999573,-0.9468315839767456
0.787262451171884,-0.4025276383318006,0.352092605471611,-0.7157675121873617,0.6961594223976135,-0.555451512336731,-1.0494598150253296
0.7972285156249939,-0.2406438625916838,0.4472311418026685,-0.3013859160631895,0.6448839902877808,-0.6959686279296875,-1.159240961074829
0.8071936035156426,-0.2085122193915769,0.5768477017968893,0.0132604635894298,0.582933247089386,-0.7939687967300415,-1.270749568939209
0.8171596679687525,-0.2064069907406344,0.7332596219971775,0.0865203455895185,0.5167454481124878,-0.8955612182617188,-1.378873348236084
0.8271247558593586,-0.1487946683959104,0.8360419510796666,0.1029863272219896,0.4664543569087982,-0.981595814228058,-1.473561406135559
0.8370895996093566,-0.0531334233650006,0.9749266901567578,0.1441319920808076,0.4311195313930511,-1.032823085784912,-1.5438292026519775
0.8470554199218725,0.0723275513197295,1.0885887251719832,0.2653705998301506,0.406426727771759,-1.0415476560592651,-1.593278169631958
0.8570207519531152,0.2436481772405095,1.1506874539494514,0.3245844208210706,0.3883302807807922,-1.031623125076294,-1.6221758127212524
0.8669865722656169,0.4934701842777431,1.2457459107816218,0.4056277963042259,0.3738463222980499,-0.983503520488739,-1.642909288406372
0.8769516601562373,0.7254143883895129,1.3236696929395195,0.5995803426086902,0.3551192283630371,-0.8848733901977539,-1.6475450992584229
0.8869177246093756,0.9129879742465912,1.424153681951761,0.6824257990777493,0.3272713720798492,-0.7796422839164734,-1.628928780555725
0.8968828124999959,1.1669161196947098,1.483839796629548,0.6722165397524833,0.2786945104598999,-0.6705003380775452,-1.5788946151733398
0.9068476562499939,1.5246176510892808,1.534506154027581,0.7524941915601492,0.2215069383382797,-0.5490434169769287,-1.4995349645614624
0.916813720703118,1.9050316572904584,1.585669062770903,0.6995785939306021,0.1747652739286422,-0.4665155112743377,-1.39318585395813
0.9267788085937525,2.217124845328927,1.6236358053326605,0.4647884258031844,0.1436659544706344,-0.4245640635490417,-1.2662612199783323
0.9367446289062542,2.486744334775209,1.7004700386881828,0.3355295932054519,0.131651371717453,-0.4147207736968994,-1.1261253356933594
0.9467099609374969,2.678745454750955,1.676562216617167,0.0483762006342411,0.1220190674066543,-0.4712721705436706,-0.9746363162994384
0.9566757812499986,2.7064666976302862,1.6566621688827872,-0.2430313422501087,0.1188405752182006,-0.5419979691505432,-0.8390777111053467
0.9666406249999966,2.553726743941009,1.7032067701756952,-0.3276660202234983,0.0981504172086715,-0.5773292183876038,-0.737415075302124
0.9766057128906169,2.382485503399372,1.7497022716298698,-0.4614069666713476,0.0603945069015026,-0.5919589996337891,-0.6678493022918701
0.9865715332031186,2.2408004660792646,1.7476561527550218,-0.6595587182313204,0.0097643136978149,-0.5684769749641418,-0.6225101947784424
0.9965366210937532,1.92067214788422,1.7226079284772275,-0.8530711195528506,-0.0418520085513591,-0.4773356020450592,-0.6064755320549011
1.0065026855468773,1.5209659967139362,1.777315377959609,-0.7749480154305696,-0.0944962352514267,-0.2686262726783752,-0.6349068284034729
1.0164677734374976,1.2627696724273263,1.7871248243123292,-0.9178039962261916,-0.1520015895366668,-0.0270038060843944,-0.6845266222953796
1.0264326171874956,1.2201569306906312,1.7544143948435782,-0.88860069809556,-0.1834923326969146,0.2534097135066986,-0.7194337248802185
1.0363986816406197,1.2588628742471335,1.8006041913494466,-0.7321160049200057,-0.1867211461067199,0.5150447487831116,-0.6896889209747314
1.0463637695312542,1.4431431907124816,1.7211384404465555,-0.6547954493522644,-0.1735192984342575,0.7167633771896362,-0.5982578992843628
1.0563295898437417,1.6759794482931494,1.6589876892209052,-0.4570686452060937,-0.1358129382133484,0.8590214848518372,-0.4683393836021423
1.0662946777343763,1.9011764431670304,1.6384592804551124,-0.1283423022747039,-0.0773907825350761,0.966112732887268,-0.3168298006057739
1.0762607421875003,2.0362692426152527,1.5714605046764014,0.168734518417716,-0.0069539039395749,1.0082553625106812,-0.1589435040950775
1.0862258300781207,1.9972985837079584,1.48144910210073,0.3827560392826795,0.0444903224706649,0.9923812747001648,0.0103969080373644
1.0961904296874962,1.8500854306161405,1.3010986724302172,0.6229770002871752,0.0728572458028793,0.9575234055519104,0.156476616859436
1.1061567382812427,1.5795026490956543,1.0912287182867526,0.9582236848980188,0.0666370615363121,0.9394510388374328,0.2594341337680816
1.1161215820312549,1.2244860459361224,0.7450742706924677,1.1764409038871526,0.0349888578057289,0.9462903141975404,0.3253388404846191
1.126087646484379,0.9710095897782594,0.5079653042286634,1.116327503708005,-0.0259748734533786,0.908613622188568,0.3280719518661499
1.1360527343749993,0.8841096702866256,0.2931616930752992,0.9138584734708072,-0.1020382121205329,0.8513423800468445,0.2779033482074737
1.146018554687501,0.907975772107765,0.0927621625885367,0.8244114267796278,-0.1736001223325729,0.7918753623962402,0.1932763755321502
1.1559836425781214,0.8846963110681623,-0.0847381383478641,0.6501292111068964,-0.219932734966278,0.7271403074264526,0.1163983717560768
1.1659487304687417,0.7654447124175727,-0.2852808766975999,0.4553863912075758,-0.2466542273759842,0.6901133060455322,0.0736765936017036
1.1759145507812434,0.6266613878883421,-0.5575836138784885,0.2745025853127241,-0.2775365114212036,0.6948955655097961,0.0784931853413581
1.185879638671878,0.5164633757218718,-0.7168553074240684,0.1630833607882261,-0.3242538273334503,0.726524829864502,0.1059236302971839
1.195845703125002,0.4637677044533193,-0.9113859458774328,-0.218498374018073,-0.3904086053371429,0.7181451916694641,0.1354604810476303
1.2058107910156224,0.3698918815344572,-1.0561182419389483,-0.5789911435663699,-0.4428510367870331,0.7151055932044983,0.1585811078548431
1.2157756347656203,0.154033646761626,-1.2032733812332153,-0.9078414051383732,-0.4952095746994018,0.7478755116462708,0.1575033366680145
1.2257416992187586,-0.1736088464558124,-1.4478592594489454,-1.2446440870195628,-0.555397629737854,0.8407170176506042,0.1144736558198928
1.235706787109379,-0.5340053160227834,-1.5088666858583688,-1.344266490766406,-0.5955197811126709,1.035666584968567,0.0303662326186895
1.2456726074218807,-0.8535372757598757,-1.4616425778687,-1.6089847641676664,-0.6393268704414368,1.1264727115631104,-0.0536089725792408
1.2556379394531234,-0.9524811957232654,-1.6173223844021558,-2.1685808869123457,-0.693472683429718,1.1465905904769895,-0.1052620410919189
1.2656037597656393,-0.8429869479119777,-1.5913228507488966,-2.395808510830998,-0.7421438097953796,1.0999420881271362,-0.1728091239929199
1.2755688476562455,-0.7660575836189091,-1.6811209028348326,-2.786930227398872,-0.7692289352416992,0.9914494156837464,-0.2606031596660614
1.2855336914062434,-0.932581294119358,-1.7839672370642423,-3.548961478111148,-0.8120013475418091,0.8305457830429077,-0.3845469951629638
1.2954995117187593,-1.3233574121199547,-1.6005620959982274,-4.096178596276045,-0.8865302205085754,0.6964539885520935,-0.5704484581947327
1.3054645996093797,-1.8253825126446783,-1.2641112962946297,-4.642306750160455,-1.0078318119049072,0.5726736187934875,-0.7891941070556641
1.3154306640625038,-2.2609140104338525,-1.013254082724452,-4.932290397721529,-1.1463351249694824,0.482633501291275,-0.961264431476593
1.325395751953124,-2.716777079242468,-0.8564964178264141,-5.211953142276406,-1.2737085819244385,0.3891481459140777,-1.0540210008621216
1.335360595703122,-3.057462740036845,-0.6581696019604801,-5.222451739937067,-1.3430588245391846,0.3671514987945556,-1.0747190713882446
1.345326660156232,-3.0312779129445557,-0.538227756023407,-5.018030991110205,-1.324168086051941,0.3911899924278259,-1.0237722396850586
1.3552917480468807,-2.9317993015825747,-0.3973527199119329,-4.849404024720192,-1.2143265008926392,0.4064118266105652,-0.9232197403907776
1.365257568359354,-2.84270735193938,-0.1775708819545805,-4.543018692934512,-1.021572828292847,0.4127693176269531,-0.8139784932136536
1.375223388671884,-2.843393580637872,0.0765673991128802,-4.212181056937575,-0.7749728560447693,0.3545669913291931,-0.7195504903793335
1.3851892089843574,-2.896007272711396,0.2918928421832621,-3.851105519065261,-0.4937069714069366,0.2702187001705169,-0.6666436195373535
1.3951540527343553,-2.901407378189265,0.4649032843545079,-3.37497035433948,-0.1914611011743545,0.1349751353263855,-0.643301784992218
1.405119140625004,-2.9315277911648154,0.6278308700591325,-2.950702154973149,0.1105616837739944,-0.0402273051440715,-0.6382442712783813
1.415085205078114,-2.9764371924713253,0.683683105662465,-2.533043729135394,0.4081449210643768,-0.2557311058044433,-0.6331989169120789
1.4250502929687627,-3.020168489909172,0.7994520498290657,-2.1285551659941677,0.7024874091148376,-0.506518542766571,-0.6545643210411072
1.4350163574218726,-2.9875466155067083,0.9596934651896356,-1.8563661183208229,0.9885730147361756,-0.7879917621612549,-0.6930374503135681
1.444981445312493,-2.92907572183758,1.1056761997036637,-1.4381576573848724,1.253224492073059,-1.025821566581726,-0.7615827918052673
1.4549460449218827,-2.885317536392808,1.2184124981760978,-0.881226369935274,1.4540566205978394,-1.1707401275634766,-0.8445903658866882
1.464911865234356,-2.73230841037333,1.255119303804636,-0.2224965037435293,1.5605276823043823,-1.2251921892166138,-0.9108096957206726
1.4748771972656414,-2.4079466923922297,1.273125792877376,0.3031505876481533,1.5786627531051636,-1.2446916103363037,-0.9402818083763124
1.4848430175781147,-2.180933003485203,1.2769076495036482,0.7446569220632314,1.5225130319595337,-1.263642430305481,-0.945432722568512
1.4948081054687634,-2.1817370133444665,1.3320268946573135,1.1079986513018607,1.424755334854126,-1.285754919052124,-0.9750726222991944
1.5047731933593553,-2.274128589054942,1.409308871780336,1.5830641409695148,1.3071553707122805,-1.2606711387634275,-1.0497515201568604
1.5147392578124936,-2.203370606873184,1.439987795421481,1.9979156926929948,1.184119701385498,-1.272208571434021,-1.2122708559036257
1.5247041015624916,-1.912181090653688,1.5857155322611332,1.9564836121082303,1.0530095100402832,-1.433081030845642,-1.4728204011917114
1.534670166015644,-1.655571451036632,1.718700107383728,1.8508119913250207,0.8850164413452148,-1.606213927268982,-1.7688316106796265
1.544635253906236,-1.3448777545325457,1.6265221744239329,2.019530727651716,0.688033401966095,-1.719941258430481,-1.9877368211746216
1.554601074218752,-0.9874627849943935,1.5225807384341954,1.986540896719694,0.4785851538181305,-1.7937837839126587,-2.120158672332764
1.5645664062499947,-0.7001385659009218,1.507210150822997,1.918486766669154,0.2954934239387512,-1.797512173652649,-2.213619470596313
1.5745312499999926,-0.643663083832711,1.4406801615998148,1.5825234582215546,0.1428564637899398,-1.7719112634658811,-2.2939085960388184
1.5844970703124943,-0.8569020760178565,1.2631325143903491,1.4371207155525685,0.0512273088097572,-1.6557356119155884,-2.407655954360962
1.5944624023437655,-1.0011357749074696,1.1498913351356983,1.9305629889100788,0.235841616988182,-1.517620086669922,-2.557896137237549
1.6044282226562387,-1.033414827221632,1.239014556699991,1.9894424633800984,0.7027395963668823,-1.6472578048706057,-2.7137155532836914
1.6143930664062367,-1.4274888177238405,1.2689078829213976,0.9608972880214453,1.0632187128067017,-1.939907550811768,-2.7867660522460938
1.6243579101562347,-1.389007842029631,1.3350474115222692,0.6308072555214166,1.334364652633667,-2.2556517124176025,-2.8420326709747314
1.6343242187499953,-0.8714316096950322,1.5841411225512625,0.8061743438214063,1.5691063404083252,-2.39113187789917,-2.8673694133758545
1.6442890624999933,-0.5580403446700424,1.33589467600137,1.58525492901206,1.7507418394088743,-2.331983089447021,-2.8316307067871094
1.6542551269531174,-0.5842568820748478,1.045673712553084,1.7179694550216198,1.841732382774353,-2.139148712158203,-2.747613906860352
1.664220214843752,-0.8283509581856429,0.8624652631029486,1.873495532298088,1.840948462486267,-1.772619605064392,-2.6266355514526367
1.674185058593764,-1.0168810410499571,0.765913352842629,2.473116791439056,1.760404348373413,-1.2661516666412354,-2.479086399078369
1.684151123046874,-0.9838292507976292,0.6380953667029738,2.682529941725731,1.5878344774246216,-0.7717164158821106,-2.316387176513672
1.6941162109374943,-0.8851439087051898,0.5103866861566901,2.287975328099728,1.3517199754714966,-0.4616211354732513,-2.160573720932007
1.7040822753906184,-0.7675163310598582,0.4012701856166124,1.8413456593215465,1.1325020790100098,-0.3406864404678345,-2.047520637512207
1.7140471191406448,-0.6637875879727304,0.444926956513524,1.8989292487621303,1.00622296333313,-0.2669169008731842,-2.0104308128356934
1.7240124511718733,-0.5463755527742207,0.6365738562241197,2.5341098970621823,0.989400327205658,-0.148597776889801,-2.0329785346984863
1.733978271484375,-0.4719515223655849,0.6918629049867391,3.0763807909965517,1.0163583755493164,-0.0037785349413752,-2.0521366596221924
1.7439431152343587,-0.3703291769731789,0.4877539985880255,2.9835347495168447,1.0372382402420044,0.0976189374923706,-2.025315046310425
1.7539094238281194,-0.2030377700358629,0.1460971546739339,2.5434610782533884,1.0165067911148071,0.0983150824904441,-1.918152928352356
1.763874023437495,-0.2431103988356888,-0.0561538488984107,2.310796816238761,0.9306684136390686,0.1468445211648941,-1.7074836492538452
1.7738398437499967,-0.4349750329501927,-0.0734016285583376,2.4202052854627367,0.792499303817749,0.2764182388782501,-1.4405523538589478
1.7838051757812536,-0.3999775154575705,0.109263215534389,2.260552483645081,0.6693962812423706,0.4093115925788879,-1.2241259813308716
1.793770263671874,-0.2775309932231903,0.2826373764514923,2.288272265219688,0.5342552065849304,0.58295077085495,-1.1015629768371582
1.8037360839843757,-0.3187466545782983,0.3355833692193031,1.9524387206315996,0.3966322839260101,0.6154680848121643,-1.066619634628296
1.813701171874996,-0.2900568589277565,0.2792629315823316,1.438895324009657,0.2697968482971191,0.5109496116638184,-1.0912234783172607
1.8236672363281201,-0.1097315636985003,0.1371148067951202,1.1577718592524529,0.1918477118015289,0.3584340810775757,-1.1092216968536377
1.833632080078118,0.1025241165377199,-0.0987251626461744,1.1254244178771973,0.1868420392274856,0.2361321151256561,-1.1035643815994265
1.8435971679687526,0.4439667331792414,-0.2803431280344724,1.0406365951687098,0.2521194815635681,0.0974137559533119,-1.0703495740890503
1.8535632324218767,0.876307472103089,-0.4031877096757292,0.7716004585683345,0.3630827367305755,-0.0453948006033897,-1.027925968170166
1.8635280761718747,1.3484813319824636,-0.5387044336244463,0.627520488935709,0.4886431097984314,-0.2019381821155548,-0.945913553237915
1.8734943847656211,1.7802318499282002,-0.7076362281799315,0.379375749194622,0.6146447062492371,-0.3756897151470184,-0.8547165393829346
1.883459228515619,2.196235640426725,-0.8317921846807003,0.3081798139870166,0.7136114835739136,-0.5262812972068787,-0.7876145243644714
1.8934243164062536,2.445353901375085,-1.0103764814615248,0.26374913610816,0.7417123317718506,-0.6473994851112366,-0.7058980464935303
1.9033901367187553,2.297039362912625,-1.2840689194351431,0.0667272653609514,0.690696120262146,-0.7756702303886414,-0.5972356796264648
1.913355468749998,1.9246575642585757,-1.526528599277139,0.0318874226480722,0.5769831538200378,-0.8208419680595398,-0.5088107585906982
1.9233212890624998,1.543957434592396,-1.7226386158764362,-0.1222434008777141,0.4180044829845428,-0.8412486910820007,-0.4512122869491577
1.9332858886718753,1.3313752988807857,-1.746962325271964,-0.49034722995162,0.2554661631584167,-0.809237539768219,-0.4249548614025116
1.943251220703118,1.229088790491223,-1.693315490758419,-0.6747165398746728,0.1256801486015319,-0.7513613700866699,-0.4152367413043976
1.9532170410156198,1.3089296583168208,-1.6111124238461254,-1.124182893383503,0.0457112789154052,-0.7287420630455017,-0.4058123528957367
1.9631821289062543,1.50028531999588,-1.5148089353889227,-1.6262521253108977,0.0471199266612529,-0.7175974249839783,-0.3794526159763336
1.9731481933593784,1.7060560221269725,-1.4183061249673363,-1.9054069203436372,0.1255468279123306,-0.6103290319442749,-0.3385451138019562
1.9831132812499987,1.875849986469745,-1.4025152661174536,-1.9628373650491235,0.2529877424240112,-0.4435636699199676,-0.2809227705001831
1.9930781249999967,2.07922517176643,-1.2760013483136892,-2.362400746747851,0.386037677526474,-0.3505612909793854,-0.2465094178915023
2.003044189453121,2.17648011572957,-1.1192524512439963,-2.6988217358350752,0.5192043781280518,-0.3132151663303375,-0.2695246338844299
2.0130092773437553,2.158240256292373,-1.0791086569041013,-2.675876913577318,0.6297359466552734,-0.3069490194320678,-0.3112534284591675
2.022975097656243,2.420358430197835,-0.99084059086442,-2.811200160780549,0.6983946561813354,-0.3808265924453735,-0.3559169173240661
2.0329404296874998,2.564201960726082,-0.8959025455415248,-2.965256165504456,0.6854716539382935,-0.4508687853813171,-0.3705882728099823
2.0429052734374977,2.4683923932656646,-0.9064069884210824,-2.81323078982532,0.5800203084945679,-0.4168558120727539,-0.278185486793518
2.0528710937499994,2.6090418039277194,-0.7515823374122381,-2.757722253093123,0.3563182353973388,-0.3708712756633758,-0.1314053684473037
2.0628359374999974,2.606496795620024,-0.4675175585061311,-2.782133640772104,0.0333870463073253,-0.3047747611999511,-0.0073079979047179
2.072802246093758,2.475354925754666,-0.3166290779024362,-2.6993711864113807,-0.318986713886261,-0.2573364078998565,0.1142416000366211
2.082767089843742,2.299828555239737,-0.201183666601777,-2.702591317501664,-0.6271273493766785,-0.2142643332481384,0.2614690363407135
2.092731933593754,2.194209833687544,-0.0856739578932523,-2.7069296389669177,-0.798187255859375,-0.1455968618392944,0.3879340291023254
2.1026982421875005,1.7957551438830792,0.2135568259626626,-2.702217223492265,-0.8619287610054016,-0.0472551174461841,0.5045168995857239
2.1126630859374984,1.4290990293994543,0.5062544086575508,-2.6475094817489384,-0.8283596038818359,0.0990722700953483,0.6337832808494568
2.1226291503906225,1.219290450054407,0.5900760166823864,-2.4610201109319925,-0.712905764579773,0.2945008873939514,0.7653698921203613
2.132594238281243,0.9362330946251748,0.8210878353148698,-2.374839957082272,-0.5782371759414673,0.5103200078010559,0.8319090008735657
2.142559082031255,0.5868574930272996,1.0921896722733977,-2.254085333457589,-0.482219785451889,0.7336574196815491,0.8567674160003662
2.152525146484379,0.3835864987574517,1.222528116801381,-2.290550731545687,-0.4294010698795318,0.9217506647109984,0.8544078469276428
2.1624902343749994,0.2888482137903571,1.2298843247830866,-2.276318208053708,-0.3996992707252502,1.0697888135910034,0.8404555916786194
2.1724562988281235,0.1879237875342368,1.1313204901784657,-2.195015304851532,-0.4024095833301544,1.1942042112350464,0.8282676339149475
2.1824211425781215,0.0871782249763608,0.9974591322213412,-2.0984575493723154,-0.4554299414157867,1.2833619117736816,0.8253607153892517
2.1923864746093784,0.0356762935370206,0.9333768284112216,-2.0010832168132064,-0.5402212738990784,1.3131985664367676,0.8293724656105042
2.20235229492188,0.0119048111967742,0.89660163372159,-1.824734716260433,-0.6322177052497864,1.320715069770813,0.853040874004364
2.2123168945312557,0.1593167017310857,0.8956929944440722,-1.6174480566084384,-0.7038069367408752,1.2683138847351074,0.891139805316925
2.2222834472656388,0.3307404592327773,1.0446838247328996,-1.7327268791705368,-0.7417405247688293,1.0977909564971924,0.8968265056610107
2.232248046875,0.3342372153073549,1.3309005209758875,-1.5713275259464978,-0.7353358864784241,0.9391854405403136,0.8917555809020996
2.242213867187502,0.0745442227222025,1.5469997248977423,-1.1416250265717505,-0.706955075263977,0.8987035155296326,0.8569643497467041
2.2521791992187588,-0.2572838856168091,1.7264739562556146,-0.6739595840275288,-0.6626678109169006,0.941409707069397,0.7996107339859009
2.262144287109379,-0.5346772239349782,1.877222443866729,-0.3865525089561939,-0.6155116558074951,1.0282630920410156,0.7192918658256531
2.272110107421881,-0.6443776618428528,2.0067317440941927,-0.1512123057305812,-0.5556499361991882,1.1025625467300415,0.6356262564659119
2.282075195312501,-0.5414648382484912,2.081061885674297,0.0628173984408378,-0.4961502254009247,1.145424723625183,0.5649176836013794
2.2920412597656394,-0.4003906263031065,2.1179151140362023,0.2924070753157138,-0.4453011453151703,1.1516685485839844,0.5191590189933777
2.302006103515623,-0.2908563387423754,2.164826210553944,0.4931289696246385,-0.4153765141963959,1.1364868879318235,0.4978273212909698
2.3119711914062435,-0.1982753779396414,2.21033036288321,0.753908150011301,-0.3812651336193084,1.1208876371383667,0.5309088230133057
2.3219372558593534,-0.1398898244664073,2.187149978303909,1.0412854144662618,-0.3567110896110534,1.0994346141815186,0.6021150946617126
2.3319020996093798,-0.110046474866569,2.2116738864466545,1.2407646152377128,-0.3443281948566437,1.0560104846954346,0.6683495044708252
2.3418671875,-0.1331587626457214,2.3277125874653457,1.3652940812259913,-0.3488226234912872,0.9710423946380616,0.7123742699623108
2.351833251953124,-0.3039367695897817,2.401345978952944,1.548708282381296,-0.377830296754837,0.8801218271255493,0.7480491399765015
2.3617983398437588,-0.5604948251500725,2.4154499076291915,1.7742150738567113,-0.4214336574077606,0.8010158538818359,0.792209267616272
2.371764160156232,-0.8091562822416424,2.3785195223778484,2.0211019224911926,-0.4695124924182892,0.7550632953643799,0.8260298371315002
2.381732910156245,-0.9959200860857964,2.2734841536715624,2.3234160593152047,-0.508015513420105,0.7300845980644226,0.8623630404472351
2.391698974609355,-1.153377423685789,2.1128227593332527,2.4220710793346165,-0.535070538520813,0.6827402114868164,0.8771012425422668
2.401663818359353,-1.4148486779898404,1.9686323150634764,2.3532225840359926,-0.543168306350708,0.6134248375892639,0.9055436253547668
2.4116289062500016,-1.681755693607032,1.7809201244533062,2.398384498798847,-0.5369458198547363,0.5884105563163757,0.961495578289032
2.4215949707031257,-1.8573957536295056,1.4892279194086788,2.54179811347723,-0.5082675218582153,0.6233778595924377,1.0914767980575562
2.4315600585937602,-1.860177785563469,1.2081556003168226,2.569228556716442,-0.4816340804100036,0.641979455947876,1.2345370054244995
2.441524902343758,-1.599390129609406,1.0585378703013062,2.433316111448407,-0.4407135546207428,0.563409149646759,1.3166956901550293
2.4514909667968823,-1.369997728872299,0.9659978260308504,2.242245842581988,-0.3845464289188385,0.352848470211029,1.3186389207839966
2.4614560546875026,-1.182415594382584,0.8004729173094034,2.0713234587311744,-0.3090406060218811,0.0408554673194885,1.2615214586257937
2.4714218750000043,-1.1464575612947343,0.5364525630444288,2.2007827823370696,-0.2023040205240249,-0.2450335323810577,1.191327452659607
2.481387207031233,-1.278353172136843,0.192186997936666,2.3688585445851085,-0.0881042331457138,-0.4642246961593628,1.1575629711151123
2.4913518066406226,-1.4688891879960897,-0.0871527982741594,2.5427596519857643,-0.0024276757612824,-0.542738139629364,1.1388928890228271
2.501317871093761,-1.465491654512286,-0.3605217033818363,2.8763790276557204,0.0485529974102973,-0.5077465772628784,1.0988844633102417
2.511282714843759,-1.4149924703747032,-0.6070908643692732,2.8809476507455107,0.0695525556802749,-0.4414383769035339,1.032352089881897
2.521248779296883,-1.2589745179280638,-0.7975278037682175,2.81526317243576,0.0689244195818901,-0.3701724708080292,0.9665449261665344
2.5312138671875033,-0.9013073271945118,-0.9961246687471866,2.6924077771395445,0.0575982630252838,-0.3040831983089447,0.8931199908256531
2.5411787109375013,-0.6114464292302727,-1.2108113755226135,2.666831437334418,0.0483303181827068,-0.2306587845087051,0.8359146118164062
2.5511450195312335,-0.4376753779500723,-1.3971180832490324,2.5700743598908184,0.0154991373419761,-0.1749113649129867,0.8089516758918762
2.5611098632812457,-0.1543392055794596,-1.493480023895204,2.2984604817569254,-0.0433602519333362,-0.1490080952644348,0.7815576791763306
2.5710759277343556,0.172385296010226,-1.557638023290038,2.0359715748429297,-0.1076771914958953,-0.1585643142461776,0.728836178779602
2.5810410156250043,0.457736899856478,-1.5188035579830408,1.852445145484805,-0.1689331382513046,-0.2045638263225555,0.652384877204895
2.591006103515639,0.7663602198272943,-1.416805949537456,1.5280512787997722,-0.2160404622554779,-0.2826993763446808,0.5646145343780518
2.600971923828112,1.013193438578397,-1.388224874958396,1.2229296833395955,-0.236019879579544,-0.3544153273105621,0.4983344078063965
2.610937011718761,1.1350867108441889,-1.40458242778033,0.9827379484295844,-0.2265749722719192,-0.4005767107009887,0.4769862294197082
2.620903076171885,1.1357866758070885,-1.2917650268957015,0.7789116583645344,-0.2143021374940872,-0.4117199778556824,0.457823097705841
2.630867919921883,1.023455451004207,-1.075399573253095,0.5450707537859678,-0.2152504920959472,-0.379543125629425,0.4130364656448364
2.6408330078125033,0.8430652738451957,-0.9007441403537988,0.4440115952342748,-0.2026925981044769,-0.3065880835056305,0.3559767007827759
2.650798828125005,0.6976654537856578,-0.8002768102154135,0.2788543507814407,-0.1647417545318603,-0.2461929023265838,0.3056743741035461
2.6607639160156396,0.6945270096294581,-0.7282596217527986,0.1190296995282173,-0.112487182021141,-0.2116624265909195,0.2555173933506012
2.6707299804687636,0.6288859320700169,-0.6290370309785008,0.0226689279258251,-0.0683684572577476,-0.1586090624332428,0.2009870409965515
2.6806948242187616,0.5824057743154466,-0.6027984278723597,-0.0070171852856874,-0.0228350963443517,-0.0887959375977516,0.1313707381486892
2.6906599121093535,0.6983351697407663,-0.6176677879631519,-0.0899123261153698,0.0053808288648724,-0.0302913468331098,0.0493877157568931
2.700625976562492,0.9591413842648268,-0.6488099452018737,-0.1163771391928195,0.0131136765703558,0.0014107030583545,-0.0213598180562257
2.710591064453112,1.2625402475856244,-0.7364432204693555,-0.1511123524874448,0.0219436548650264,-0.0542901083827018,-0.0937075167894363
2.7205568847656423,1.4914049711868167,-0.8238190138444303,-0.1436667126566171,0.0207704156637191,-0.0912733748555183,-0.1525018066167831
2.7305217285156402,1.7207304441675544,-0.9506573412969708,-0.1116419273644685,-0.0182840414345264,-0.1792357116937637,-0.1860677599906921
2.740487060546883,1.7804191891938448,-1.0259048899829386,-0.0706219347119331,-0.0975676625967025,-0.2563984394073486,-0.2135864198207855
2.7504528808593562,1.7445694387860595,-1.0827201253995298,-0.1380903738290071,-0.1952324509620666,-0.3207060694694519,-0.2341130077838897
2.760417968750005,1.662569785491377,-1.0749027296468614,-0.3223749280780553,-0.3030916750431061,-0.3740982115268707,-0.2400522083044052
2.7703830566406396,1.4927609158404171,-1.00854897377342,-0.5599059193462133,-0.3979574739933014,-0.4072857201099396,-0.2209403067827224
2.7803491210937636,1.2054139003932476,-0.8759773633658885,-0.849970815449953,-0.471137523651123,-0.4428269267082214,-0.1909487545490265
2.790313720703125,0.920276962210983,-0.7638324549153447,-1.1062789879024029,-0.5020461678504944,-0.4658350348472595,-0.1651557683944702
2.800279785156235,0.5717344504363835,-0.7084373154297471,-1.3977344615817069,-0.4855623841285705,-0.4838912487030029,-0.1501074880361557
2.8102448730468836,0.2255222813054919,-0.5645990455985069,-1.7032424260109662,-0.4479566812515259,-0.5298556089401245,-0.1481841653585434
2.8202097167968816,0.0672229399234056,-0.3980030005142092,-2.006070942097902,-0.422502726316452,-0.5983120203018188,-0.1600342392921447
2.8301760253906423,0.1241729076355695,-0.4749100068449974,-2.223532958805561,-0.378077745437622,-0.633042573928833,-0.1630526632070541
2.8401408691406402,0.179167722691968,-0.5586377991065382,-2.2962194248318677,-0.3394332826137543,-0.6762888431549072,-0.1372944712638855
2.8501069335937643,0.262254367505759,-0.5251929178833962,-2.478842183348537,-0.3213048577308655,-0.7405346632003784,-0.093465507030487
2.8600720214843562,0.2854094715133309,-0.6250260417714715,-2.456038815388083,-0.3101662695407867,-0.7865087389945984,-0.0200250968337059
2.870037109375005,0.3444332498248666,-0.8704872415170073,-2.416843700075149,-0.3120246231555938,-0.8447555303573608,0.07744100689888
2.8800029296874925,0.3602149024549871,-1.039225851587951,-2.613667417901754,-0.3356669843196869,-0.9389973282814026,0.1813542693853378
2.8899677734375047,0.2498917295388877,-1.1566650670543313,-2.763427186736464,-0.4037690758705139,-1.0551178455352783,0.2893827259540558
2.899934082031237,-0.01555412748456,-1.282799337890744,-2.8765467854380606,-0.5343159437179565,-1.1603103876113892,0.3807972967624664
2.909898925781235,-0.4894130909066647,-1.2938307272538545,-2.967286210027337,-0.7272475957870483,-1.2151446342468262,0.4349947571754455
2.9198640136718836,-1.0720344807341695,-1.255702948911488,-3.079637746965885,-0.9495801329612732,-1.1658834218978882,0.4707297086715698
2.9298300781249935,-1.6059185084648429,-1.0913108436122536,-3.0853508639156817,-1.156407117843628,-0.981787085533142,0.5089364647865295
2.9397949218750057,-2.0266459664843977,-0.8130714098587631,-3.2798078526109453,-1.2986074686050415,-0.712246298789978,0.5761311054229736
2.9497597656250036,-2.291087030379474,-0.5508095896989107,-3.450977489221096,-1.3381404876708984,-0.4244494140148163,0.6515704989433289
2.9597258300781135,-2.4255603827551004,-0.179411687515676,-3.611594167634845,-1.2749842405319214,-0.176227256655693,0.7022778987884521
2.9696909179687623,-2.47269944280982,0.2077574920341372,-3.6700726600885383,-1.1326340436935425,-0.0103519931435585,0.7146549224853516
2.9796567382812356,-2.416743746832013,0.52202451698035,-3.712525900414586,-0.9311734437942504,0.0335654430091381,0.6720860600471497
2.9896220703124925,-2.3258710512518883,0.7820712914392352,-3.674188863235712,-0.6853514313697815,-0.0275157541036605,0.5931811332702637
2.9995869140625047,-2.2636890281051394,1.0119842089191078,-3.464274777689576,-0.4269673228263855,-0.1680537164211273,0.4779464602470398
3.009552734374992,-2.2672402908459306,1.1678411255851386,-3.1643308771282435,-0.1705467402935028,-0.3237370550632477,0.3430394828319549
3.019518066406235,-2.3126896442480382,1.249632104565203,-2.8007179297327998,0.0732041597366333,-0.4485829770565033,0.2173333764076233
3.029483886718765,-2.3966074061237275,1.2897490108981728,-2.305384728062153,0.298348069190979,-0.5262343883514404,0.0993412286043167
3.039448974609357,-2.5950150321409104,1.2875047391027212,-1.7550719819694756,0.4697385728359222,-0.5572618246078491,-0.0181149616837501
3.049413818359355,-2.72630361700058,1.2742331695973872,-1.2544728225946429,0.5855562686920166,-0.5346422791481018,-0.1400781422853469
3.0593801269531156,-2.7485835456088186,1.2968465679436922,-0.5554167912334204,0.6329479217529297,-0.4445419013500213,-0.2593006193637848
3.0693449707031135,-2.8632705397576093,1.360663206554949,0.0105921211630105,0.6223426461219788,-0.3271729052066803,-0.3747132420539856
3.0793110351562376,-2.8750980479344723,1.4537766667991876,0.4536836789429188,0.5887631177902222,-0.191919058561325,-0.4724300503730774
3.0892758789062356,-2.7845763577491045,1.502829451520741,0.8413736674964427,0.5637158155441284,-0.0607730261981487,-0.5358092784881592
3.0992407226562335,-2.598298583856225,1.562419996869564,1.1582476600706575,0.5480239987373352,0.0511353388428688,-0.582646369934082
3.109207031249994,-2.334065317492932,1.672789420080185,1.395358380100131,0.5539154410362244,0.1259976029396057,-0.6258255243301392
3.119171874999992,-2.0698953256241976,1.729275861933827,1.5772569159954786,0.5965437889099121,0.1587699800729751,-0.661182165145874
3.129136962890641,-1.8424619500003756,1.8000088558048009,1.8032716569930316,0.6710560917854309,0.1528210043907165,-0.6879532933235168
3.139102783203114,-1.686029863794893,1.8242495630919933,2.0246827035874126,0.7705687880516052,0.1010316908359527,-0.7030340433120728
3.149068115234357,-1.521795579405874,1.8298548357531428,2.1946540703237054,0.8692476749420166,0.0085211945697665,-0.7173858284950256
3.159033935546873,-1.3339616621121764,1.871872899532318,2.39925602093637,0.9476749300956726,-0.1117131635546684,-0.7568703889846802
3.168998779296885,-1.3134480125240982,1.837176264682412,2.594116914257407,1.014575719833374,-0.2498049736022949,-0.8170426487922668
3.1789641113281135,-1.4626090848132969,1.760188594330847,2.8317513659000397,1.0680365562438965,-0.34193155169487,-0.9112378358840942
3.1889299316406436,-1.57375285339728,1.732829170501232,3.0484669481545685,1.102588176727295,-0.3929729163646698,-1.0186829566955566
3.1988950195312356,-1.6088178831681608,1.6179276568189265,3.093069475468993,1.1326228380203247,-0.4019626975059509,-1.1304426193237305
3.208861083984374,-1.519253493707627,1.437341372565925,3.174253136205673,1.152266025543213,-0.3855917155742645,-1.2275015115737915
3.218826171874994,-1.2606018268689512,1.3047028344020246,3.145974551704526,1.1352593898773191,-0.3856402337551117,-1.3081293106079102
3.2287907714843556,-0.938729149224609,1.1861404601246115,3.065150956451893,1.0863312482833862,-0.4036559760570526,-1.358302116394043
3.238756835937494,-0.6818359434258192,1.0609247654378413,3.048946256104112,1.0198795795440674,-0.4298303127288818,-1.3843998908996582
3.248721923828114,-0.4637462232738733,0.9512459548398852,2.9991806469380853,0.9269132018089294,-0.4555612504482269,-1.3925070762634275
3.258686767578112,-0.2647977318456396,0.8640542858600616,2.961172695583105,0.8081368803977966,-0.4655511081218719,-1.39045512676239
3.268653076171873,-0.0683507566432468,0.7809577772393822,2.892361609685421,0.6767021417617798,-0.4678331613540649,-1.3865041732788086
3.278617919921885,0.081692103449162,0.7392337279707193,2.799306893891096,0.5409073233604431,-0.4502598941326141,-1.368744730949402
3.2885837402343583,0.1947068535367958,0.6668035747930408,2.7342957847982645,0.4059945344924927,-0.4129602015018463,-1.3204944133758545
3.298548828124993,0.3548969223026186,0.5891431197464466,2.6595523862421517,0.2686327993869781,-0.3451259434223175,-1.2571706771850586
3.3085139160156416,0.5302320445617661,0.5397860913813114,2.5640824259996413,0.1269004344940185,-0.2639560103416443,-1.1784268617630005
3.3184799804687657,0.5904624587167054,0.5103659356296062,2.427152328121662,-0.0109138377010822,-0.1916074752807617,-1.1045359373092651
3.3284448242187636,0.6838797972783446,0.4406085087925195,2.1293682359427213,-0.1060427501797676,-0.1520227789878845,-1.0212570428848269
3.338411132812496,0.8329604978077113,0.2600420982837677,1.864265347138047,-0.1693811416625976,-0.1477906852960586,-0.9374345541000366
3.348375976562494,0.9598657530166208,0.1426490600466728,1.6162334201216697,-0.2068531513214111,-0.1764090061187744,-0.8626500368118286
3.358341064453114,1.019450453146547,-0.0089805943131446,1.3736509906828402,-0.2186881154775619,-0.228155717253685,-0.79410320520401
3.3683071289062383,0.9815561912991106,-0.1286456691354513,1.16995563352108,-0.2001650333404541,-0.287715196609497,-0.7341898083686829
3.378268310546872,0.922524448876828,-0.2570084296762943,1.0101239680051803,-0.1667240262031555,-0.3277195990085602,-0.6725931763648987
3.3882333984374924,0.8750181629449129,-0.3582034895673394,0.9901333193778992,-0.119741603732109,-0.3405384719371795,-0.6161642670631409
3.398199218749994,0.8253983919903636,-0.4360734957113862,0.9127326843112706,-0.0681610330939292,-0.3537050783634186,-0.5693496465682983
3.408164550781237,0.7703067654959856,-0.4992778476431965,0.8396043197363614,-0.0140184368938207,-0.3642013967037201,-0.5234774947166443
3.4181303710937527,0.7444827345401048,-0.5640712223321199,0.8616787889003753,0.0433931984007358,-0.3724255561828613,-0.4811273217201233
3.428095214843765,0.7438546657696365,-0.6651219053164125,0.8670628200262784,0.0956066027283668,-0.3760948479175567,-0.4447751939296722
3.438060302734357,0.7531140770241618,-0.7204670681804418,0.9021475774109364,0.1349210292100906,-0.3814407885074615,-0.4169633388519287
3.4480261230468727,0.7864358433242887,-0.8335363979995251,0.9170996473491192,0.1771129518747329,-0.3905724883079529,-0.371956467628479
3.457991210937493,0.8522593647785485,-0.951335678949952,0.9994032520264386,0.2117680162191391,-0.3775847554206848,-0.3229944407939911
3.4679562988281134,0.891902808380872,-1.0410296861395238,1.061249759608507,0.2267957031726837,-0.3802066445350647,-0.2909462451934814
3.4779223632812375,0.8698528891362249,-1.0708894023522737,1.0270856242001056,0.2262061983346939,-0.4075952172279358,-0.2742842137813568
3.4878872070312354,0.8303045764714478,-1.030180667605996,1.042545643660426,0.2167698293924331,-0.4304723143577575,-0.2673674523830414
3.497853515624996,0.7986330615963786,-1.0324252316623923,1.1041408068299292,0.1938387304544448,-0.4314579665660858,-0.2547275722026825
3.507818359374994,0.7608308619465678,-1.023923945298791,1.1791028165727853,0.1709438115358352,-0.4062623381614685,-0.2243962883949279
3.517783447265643,0.7131981731560081,-0.985239702117443,1.2604366994351148,0.1518841981887817,-0.3569261729717254,-0.196766048669815
3.527749267578116,0.6194524794228374,-0.9231319132506848,1.3277858960866928,0.1368637084960937,-0.2895095944404602,-0.1949111521244049
3.537714355468765,0.5366129047052934,-0.915136238321662,1.2310668125659228,0.1264503300189972,-0.2612017691135406,-0.2172877490520477
3.5476804199218748,0.3680289737394079,-0.8586591488182544,1.0582441480517386,0.1139768660068512,-0.2748430073261261,-0.2747438251972198
3.5576452636718727,0.1644340447448194,-0.9006441871106624,0.9610615386724471,0.103495717048645,-0.3349520862102508,-0.3557444810867309
3.567610351562493,0.008456716569513,-0.9752052148371936,0.8634276783943176,0.075665146112442,-0.3983912467956543,-0.4357538521289825
3.5775761718749948,-0.0451093808580189,-1.0571171898484228,0.8118816155523061,0.0254640541970729,-0.4233446717262268,-0.49394491314888
3.5875412597656435,-0.011602869108133,-1.2347300112485884,0.8443085519045591,-0.0354035571217536,-0.3813809752464294,-0.5151445269584656
3.5975063476562354,0.0273583095847629,-1.3952286162406204,0.8938491201430558,-0.1006392315030098,-0.2665143311023712,-0.4993689060211181
3.6074721679687656,0.1408044368269853,-1.561127618971467,0.8797656497329474,-0.1634400337934494,-0.1346577554941177,-0.4524695873260498
3.6174372558593575,0.3748854520380497,-1.702858395129442,0.6830904004663229,-0.2143883854150772,-0.0437384918332099,-0.3864153027534485
3.627403320312496,0.5488000034421682,-1.7523019327342508,0.4700573061168193,-0.2429758161306381,0.0047835046425461,-0.3195028305053711
3.637368408203116,0.5998302257165312,-1.7509335669904946,0.2965045737624168,-0.2465889304876327,0.013355953618884,-0.2626464664936065
3.647333251953114,0.5244537168886512,-1.6963742938071489,0.1578916373640298,-0.2348513156175613,-0.0103842625394463,-0.240171268582344
3.657299316406238,0.4163953836319968,-1.6144912526294588,-0.0029980127722024,-0.2212937176227569,-0.0360924564301967,-0.2501339316368103
3.6672644042968727,0.2839388875041156,-1.52974317740947,-0.0782633893758058,-0.188896894454956,-0.0418358296155929,-0.2676772475242615
3.677229492187493,0.2652206151665188,-1.5098986592546104,-0.0501601614415645,-0.1503168493509292,-0.0158726125955581,-0.2748517692089081
3.6871953124999948,0.340302579760924,-1.46615567137897,-0.0309410817086696,-0.1231739148497581,0.0098077161237597,-0.2612203955650329
3.6971604003906435,0.4316465461146086,-1.343817577955127,-0.0651958180099725,-0.1152974516153335,0.0447169207036495,-0.2534489035606384
3.7071264648437534,0.5746287471057847,-1.234618952089548,-0.0275876796275377,-0.0962816849350929,0.1054404526948928,-0.2179175168275833
3.7170910644531148,0.7020300787359476,-1.1986138649895786,0.0275216286540031,-0.0600825995206832,0.1723562926054,-0.1636159121990203
3.7270563964843575,0.8703945217322557,-1.1520058430716396,0.0380821856349706,-0.0106380842626094,0.2337456196546554,-0.1080972477793693
3.7370222167968734,1.095426462237537,-1.1259329519212244,-0.1264461132645607,0.0468668453395366,0.246931791305542,-0.0637988820672035
3.7469873046874937,1.277668989264965,-1.1733663187474013,-0.4359142134964466,0.1247789561748504,0.1988382935523986,-0.0194897446781396
3.756953369140618,1.4013855314351618,-1.2259960851728915,-0.655799657958746,0.2020113319158554,0.1102114394307136,0.0193757563829422
3.766918212890644,1.4334113396406172,-1.203402560570836,-0.7799246347993611,0.2610552310943603,0.015549911186099,0.0422768108546733
3.776883300781236,1.4389438393265008,-1.1899515428453684,-0.9024784168004988,0.3053843975067138,-0.0388143807649612,0.0437408126890659
3.7868493652343744,1.4856646739691497,-1.261314651313424,-0.99499946410954,0.350236028432846,-0.0433050021529197,0.0449951626360416
3.7968144531249948,1.5164358059383929,-1.2648130148231982,-1.0917220547616482,0.3786097764968872,-0.0170859284698963,0.0453049354255199
3.8067802734374965,1.4246329899013042,-1.1969926935285329,-1.1864409043759108,0.3910994529724121,0.0093643199652433,0.0427120812237262
3.816745361328117,1.3756310585841536,-1.096824930858612,-1.20830026948452,0.3755908012390136,0.0531259179115295,0.033612173050642
3.8267104492187656,1.39578917273283,-0.9670026191592216,-1.2308522930324075,0.3492081761360168,0.0772706717252731,0.0270285699516534
3.836676269531239,1.334226012136787,-0.8531652275770902,-1.3625614413917064,0.2928953170776367,0.0647892951965332,0.0172680653631687
3.8466413574218734,1.184070741178468,-0.7037848134487867,-1.3239064243048428,0.2084944248199463,0.057375319302082,0.0118509288877248
3.8566062011718856,1.101965654747933,-0.5562953276336193,-1.2818190946817398,0.0832144245505333,0.03620271012187,0.0088765006512403
3.8665722656249955,0.9456826216243208,-0.3864490485817193,-1.238835693001747,-0.0739818587899208,0.029984762892127,0.0124488649889826
3.8765371093749934,0.6917258346036076,-0.1484019244849681,-1.0703525189965963,-0.2297205626964569,0.0927822664380073,0.0335901752114295
3.8865031738281175,0.4704999353177845,0.0922895766407251,-0.9219009101510048,-0.3532401025295257,0.2225511819124221,0.0773283392190933
3.896468261718752,0.3485951918099075,0.3418570426613092,-0.901349705031514,-0.4224025309085846,0.4068140983581543,0.1349133253097534
3.9064340820312538,0.2662311256496235,0.5834814407229423,-0.8893588229864835,-0.4312658011913299,0.5955142378807068,0.1999072432518005
3.9163994140624965,0.3137797894185409,0.7742208701997995,-0.9433440956741572,-0.3806220293045044,0.748674213886261,0.2658587992191314
3.9263642578124944,0.4225220132861286,0.9771884976089,-1.0360422531157731,-0.2942661046981811,0.823984682559967,0.3001603186130523
3.9363303222656185,0.5538119863852858,1.202505611731112,-1.1097896263718603,-0.1938140541315078,0.8122521638870239,0.2951642274856567
3.946295410156239,0.6908730171665549,1.3644231436103582,-1.1389221973538397,-0.084356278181076,0.7467882037162781,0.276355117559433
3.9562612304687548,0.8540989282306283,1.4623723534479736,-1.1318033052593468,0.027672192081809,0.657404363155365,0.2487897425889969
3.966226318359375,0.965463280762732,1.5408888408020138,-1.0531675754398109,0.140703409910202,0.5632597804069519,0.2318078428506851
3.9761914062499955,1.0466513254135847,1.5392483801186083,-0.8783984530329704,0.2350824773311615,0.5002925395965576,0.2395404875278473
3.9861574707031195,1.1032623434949669,1.5747855574458836,-0.7099620407789945,0.3059755563735962,0.4604327082633972,0.2587176561355591
3.9961223144531175,1.1306566925074903,1.5497966621398924,-0.4759802664250135,0.3678338229656219,0.4603986740112304,0.2898020446300506
4.006088378906242,1.1177226113282144,1.507734466958046,-0.1668704781115055,0.4025715589523315,0.4884111583232879,0.3311763703823089
4.016053222656254,1.0699584781777114,1.5270511618465183,0.0645008214831352,0.4179705679416656,0.509619414806366,0.3742098808288574
4.026018310546874,1.0257281451765448,1.5398264722675084,0.2614069568961858,0.4088836014270782,0.5244484543800354,0.4019924998283386
4.035984374999998,0.9121663556654006,1.5344044472187757,0.5132388607174158,0.3737752139568329,0.5380503535270691,0.4187191426753998
4.045949218749996,0.7931565298814326,1.5357891795754433,0.7363613874047994,0.3035337924957275,0.5543662309646606,0.4192072749137878
4.05591528320312,0.6581468786720186,1.442850783637166,0.9197416862905023,0.2173769176006317,0.5698547959327698,0.4076925218105316
4.065880126953118,0.5180828666824847,1.3470552447021007,1.1291489913582802,0.103829838335514,0.6032700538635254,0.3950507640838623
4.075845458984375,0.4369477212626487,1.2522773583769795,1.2528057661652563,-0.0225142128765583,0.6348576545715332,0.3777296841144562
4.085811279296877,0.3945001800250262,1.1826163776516914,1.344919401717186,-0.1483451128005981,0.66923588514328,0.3647845983505249
4.095776123046875,0.3862316795039922,1.1267015982061623,1.4332576103836296,-0.2606572210788727,0.7144483327865601,0.3490668535232544
4.105742431640621,0.4359270729780197,1.038241224464774,1.4795266096055506,-0.354177862405777,0.7637801766395569,0.3461773097515106
4.115707275390619,0.4735968784198164,1.0289490799844263,1.5243547623693945,-0.4205442368984222,0.8139241933822632,0.3475888073444366
4.125672363281254,0.541684472348541,1.023567386946082,1.4705191272854805,-0.4671333134174347,0.845329761505127,0.3510456085205078
4.135638427734378,0.5887080893300474,0.9917939460664988,1.3901187258809804,-0.4891060292720794,0.8479627966880798,0.3647522032260895
4.145603515624998,0.6300343714527785,1.0058616343855855,1.2765858702033757,-0.4962036311626434,0.8305694460868835,0.3654797971248626
4.1555693359375,0.6128925363853573,0.9584610007852316,1.221080840602517,-0.4787704050540924,0.8045253157615662,0.3577633500099182
4.165534179687498,0.5736006826996803,0.7978928376883268,1.2089385673880575,-0.4416406154632568,0.7962106466293335,0.3558149635791778
4.175499267578118,0.4939243577860295,0.6977367654561996,1.272890522816777,-0.3959872722625732,0.8008175492286682,0.3490217626094818
4.18546508789062,0.4555097253262996,0.6049994450479745,1.2986685226738452,-0.3477555513381958,0.7913691997528076,0.3381001353263855
4.195430419921877,0.4329764064788818,0.5045411749988794,1.3243413085907696,-0.2906253933906555,0.7672733068466187,0.3252158761024475
4.2053962402343785,0.4449121973358094,0.4286506522342562,1.3924369396954774,-0.2286008894443512,0.7231892347335815,0.3183965682983398
4.215361328124999,0.4813735037706792,0.3370996190011501,1.4850813211232423,-0.1715317219495773,0.6542963981628418,0.3115026950836181
4.225327392578123,0.4908469961673021,0.2565565942555666,1.4487766665548083,-0.1203585490584373,0.547126829624176,0.3037076294422149
4.235292236328121,0.4055727051161229,0.1720528491854667,1.4819593897104262,-0.0902599245309829,0.4369637072086334,0.2875174880027771
4.2452573242187555,0.3099422936148941,0.0688403119921684,1.5608546472489833,-0.0945510789752006,0.3338548839092254,0.2658135294914245
4.2552233886718795,0.1840244420081377,-0.0433504814267158,1.5443676228284835,-0.1317363083362579,0.2631022334098816,0.2376974821090698
4.2651884765625,0.0587098169915378,-0.1464706641614437,1.5531109012544153,-0.1926324069499969,0.2419085204601287,0.205107569694519
4.275154296875002,-0.0500331740610301,-0.2619669288665056,1.4120207610875368,-0.2698419094085693,0.257845014333725,0.1797071993350982
4.2851191406249995,-0.0915180077463388,-0.3721960668236017,1.3062696453273297,-0.3486714661121368,0.3247992992401123,0.1738764643669128
4.295084472656242,0.0024482699349522,-0.5306845010370016,1.1044389129936694,-0.4214944243431091,0.3783110976219177,0.1790560781955719
4.305050292968758,0.1357142923474311,-0.6732102269649505,0.5934259116321802,-0.4736300706863403,0.3715541362762451,0.177423819899559
4.315015136718742,0.1746243071086704,-0.7623135747849941,0.0872796395242214,-0.4997251331806183,0.3398601412773132,0.169954240322113
4.324981445312503,0.1404765383131802,-0.8586401518568396,-0.2955067948967218,-0.4964300096035003,0.285816878080368,0.1757120043039322
4.334946289062501,0.1004467257417738,-0.8769397786572575,-0.6947831763476133,-0.4756137132644653,0.2171670496463775,0.1843429952859878
4.344912353515639,0.050357875970751,-0.9381395127683876,-1.071570662614703,-0.4360079765319824,0.1165863871574401,0.1863981634378433
4.354877197265623,-0.0542902469836175,-0.949200420486927,-1.413993522465229,-0.3840037882328033,0.0152926780283451,0.178844079375267
4.364842285156243,-0.2116064225472509,-0.9373188440352678,-1.5964157899737357,-0.3105537891387939,-0.0697716102004051,0.1655642390251159
4.374808105468759,-0.4626169269829988,-0.9648156305089592,-1.7278817772269248,-0.2169862389564514,-0.1344348192214965,0.1587998121976852
4.384772460937498,-0.7719285214789211,-0.9140586722180248,-1.7437614834040402,-0.1200450509786605,-0.1658055335283279,0.1387475430965423
4.3947382812499995,-1.1121110550567508,-0.8869692975014447,-1.650737162747979,-0.0367120951414108,-0.1590010970830917,0.0987918302416801
4.404703613281242,-1.490157163082808,-0.8908616287648677,-1.5239268923461435,0.0343506336212158,-0.1010773405432701,0.0360094085335731
4.414668457031254,-1.7512627989448606,-0.7822486938327551,-1.2240052036166191,0.0860712826251983,-0.0128380181267857,-0.0455956608057022
4.4246345214843785,-1.689440256760269,-0.8054635652035474,-1.2605284693717955,0.1484377235174179,0.038496010005474,-0.1168879494071006
4.434599609374999,-1.3447063434883952,-0.8656547067940235,-1.2099918758332728,0.2490442991256714,0.0369285717606544,-0.1687009781599044
4.444565429687501,-0.894191211578995,-0.8821902465313672,-1.064981931874156,0.3531307578086853,0.0046902103349566,-0.2064012140035629
4.4545302734374985,-0.494359826593846,-0.8467243808746338,-1.0618044708818195,0.4458478689193725,-0.1579454243183136,-0.2295559197664261
4.4644951171874965,-0.127740683119744,-0.8547793847754597,-0.9124795863330364,0.5217437148094177,-0.3028554618358612,-0.235202357172966
4.474461425781243,0.1618970736131072,-0.9839692437902092,-0.633119039595127,0.5656681060791016,-0.4449758529663086,-0.2294764071702957
4.484426269531255,0.4255193684712052,-1.0769567395672202,-0.4401017283141613,0.5961767435073853,-0.5405543446540833,-0.2171512991189956
4.494392333984379,0.5490453565053641,-1.2218573779329658,-0.3779156135141849,0.6239218711853027,-0.6478034257888794,-0.2021847367286682
4.5043574218749995,0.6150821553841233,-1.3419795488730073,-0.2476256843030452,0.6452082991600037,-0.7423584461212158,-0.2005831152200698
4.514323242187501,0.7580772523894905,-1.3994953337743878,-0.279898306876421,0.6634286642074585,-0.8660989999771118,-0.2231072783470153
4.524288574218758,0.8324607315920293,-1.4039680952742697,-0.2642074012696743,0.6672082543373108,-1.0164247751235962,-0.2535397410392761
4.534253417968742,0.911569047359377,-1.429773275399208,-0.2350508648902177,0.6227915287017822,-1.1824382543563845,-0.2813456356525421
4.54421948242188,0.8796912693224846,-1.4868208582669495,-0.1840150896579027,0.5280290246009827,-1.3563170433044434,-0.2945011258125305
4.554184326171878,0.6470837059311568,-1.4887462733715773,-0.0969704279333353,0.3575093448162079,-1.4956398010253906,-0.3033288717269897
4.564150390625002,0.2120302009172737,-1.4125322177410125,0.0227379015088081,0.1191060915589332,-1.56646466255188,-0.315405786037445
4.574115478515623,-0.3473305056363344,-1.288288582956791,-0.0177460845708847,-0.165343552827835,-1.5697941780090332,-0.3193507790565491
4.584080566406243,-1.02234529780522,-1.0656897878825664,0.0223135386168956,-0.4638112187385559,-1.4338756799697876,-0.3386507034301758
4.594046630859353,-1.6536134488366545,-0.703226595044136,0.1182762508124113,-0.7363607287406921,-1.13329815864563,-0.3720671534538269
4.604011230468743,-2.110231866057217,-0.269334827286005,-0.0703694212555885,-0.9245591163635254,-0.7638520002365112,-0.4068571031093597
4.613977539062503,-2.3200182335704564,0.0998506595447659,-0.5071276843607425,-0.9777674674987792,-0.3876471817493438,-0.4317230880260467
4.623942382812501,-2.329142181877047,0.4120896857947111,-0.8740209686011076,-0.908009946346283,-0.0423566102981567,-0.4379439651966095
4.633908203125003,-2.083897985883057,0.7339715696588158,-1.1930822420865297,-0.7745068669319153,0.1983439922332763,-0.4426151216030121
4.643873291015623,-1.7086691272348165,1.07854196293205,-1.4785247390866278,-0.5939160585403442,0.3171382844448089,-0.4673689603805542
4.653838378906244,-1.320077221405506,1.2903121977388858,-1.5680547878861426,-0.3587013185024261,0.3487063348293304,-0.4865208864212036
4.6638044433593535,-0.8828021678846328,1.3716735531300306,-1.5416443353444338,-0.1001110449433326,0.2899665832519531,-0.4990082085132599
4.67376928710938,-0.4711919361699372,1.3841352675572036,-1.4925626167893409,0.1448587775230407,0.1419004201889038,-0.5096060037612915
4.683735351562504,-0.2256335596602409,1.380066995204985,-1.3092559676617384,0.3658012747764587,-0.0617690831422805,-0.5313539505004883
4.693700439453124,-0.129192124037072,1.3473767317414282,-1.0532552537232638,0.5455947518348694,-0.285028725862503,-0.5596956014633179
4.703665527343759,-0.1180260754436254,1.3264935181885955,-0.812542125287652,0.663829505443573,-0.5055392980575562,-0.5923784375190735
4.713631591796883,-0.2232395041305571,1.2591019437000155,-0.371591086667776,0.7219730019569397,-0.6452826261520386,-0.6127289533615112
4.723596435546881,-0.390134386030957,1.161008941477537,0.0950140331685543,0.7304104566574097,-0.7262171506881714,-0.6050428152084351
4.733562500000005,-0.5739439431793988,1.0963353937759994,0.4418810129463672,0.695611298084259,-0.7482894062995911,-0.5884106159210205
4.7435275878906396,-0.7037685929663479,1.103464222742617,0.8068722629576921,0.6358475089073181,-0.7149212956428528,-0.5777862071990967
4.753493408203113,-0.8289797576084732,1.0650921142503618,1.1872872920721769,0.563579261302948,-0.624740719795227,-0.5554608702659607
4.763458496093762,-0.9755088739588856,1.056857954390347,1.5665239250570535,0.4733279347419739,-0.4955028593540191,-0.5440771579742432
4.7734233398437595,-1.12592937172465,1.138615907883644,1.8398177191019056,0.3846685290336609,-0.3456178605556488,-0.5530763268470764
4.783389648437492,-1.1505522101972252,1.149547051742673,2.0997464201390743,0.3092097342014313,-0.1988984495401382,-0.5621419548988342
4.793354248046882,-1.0553939462523907,1.1157757150441407,2.284867425212264,0.2477479428052902,-0.0779126361012458,-0.5597171187400818
4.803320556640642,-0.8860509405475109,1.135287055721879,2.4342852487415074,0.1989851891994476,-0.0011400918010622,-0.5551537871360779
4.81328540039064,-0.6679656773749738,1.1566741271436214,2.548694887253642,0.1743866354227066,0.0310727059841156,-0.5568265318870544
4.823250488281232,-0.4430046832140535,1.1234452267587185,2.618995919448137,0.1636037677526474,0.0132921105250716,-0.5536651015281677
4.833216308593762,-0.2294939614154398,1.093969541427493,2.666609903538227,0.1511196047067642,-0.0452982261776924,-0.544218897819519
4.843181396484354,0.0035291970394551,1.0366548320561646,2.681158653372526,0.1530296355485916,-0.1283539682626724,-0.5247455835342407
4.8531474609374925,0.1815125322524458,0.9384007940530776,2.7097113786399363,0.1505373567342758,-0.2287812978029251,-0.4942003190517425
4.863112304687505,0.3042551148239523,0.8452572309315204,2.743387438270449,0.1333756893873214,-0.3372281491756439,-0.4666027426719665
4.873078369140643,0.4082545646112412,0.7225152328819036,2.7394021680265666,0.1052130833268165,-0.4371815919876098,-0.4435489177703857
4.883043457031235,0.4524425928406417,0.5670797564983368,2.755872825834155,0.0655879080295562,-0.507469892501831,-0.4253938794136047
4.893008544921884,0.4618211734954267,0.3867459857016802,2.7397470359414813,0.0148400468751788,-0.5478101372718811,-0.4037929773330688
4.9029746093749935,0.5100519743096084,0.2132534591019153,2.6884055557608604,-0.044170007109642,-0.55611652135849,-0.3674682676792145
4.912939453125006,0.5888881951373071,-0.0395826533257961,2.628771463531256,-0.1020396575331687,-0.5438160300254822,-0.3119657337665558
4.922905517578116,0.6770759624823928,-0.2759989613503217,2.564185886374116,-0.1704757064580917,-0.5212801098823547,-0.2510443329811096
4.932870605468764,0.8659387844324111,-0.4900532154411077,2.402120178195834,-0.2413146346807479,-0.5134181976318359,-0.1994315981864929
4.942835449218762,0.994087317700684,-0.7417647077530622,2.20604172577858,-0.31953164935112,-0.5256983041763306,-0.1418511271476745
4.952801269531236,1.0052012707807123,-0.9417910210132598,2.1005179890334604,-0.4135182797908783,-0.5474519729614258,-0.0878913253545761
4.962766357421884,1.0185866759240627,-1.1139034914314747,1.9338386495798825,-0.5134875178337097,-0.572907567024231,-0.0351727157831192
4.972732421874994,0.9758759537056088,-1.2853271028026938,1.7799293598502874,-0.6140757203102112,-0.5806643962860107,0.0248040575534105
4.982697265624992,0.9159752464290708,-1.4556921450316904,1.6595850705921649,-0.7030639052391052,-0.5613170862197876,0.1044360324740409
4.992663330078116,0.8778251101244241,-1.6366557381644844,1.4645231017410754,-0.7821019887924194,-0.5261502861976624,0.1903908848762512
