time,ax,ay,az,gx,gy,gz
0.0,0.7351007928844541,-1.735934735301137,1.147415300410986,-0.8394606709480286,-0.4779356718063354,0.2672483921051025
0.009965087890591917,0.5293649428710341,-1.8676678490579128,0.8952712619006633,-0.8535918593406677,-0.3803954124450683,0.3272415101528168
0.01993115234373022,0.3785319918468594,-1.9934777102455497,0.6053261927843093,-0.8446279168128967,-0.2930530607700348,0.3800879418849945
0.029895996093728172,0.2794053357277065,-2.055189485532045,0.1047521678507328,-0.8004003167152405,-0.2350540906190872,0.4082675576210022
0.03986206054685226,0.1537205987570807,-2.125010332994163,-0.3273556391000747,-0.7299568057060242,-0.1935452669858932,0.4185372292995453
0.04982690429687864,0.0631294235320761,-2.126315278112888,-0.6535282058954238,-0.6440116167068481,-0.1766458600759506,0.4015556573867798
0.05979296874998852,-0.0178649251775816,-2.1141861566409466,-0.9602011224508284,-0.5636208653450012,-0.1795276701450348,0.361937403678894
0.06975805664060886,-0.0460910488391295,-2.007985251286626,-1.198200900274515,-0.495055228471756,-0.1899339705705642,0.3015950918197632
0.0797231445312292,-0.0626556502741761,-1.9745856705099345,-1.367258074775338,-0.4211631715297699,-0.1792179346084594,0.2446095645427703
0.08968920898435329,0.0177949286812916,-1.9488903805002569,-1.460152631571889,-0.3369800746440887,-0.1493224203586578,0.2058493793010711
0.09965380859372885,0.2373547761847265,-1.909788788689673,-1.5687024381399153,-0.2494539618492126,-0.1170805916190147,0.1911913305521011
0.10961987304685294,0.5515881728559732,-1.902401016525924,-1.7062468685239554,-0.15134859085083,-0.0919180959463119,0.1968958526849746
0.11958496093747328,0.8813306340273469,-1.9049287814378737,-1.8169880476564169,-0.0471172630786895,-0.0978084728121757,0.2120244652032852
0.1295507812499892,1.117502758032456,-1.8369056310474872,-1.91090434871614,0.0423613637685775,-0.1554817110300064,0.2288971245288849
0.13951586914060954,1.2032662208400666,-1.7496949651062488,-2.0219535708844663,0.0876761153340339,-0.2343493700027465,0.2224474847316742
0.14948095703122988,1.1016160375926642,-1.6477657457217574,-1.988838652268052,0.0942693203687667,-0.2918454706668854,0.2051601558923721
0.15944702148435397,0.9492502509780228,-1.585443145060539,-1.980037506175041,0.0721826553344726,-0.3163111209869385,0.183928370475769
0.16941186523435192,0.7735359566755592,-1.522372648641467,-2.0245453409433365,0.0287102349102497,-0.3139897584915161,0.162518560886383
0.17937792968749022,0.6172929633013904,-1.4091849531397225,-2.1257757644087074,-0.0265548843890428,-0.288186103105545,0.1412915736436844
0.18934301757811056,0.5325094514418393,-1.3114064236938954,-2.2305448833942414,-0.0862954929471015,-0.2619280517101288,0.1224528551101684
0.19930883789061227,0.5062349367721006,-1.1534376294404267,-2.3654677331030367,-0.13743457198143,-0.2368938028812408,0.1030772998929023
0.209274169921855,0.4815667978530749,-0.997033892546594,-2.589932322049141,-0.1719401627779007,-0.231035977602005,0.0845221281051635
0.21923901367185294,0.3754437435079366,-0.7570628146499395,-2.7422031969219445,-0.1994013488292694,-0.2290170490741729,0.0575341880321502
0.22920507812497704,0.2473634349039755,-0.4975380182385444,-2.87576469514966,-0.2145918905735016,-0.2331825792789459,0.0236240960657596
0.23917016601561158,0.1512193656590301,-0.2158291548088192,-2.919559413212537,-0.2276885211467743,-0.2387903928756714,-0.004759341944009
0.2491359863281133,0.0456041695044841,0.1165121637493371,-2.9030747268795967,-0.237175852060318,-0.2347443252801895,-0.0298075228929519
0.25910083007811124,-0.0540707224814221,0.3774094175577163,-2.845698642709851,-0.234760895371437,-0.1982457041740417,-0.0368217565119266
0.2690671386718577,-0.2313344747155904,0.6265279707670212,-2.6769869206458328,-0.2268994599580764,-0.11459431797266,-0.0267885215580463
0.2790319824218557,-0.3359768985815346,0.9070183983176946,-2.54342016172111,-0.2074368149042129,-0.0118258623406291,-0.003534329123795
0.2889968261718536,-0.3731530752874911,1.1331801465705036,-2.3866624968230723,-0.1650739908218383,0.1164968982338905,0.0291955303400754
0.2989631347656143,-0.4076784452237189,1.3888491443365811,-2.19942026181221,-0.1113511100411415,0.2526408731937408,0.0638797432184219
0.30892797851561227,-0.4133320505386218,1.557794675156474,-2.074022780817747,-0.0477537252008914,0.3773771822452545,0.1042378172278404
0.318893798828114,-0.3826550996588543,1.670045382069051,-1.865440820658207,0.0278377048671245,0.5024309754371643,0.1382032334804535
0.3288588867187343,-0.26111243092902,1.751811226607859,-1.639758088093996,0.1066580563783645,0.6075825691223145,0.1737593859434127
0.3388249511718584,-0.0109259722102782,1.789775338821113,-1.4898784922719002,0.1909737288951873,0.657681405544281,0.2008945941925048
0.34879003906247874,0.2723507410410791,1.79039610106796,-1.3374082954347133,0.2768445909023285,0.6631690263748169,0.2248451560735702
0.3587548828124767,0.5060289293386042,1.7789409333348274,-1.126331011328101,0.3577761948108673,0.6195448637008667,0.2524759769439697
0.368720947265615,0.6873221928171813,1.7517428375467656,-0.8945569761514663,0.4372176229953766,0.5455667972564697,0.2775627374649048
0.3786865234374801,0.8218627652101218,1.7792229651466012,-0.622641484722495,0.4924246966838836,0.4533532857894897,0.2922101318836212
0.38865258789059,0.8827496339797973,1.813968699835241,-0.3246563170135021,0.5307866334915161,0.3676990568637848,0.311986356973648
0.39861767578123875,0.8694272841352969,1.8388447824165224,0.0149070617526769,0.5513081550598145,0.3076399862766266,0.3359183073043823
0.40858349609374045,0.7708021477974951,1.8813310482293368,0.4396849642068147,0.5605813264846802,0.276249498128891,0.3677636086940765
0.4185485839843466,0.6960763579633087,1.932054981033504,0.8657470612525939,0.5535465478897095,0.2755847871303558,0.4039666354656219
0.42851367187499534,0.6524322273522615,1.9874834382668136,1.2268553323507307,0.5216003656387329,0.289261132478714,0.4285575151443481
0.4384794921874686,0.6523067012764513,2.0211898930355905,1.611031175303459,0.47630774974823,0.3163316249847412,0.450568288564682
0.4484445800781174,0.7298771399520337,1.967355426995456,1.9563216995447872,0.4289047420024872,0.3647707104682922,0.4726558625698089
0.45841040039059067,0.883759760870412,1.87363260268122,2.243510747951269,0.3785403668880462,0.4137560725212097,0.5018113851547241
0.4683754882812394,1.080823424932733,1.7403087126016616,2.5201474226832388,0.3383429646492004,0.4738629758358001,0.5323863625526428
0.4783415527343493,1.3540734529010952,1.5538196340456605,2.681601136443019,0.2999457716941833,0.4990018904209137,0.565688967704773
0.48830639648434726,1.5520933947749436,1.4819272410064934,2.7924469449937344,0.2438373565673828,0.4836445450782776,0.5964186787605286
0.498271484374996,1.6868839964061977,1.4477116676717996,2.885488801306486,0.1842014640569687,0.4454705119132995,0.6280959248542786
0.5082375488281201,1.791653407652676,1.3319769180357457,2.957773116272688,0.102769561111927,0.3967399597167969,0.666633665561676
0.5182026367187405,1.8633271895051,1.250775721642375,2.944044450649619,0.0243320129811763,0.3473817408084869,0.7020148634910583
0.528168457031228,1.9230119890086352,1.1240566366553306,2.8766104983240366,-0.0506656914949417,0.3080638349056244,0.728821873664856
0.5381337890624707,1.974329649922252,0.9746896665304898,2.7380063297539947,-0.1105694994330406,0.3065463602542877,0.755493700504303
0.5480996093749866,2.038216723421216,0.7323816701188683,2.53883283393085,-0.1478212177753448,0.3321602940559387,0.7850926518440247
0.5580644531249987,2.1247176336579026,0.4771662613391876,2.3190759842842814,-0.1660359054803848,0.3611860871315002,0.8151490688323975
0.568030761718731,2.145053296330571,0.3260243904963135,2.031640267640352,-0.1867121905088424,0.3665425479412079,0.8305038213729858
0.577995605468729,2.09107781438455,0.2683101604133844,1.7019576468974351,-0.210917130112648,0.3397380709648132,0.8300585746765137
0.5879606933593493,2.0440892687164247,0.1125029281079769,1.3964309777677058,-0.2296285182237625,0.2977198362350464,0.8321677446365356
0.5979267578124734,2.0337384089633823,-0.0989694927960634,1.2087965285688638,-0.2352065145969391,0.2753474414348602,0.8451825976371765
0.6078913574218774,1.9959296334423124,-0.334656609763205,0.9149088593065738,-0.2207016497850418,0.2563976645469665,0.8544219136238098
0.6178576660156097,1.9016987134754657,-0.5274304676771163,0.5897089369356632,-0.1899117827415466,0.2452038526535034,0.8540980815887451
0.6278222656249994,1.8014210606902836,-0.7100777761131525,0.2737555663377046,-0.1557725518941879,0.229884847998619,0.8488184809684753
0.6377885742187317,1.7362306495077906,-0.8764189696535467,-0.0592149900346994,-0.1256668418645858,0.2001940608024597,0.8323399424552917
0.6477534179687297,1.6517413713544606,-0.9958119495362044,-0.3221615775883197,-0.0897394344210624,0.1750350892543792,0.8147721290588379
0.6577194824218537,1.4485871353320776,-1.108343519216776,-0.5338993714302778,-0.0487195663154125,0.1657252013683319,0.7977423071861267
0.6676845703124741,1.2169764740236102,-1.207581307560205,-0.7567676310956478,0.0069539388641715,0.1724948436021804,0.7747640609741211
0.677649414062472,1.0099912815362215,-1.311759767176211,-0.971953519564867,0.0631644800305366,0.1924674808979034,0.7342227697372437
0.6876154785156103,0.8375890343911946,-1.332308341947198,-1.2082640291273594,0.1108677834272384,0.2085855603218078,0.6726773381233215
0.6975805664062307,0.6836752876821905,-1.385610016284883,-1.4343687864959238,0.1650766879320144,0.2243314981460571,0.6131026744842529
0.7075463867187324,0.5191294531259686,-1.510088044346869,-1.5714929456412792,0.212379589676857,0.2218790054321289,0.5775874257087708
0.7175114746093527,0.4388916949372738,-1.5220833103060722,-1.6603472871363163,0.2337232232093811,0.2131374478340149,0.5510293245315552
0.7274775390624768,0.3761779760666191,-1.5363167105808853,-1.6592039623200892,0.2278294414281845,0.2130626738071441,0.5224441289901733
0.7374426269531114,0.3012004034284502,-1.5968202791213988,-1.6644623212397098,0.2170803993940353,0.21070097386837,0.5064883232116699
0.7474086914062354,0.2282605288966558,-1.6242434158369898,-1.6663836446911096,0.1924869865179062,0.1952725350856781,0.4900631606578827
0.7573737792968558,0.059551190585969,-1.5901631593197585,-1.5950462551862,0.1583439260721206,0.1828523576259613,0.4797769784927368
0.7673386230468537,-0.182391525310371,-1.523160876409709,-1.4839993711054325,0.1135278567671775,0.1757223755121231,0.4768618941307068
0.7773044433593554,-0.4850788976272567,-1.4372989947289228,-1.3007570193856954,0.0682266876101493,0.1804047524929046,0.4785098731517792
0.7872697753906124,-0.8297880783166736,-1.3408578513666989,-1.1176257268249987,0.0194213688373565,0.1879571080207824,0.4765109717845917
0.7972355957031141,-1.1626092162810264,-1.1934683187946675,-0.9481973809242248,-0.026515495032072,0.1881027817726135,0.4692668914794922
0.807200439453112,-1.498090440300107,-1.0009665558204055,-0.7646423099935055,-0.0722715482115745,0.18116395175457,0.4314387142658233
0.8171665039062361,-1.8258385858491064,-0.7323352006286382,-0.6428039827853441,-0.0959728807210922,0.1620051711797714,0.3720438182353973
0.8271315917968565,-2.0610851194418967,-0.4591761388793587,-0.6939028863817452,-0.0703428760170936,0.1228694692254066,0.2867753505706787
0.8370974121093582,-2.2883827398568397,-0.2890688708037138,-0.6754091983139514,0.0071154320612549,0.0913504213094711,0.2010606974363327
0.8470624999999785,-2.4544009850531814,-0.043019934298098,-0.481766448611021,0.1019841954112052,0.0759042426943779,0.1076357662677764
0.8570275878906131,-2.563527130204439,0.1255740066051483,-0.4464835383057594,0.2158279418945312,0.0370503179728984,0.0079504493623971
0.8669934082031148,-2.5444009894520043,0.1718739854872226,-0.5058703777760267,0.3519578874111175,-0.0130171002820134,-0.0948261097073555
0.8769587402343575,-2.22373987955451,0.0408680169612169,-0.5290612837493419,0.5196532011032104,-0.0683951377868652,-0.18398979306221
0.8869245605468734,-1.89140499073714,-0.0285953953653573,-0.4537310252159833,0.689353883266449,-0.1343637853860855,-0.2672008574008941
0.8968894042968572,-1.789060030158609,0.0919765651687979,-0.2491033556401729,0.8130888938903809,-0.2227178812026977,-0.3242084681987762
0.9068557128905894,-1.6339781895183023,0.0544382771521806,-0.0126958154439926,0.8251734972000122,-0.3377300798892975,-0.3680988848209381
0.9168205566405874,-1.4190113506272437,0.0409916433408856,0.1541699864923953,0.7153234481811523,-0.4792539179325104,-0.4556705355644226
0.9267866210937399,-1.3894706372357903,0.0691828418195247,0.2198836908966302,0.5056079626083374,-0.6301458477973938,-0.5840567946434021
0.9367517089843602,-1.5278201003924012,0.0524620086431503,0.2038356424152851,0.2229285389184951,-0.7795550227165222,-0.7306110858917236
0.9467175292968761,-1.8424201566852627,0.025045009407401,0.042729134657979,-0.0911730527877807,-0.9069395065307616,-0.8571481704711914
0.956682617187468,-2.333371490009874,0.1613607747793197,-0.1014268228203058,-0.4168342351913452,-0.9919255375862122,-0.9689114093780518
0.9666474609374802,-2.841334894542396,0.4257940937593579,-0.3265478298485278,-0.7382450103759766,-1.0100685358047483,-1.0729498863220217
0.9766137695312267,-3.402569139882922,0.7564484821438789,-0.6190642107576132,-1.0249472856521606,-0.9459487795829772,-1.1509352922439575
0.986578369140588,-3.862563901668787,0.9580939210385084,-0.7747358339846133,-1.249994874000549,-0.7909870147705078,-1.1835485696792605
0.9965444335937406,-4.191408025760948,1.2140735921889545,-0.8309294303715229,-1.4160510301589966,-0.5460529327392578,-1.1997941732406616
1.0065095214843467,-4.340639094546437,1.5130018859669565,-0.9973048184424638,-1.4934178590774536,-0.2854028940200805,-1.2172237634658811
1.0164753417968768,-4.176659077179432,1.7326655043721195,-1.3691805672705173,-1.477927803993225,-0.0707478746771812,-1.2039105892181396
1.0264406738281195,-3.8678342432871458,1.8053168990850448,-1.6039029308587311,-1.3744909763336182,0.0834874957799911,-1.157379150390625
1.0364064941405928,-3.506249294587969,1.8075529875740408,-1.6484616190314292,-1.2135295867919922,0.1554112285375595,-1.0817126035690308
1.0463715820312274,-3.119250210908055,1.7814304120630025,-1.649592084366083,-1.030608057975769,0.1235228925943374,-0.9883289337158204
1.0563376464843515,-2.700525324882567,1.6458336086153984,-1.620544853579998,-0.8359261155128479,-0.0172629915177822,-0.8998576402664185
1.0663024902343494,-2.39772632715106,1.4934490442350503,-1.4569400992661714,-0.6527925133705139,-0.2171659618616104,-0.8137961030006409
1.0762675781249982,-2.2654558916471896,1.3628797135606407,-1.1454852091312409,-0.4873193800449371,-0.4405487179756164,-0.7385367751121521
1.086233642578108,-2.291692595057189,1.2564493833646178,-0.7867337302923202,-0.3458415269851684,-0.672810971736908,-0.6784098744392395
1.0961987304687284,-2.367353546849638,1.1654326031386852,-0.5138508551359177,-0.2061691433191299,-0.8757984042167664,-0.6393164992332458
1.10616455078123,-2.4345859852537517,1.047230878867209,-0.3357996423184871,-0.0480889789760112,-1.0490920543670654,-0.6175713539123535
1.1161296386718789,-2.522862819121778,0.9186854552358388,-0.1681108335614204,0.1315417736768722,-1.1731327772140503,-0.6076902151107788
1.1260957031249887,-2.5828221977829933,0.7259861238628625,0.0820037449479103,0.3111597597599029,-1.2602781057357788,-0.607914924621582
1.1360605468749867,-2.537052380254865,0.5958572304323315,0.2934954550743103,0.4682833552360534,-1.335121989250183,-0.6348967552185059
1.1460268554687332,-2.502103231948614,0.4989899706125259,0.5845230587303638,0.5970703959465027,-1.373559594154358,-0.7063111662864685
1.1559914550781087,-2.4109166481137274,0.3756678345873951,0.9679840314120054,0.6972540020942688,-1.4039316177368164,-0.7879684567451477
1.1659575195312328,-2.152095616057515,0.2333744561105966,1.199075929543376,0.7504693269729614,-1.4464645385742188,-0.8726727962493896
1.1759226074218532,-1.8576941520541903,0.1389683257073164,1.5117296740740538,0.7620458602905273,-1.4688304662704468,-0.9519785046577454
1.1858874511718795,-1.609573085449636,0.046833939628303,1.839883185553551,0.7254700660705566,-1.4859797954559326,-1.0189656019210815
1.1958535156249894,-1.4450455172024663,0.0096411040484905,2.08860134126842,0.6281986236572266,-1.4869742393493652,-1.0842125415802002
1.2058183593749874,-1.3524398603498935,0.0059890112817287,2.3519950880676506,0.4685550630092621,-1.4550617933273315,-1.1513609886169434
1.2157844238281115,-1.2910108475275337,0.0796671186938881,2.5683757392793893,0.2742340564727783,-1.358115315437317,-1.2166805267333984
1.2257495117187318,-1.265824237692356,0.162469905065,2.683672682020068,0.0655344799160957,-1.2212953567504885,-1.2708876132965088
1.235715576171856,-1.2492042345419525,0.2585843006908893,2.631601718521118,-0.1326278746128082,-1.074329137802124,-1.3282393217086792
1.2456806640624905,-1.147532131723687,0.4224567660301923,2.4837603505283594,-0.2886510789394378,-0.8995052576065063,-1.3789124488830566
1.255646484374978,-0.9546372047133744,0.4664703875407576,2.3292343902051447,-0.3714785575866699,-0.7301215529441833,-1.4072765111923218
1.2656115722656125,-0.6694245709463954,0.54959846034348,2.029721282276511,-0.3816511034965515,-0.6367847919464111,-1.428209900856018
1.2755766601562328,-0.3423869117543101,0.6181614166989922,1.7030267374336718,-0.3402666449546814,-0.6207083463668823,-1.45073139667511
1.2855424804687345,-0.1048078435607254,0.6392571039587259,1.587836177676916,-0.2647236883640289,-0.6151143908500671,-1.4836028814315796
1.2955075683593549,0.0923312968906015,0.6402262412518263,1.5491361524045466,-0.179329976439476,-0.6536697745323181,-1.5148364305496216
1.305473632812479,0.266226778268069,0.5343649431154132,1.5050702161848544,-0.0937793999910354,-0.7123532891273499,-1.5502971410751345
1.3154387207031135,0.448021853788942,0.4564388228699564,1.514284034731984,-0.0447974763810634,-0.789166271686554,-1.5861326456069946
1.3254045410156152,0.5887775013044476,0.3365741338223219,1.5238281081467866,-0.0476472526788711,-0.8583498001098633,-1.6103934049606323
1.3353696289062356,0.7227007455166429,0.2275666466146707,1.6425585324674843,-0.0947399362921714,-0.8909404873847961,-1.6150976419448853
1.3453356933593597,0.8416901130344718,0.0175777422666549,1.593334190571308,-0.1626040339469909,-0.8882003426551819,-1.5804855823516846
1.3553002929687352,0.9154050453256816,-0.1470297593489289,1.4265584050059317,-0.2423148453235626,-0.8303282856941223,-1.549289345741272
1.3652666015624675,0.9406476961970328,-0.3278080590426921,1.2328139484941958,-0.2943271994590759,-0.7202349901199341,-1.4971861839294434
1.3752314453124797,0.8650208658698946,-0.6534466650918126,1.0193646745592355,-0.3245905637741089,-0.5458687543869019,-1.407791256904602
1.3851965332031142,0.8812552307035774,-0.8338736671298742,0.9678443306803702,-0.3625194430351257,-0.3132971525192261,-1.3283278942108154
1.3951625976562383,0.9296792160023004,-0.8217574051395058,0.867977596783638,-0.3974529206752777,-0.0855121836066246,-1.2480511665344238
1.4051274414062362,1.136054386832565,-0.931572409337759,0.6087187578320503,-0.391434758901596,0.1145972460508346,-1.137821912765503
1.4150935058593603,1.651436543188989,-0.94676091838032,0.3653811261117458,-0.3444603085517883,0.2371684312820434,-1.0113736391067505
1.4250583496093583,2.32114022333771,-0.9836492180556058,-0.0634527737349271,-0.2689801752567291,0.2646929323673248,-0.8742192387580872
1.435024658203119,3.000479162316024,-1.199042027273774,-0.3404074283748864,-0.1798993051052093,0.2297972738742828,-0.7354235053062439
1.444989501953117,3.287580824699998,-1.3751990969076753,-0.5744622679650783,-0.0860026329755783,0.1348721086978912,-0.6200442910194397
1.4549555664062268,3.2196263556316493,-1.4060940013870595,-0.92013799213171,-0.0169178377836942,0.0275448597967624,-0.5257468223571777
1.4649206542968756,3.0400258675456047,-1.6584572356060143,-1.0714338844925164,0.0232645384967327,-0.0502976737916469,-0.4514897465705871
1.4748864746093489,2.852029891557992,-1.8313944664105768,-1.106019460183382,0.022093279287219,-0.0509613342583179,-0.4174308478832245
1.4848515624999976,2.720023806078732,-1.8153513863652944,-1.122319437599182,-0.0279099810868501,-0.0070212739519774,-0.4024260640144348
1.4948166503905895,2.6565824305206536,-1.8711855017900465,-1.2103075176537037,-0.1195533499121666,0.0480489023029804,-0.3789007663726806
1.5047824707031197,2.633907657375932,-1.881210928981006,-1.5284510917723175,-0.2226652950048446,0.0896577164530754,-0.3477906882762909
1.5147473144531176,2.6599507379099725,-1.8112053726017476,-1.8904869991093876,-0.3130950629711151,0.161687970161438,-0.321215271949768
1.5247133789062275,2.7590143387302755,-1.875330931031704,-2.188701299399137,-0.3880874216556549,0.237554132938385,-0.2759671211242676
1.5346784667968763,2.814581619912386,-1.785937075832486,-2.643174082893133,-0.4772087931632995,0.2581904232501983,-0.2240027338266372
1.5446442871093495,2.7579811962902543,-1.4129872680321336,-3.066637980139255,-0.5842894911766052,0.2330882102251052,-0.1815597862005233
1.5546096191405923,2.5790643065541983,-1.003863738566637,-3.315404066649079,-0.6786817908287048,0.2125027775764465,-0.1247231364250183
1.5645754394531082,2.285692185598612,-0.588927723430097,-3.4683675999611614,-0.7182003855705261,0.2396344393491745,-0.0539749003946781
1.5745402832031203,1.9575749144762755,-0.1744365294516086,-3.528371110025048,-0.6996400356292725,0.3287904262542724,0.0177051462233066
1.5845065917968526,1.6574705626562236,0.3371758991077542,-3.5283161649674173,-0.616566002368927,0.4495025277137756,0.081450916826725
1.594471435546879,1.4549445415347817,0.7242001172289252,-3.496374966305494,-0.4770683348178863,0.5666185021400452,0.1625588089227676
1.604436523437471,1.3179160978488624,1.014775885464251,-3.3439994620144367,-0.2810529470443725,0.6751179099082947,0.2639340162277221
1.6144025878906092,1.2834744606733322,1.187499765779078,-3.258160084426403,-0.0524181649088859,0.732627272605896,0.392154335975647
1.6243676757812295,1.39124772991091,1.3318667356595395,-3.043177025052905,0.1805096119642257,0.7516616582870483,0.509116530418396
1.6343334960937312,1.58127345816046,1.4317749706104397,-2.7646131816506383,0.3766423761844635,0.7114468812942505,0.5897168517112732
1.6442985839843516,1.741273758241534,1.5162734549835324,-2.4251181919455527,0.5446984767913818,0.6476357579231262,0.6458662152290344
1.6542646484374899,1.871132310298085,1.4704589215308428,-2.037382026162744,0.6914679408073425,0.5831976532936096,0.707852840423584
1.6642294921874736,1.9896639971762893,1.4163126130625605,-1.6196686552673578,0.7896244525909424,0.5319948196411133,0.7759777307510376
1.674195556640612,1.9753692221030592,1.3350687465712427,-1.167758415737748,0.8432967066764832,0.5023858547210693,0.826457679271698
1.6841606445312323,1.8074812375120817,1.2778098590403797,-0.7555448113024235,0.862595796585083,0.4749269187450409,0.8220300078392029
1.694126464843734,1.6452642842948435,1.2364286318600175,-0.3448164769887924,0.8405019640922546,0.4869526922702789,0.7858222126960754
1.7040915527343543,1.4221208609499036,1.197816869392991,0.0500689760267734,0.8026161789894104,0.5149815082550049,0.7339047789573669
1.7140563964843523,1.176761879469827,1.2745344906315206,0.3871154035359621,0.7576199173927307,0.6073548793792725,0.6673707962036133
1.7240224609374906,1.1100609175939111,1.351116795052588,0.870012317481637,0.7275932431221008,0.7806806564331055,0.6061718463897705
1.733987548828111,1.2005127574134618,1.3845540774911642,1.3800935909509655,0.7218767404556274,1.01409912109375,0.5427159070968628
1.7439533691406126,1.2628564739279449,1.4171785822421312,1.729707239088416,0.7506460547447205,1.231411695480347,0.5058256387710571
1.753918457031233,1.2064506960950792,1.3927429369047284,1.943987118628621,0.7812960743904114,1.3903080224990845,0.4830635786056518
1.763884521484357,1.0250785952266306,1.4275877480536698,2.0686258902102708,0.7603068947792053,1.4743857383728027,0.4565410614013672
1.7738496093749774,0.6858116421237588,1.502363003052771,1.9890373897105451,0.6810683012008667,1.414077639579773,0.4179659783840179
1.783815429687479,0.486135676671192,1.8137223238587377,2.008109169927239,0.5792564749717712,1.3304487466812134,0.346951425075531
1.7937805175781136,0.2072434780973941,1.887630440634489,2.2494763783574103,0.4858895242214203,1.303476333618164,0.2807345986366272
1.8037465820312377,-0.1292199618920683,1.932599170912802,2.324677457553148,0.4110281765460968,1.31240713596344,0.2311054468154907
1.8137114257812357,-0.3045079936064779,1.9451143690928816,2.074123318582773,0.3399302959442138,1.328382968902588,0.2420441061258316
1.8236774902343598,-0.4672027934685349,1.6499401671513914,1.6101736816912888,0.2731716632843017,1.3285894393920898,0.3354384899139404
1.8336425781249943,-0.6153374453194439,1.4546607561573386,1.4420575874328612,0.2076003551483154,1.350396990776062,0.4751047790050506
1.8436076660156147,-0.6095407417394221,1.4478034376084803,1.3572902229905128,0.1623363941907882,1.3686193227767944,0.6034380197525024
1.8535737304687387,-0.6496639316827059,1.442572551217675,1.2233458629250529,0.1294759213924408,1.3680648803710938,0.6866599321365356
1.8635385742187367,-0.7536044908896088,1.4587076934605836,0.9973749610692262,0.101636417210102,1.3234405517578125,0.7267608046531677
1.873504638671875,-0.7720490791186689,1.4644482829391956,0.806495830860734,0.0982004106044769,1.2659107446670532,0.7436833381652832
1.883469482421873,-0.6477544447995722,1.3859931703835724,0.820369457912445,0.1198463663458824,1.2219830751419067,0.7659116983413696
1.8934353027343604,-0.5379848871782422,1.236426293772459,0.7925421243101358,0.1485009044408798,1.1818209886550903,0.7790586352348328
1.903400390624995,-0.4564207026913762,1.1952017184585333,0.6718026982545853,0.1529651284217834,1.1032816171646118,0.7874111533164978
1.913366455078119,-0.3903621303722262,1.1140373469442129,0.4627753324151039,0.1234458610415458,0.9899904131889344,0.8075960278511047
1.9233315429687394,-0.4172827243931591,0.968240051999688,0.4221282647281885,0.0819550678133964,0.92091304063797,0.8343526721000671
1.933297363281227,-0.5207249786891043,0.8838011888593434,0.3885094882428646,0.0227820258587598,0.8894315361976624,0.8394579291343689
1.9432624511718757,-0.6353472370386123,0.7168763502120972,0.1191483574718236,-0.0524082519114017,0.8623661398887634,0.8329256176948547
1.9532285156249998,-0.7246830784402787,0.5350239915460347,-0.2004185274481773,-0.1193340197205543,0.8603906035423279,0.8093089461326599
1.9631933593749977,-0.8341488308094441,0.4474573517739773,-0.3746972359895706,-0.169465035200119,0.8937954902648926,0.791411280632019
1.97315966796873,-1.0482438553020357,0.3672048344075679,-0.5592512548297643,-0.2108489573001861,0.9317353963851928,0.7746562957763672
1.983124511718728,-1.3004454692184924,0.3774684542685746,-0.7788572978287934,-0.2345246076583862,0.9875962138175964,0.7358468770980835
1.9930895996093483,-1.5136412067838012,0.3525134612321853,-0.8131552887499331,-0.2297471612691879,1.048384428024292,0.6839264035224915
2.0030556640624724,-1.531047684136778,0.3374158453434706,-0.9077414518952368,-0.214252695441246,1.056515336036682,0.5958768129348755
2.0130205078124703,-1.3460844999738035,0.3775800979495048,-0.9849673149168492,-0.1749223321676254,0.9697532653808594,0.4775354564189911
2.0229865722656086,-1.1900643555700778,0.3080681703060865,-0.993831589373946,-0.1284184455871582,0.7744094729423523,0.3694106936454773
2.0329514160155924,-1.0958151692941784,0.2251531557321548,-1.0678396593928337,-0.0918013229966163,0.499432235956192,0.3010265827178955
2.042917724609353,-1.1070270297907292,0.1078740992635488,-1.094350065177679,-0.0429873839020729,0.2142663896083831,0.2644591331481933
2.052882568359351,-1.1979650456920266,-0.0278068753361701,-1.0516180079102515,0.022154863923788,-0.0256572440266609,0.2523947358131408
2.0628486328124893,-1.3546429233521222,-0.1457663152843713,-0.9909802915960548,0.0918409004807472,-0.187488779425621,0.2525499761104584
2.072813476562473,-1.513537161887437,-0.2175146236777305,-0.9196218593031168,0.1593802571296692,-0.2652967572212219,0.2407955974340438
2.082779296874989,-1.6095782000161707,-0.2643576233953237,-0.8271674474895,0.2087470740079879,-0.2822796404361725,0.2183966785669326
2.0927446289062317,-1.5801304256051778,-0.4316594786614179,-0.7473550751060247,0.2240067273378372,-0.2458915561437606,0.203722670674324
2.1027104492187334,-1.4592504220351576,-0.7531921106964349,-0.6779939541101455,0.2027403265237808,-0.172685220837593,0.2174776643514633
2.1126752929687314,-1.2625342562362551,-1.1094903511643408,-0.515125697377324,0.1498837620019912,-0.0684791952371597,0.2476270347833633
2.122641601562478,-0.980073697656393,-1.4496797528743743,-0.4247825786292553,0.0616993084549903,0.0153802894055843,0.2931103706359863
2.13260644531249,-0.7122191720560193,-1.7141051808089016,-0.3504097669512033,-0.0392403528094291,0.0589101910591125,0.3361231088638305
2.1425715332031103,-0.6485638614863157,-1.667815138798952,-0.3491466151475906,-0.1490405797958374,-0.0149769317358732,0.3496760129928589
2.1525375976562344,-0.7839151657402514,-1.3935533765047787,-0.5300590626150369,-0.2822497487068176,-0.2307845950126648,0.3181433975696563
2.1625026855468548,-1.0820813891045749,-1.1129337696164845,-0.7806248920232057,-0.4333362877368927,-0.532782793045044,0.2366033345460891
2.1724685058593565,-1.4167720472678542,-0.9063473671883344,-0.968191536682844,-0.5682488083839417,-0.8528633117675781,0.1267692446708679
2.1824333496093544,-1.8581208530336617,-0.6876116772830486,-1.1445873835086822,-0.6774972677230835,-1.1474040746688845,-0.0033563999459147
2.192399658203115,-2.269262444323301,-0.4297130207687616,-1.3759271189212798,-0.7622454166412354,-1.3804969787597656,-0.1293686628341674
2.202364501953113,-2.5448127851232885,-0.1601420466393232,-1.4372428806275128,-0.8075876235961914,-1.4748077392578125,-0.2591463625431061
2.212330566406237,-2.739193785972893,0.0878302591443061,-1.3948445853590965,-0.8018751740455627,-1.4013053178787231,-0.3670736253261566
2.2222956542968575,-2.8765827335342764,0.2169663421452045,-1.4252233570098876,-0.740673840045929,-1.181686282157898,-0.4231809377670288
2.232261474609359,-2.8667145427316427,0.2643517781764268,-1.30356447802186,-0.6366973519325256,-0.8562517762184143,-0.4169371426105499
2.2422265624999937,-2.668510184201598,0.331385333007574,-1.1473206078648566,-0.5136328339576721,-0.5483515858650208,-0.3610014915466308
2.252192626953118,-2.36038400009796,0.3358119172781705,-1.1423171004891397,-0.3689353466033935,-0.3472413420677185,-0.2976539433002472
2.262157470703116,-2.0255944116048514,0.3505079666286707,-1.087346908417344,-0.2379186451435089,-0.2834540903568268,-0.2561571896076202
2.2721237792968765,-1.8435411235392087,0.3781239955678582,-0.9245324276983736,-0.1314846128225326,-0.3184432089328766,-0.2316174656152725
2.282088378906238,-1.789096708907187,0.3588654606074095,-0.6439058065474033,-0.0417162962257862,-0.4315498173236847,-0.2328562438488006
2.2920544433593477,-1.7370991029053926,0.4343921184957027,-0.4380629159629344,0.0375103503465652,-0.5955816507339478,-0.279790461063385
2.30201928710936,-1.814183219368756,0.5264493476852774,-0.1901321112334728,0.1032874807715416,-0.7665902972221375,-0.3593185842037201
2.3119846191405884,-1.962299312649667,0.6245858967885375,0.1923427730202674,0.1528774052858352,-0.8904784321784973,-0.4619941115379333
2.3219504394531185,-2.109573402148485,0.7118611523985863,0.5871031383514403,0.1747634708881378,-0.9607665538787842,-0.5675309896469116
2.331915527343739,-2.134972924081981,0.7609165674686431,0.8966343669474124,0.1791502237319946,-0.9906435012817384,-0.6609120965003967
2.341881591796877,-2.0703018605984744,0.8612214005216956,1.2898545170992612,0.1670544594526291,-0.9658623337745668,-0.7434554100036621
2.351846435546875,-1.9503888023644684,0.975273311637342,1.609061336535215,0.137916013598442,-0.9265191555023192,-0.8114166259765625
2.361812499999999,-1.8001719374120235,0.9935101023346186,1.704347172382474,0.1015240997076034,-0.8823453783988953,-0.869753360748291
2.371777587890591,-1.641626804575324,1.00755996273607,1.8967361226320263,0.0719656720757484,-0.8387936353683472,-0.9044529795646667
2.3817436523437294,-1.4734604414343833,1.0671370640814304,2.122621099770069,0.017048854380846,-0.7863098382949829,-0.9299988746643066
2.3917087402343498,-1.331601362721622,1.1355343084812164,2.157303121572733,-0.0476553067564964,-0.7622063755989075,-0.9721460342407228
2.401674804687474,-1.1851615320898592,1.1390890783533454,2.04236741335988,-0.1203989535570144,-0.7641961574554443,-1.023154616355896
2.4116398925781084,-1.042582687735185,1.126586447393894,2.029384597668052,-0.1768172234296798,-0.7709975838661194,-1.0655475854873655
2.4216059570312325,-0.9152091574274004,1.1039169349461793,2.027549198934436,-0.2253971844911575,-0.7750036120414734,-1.101224660873413
2.4315708007812304,-0.7883882195010781,1.105550965888798,1.8899071533948184,-0.2594701945781708,-0.7793607711791992,-1.1334705352783203
2.4415368652343545,-0.6611253099609166,1.0481845263302323,1.8145435771137477,-0.2643828690052032,-0.7732127904891968,-1.1534794569015503
2.4515017089843525,-0.513285732066445,0.9776800805181264,1.805907266193628,-0.2570309638977051,-0.7487130165100098,-1.1571495532989502
2.4614677734374766,-0.3279438507841899,0.8998302403792738,1.7890262740194796,-0.2444480657577514,-0.7240936756134033,-1.1468874216079712
2.4714326171874887,-0.1628410399323329,0.7766451747372746,1.7492291011601686,-0.2281817495822906,-0.7062765955924988,-1.1209654808044434
2.481398925781235,-0.0434100661268457,0.6575055850937962,1.7094184842973947,-0.2283726930618286,-0.7128679156303406,-1.1011334657669067
2.491363769531233,0.0350462885377928,0.5680097308248281,1.6272370446950195,-0.2426062226295471,-0.7256912589073181,-1.101315140724182
2.501328613281231,0.0911661255687475,0.4503805457442998,1.4986369682669638,-0.2632844746112823,-0.746138334274292,-1.1085456609725952
2.511294677734355,0.0882625861469656,0.2879015805900097,1.368214937108755,-0.2839881479740143,-0.7503677010536194,-1.1196783781051636
2.5212597656249898,0.1298382764535024,0.0869663357913494,1.2347615754306316,-0.3141553997993469,-0.7352361679077148,-1.1230978965759275
2.5312255859374773,0.2732110111322254,-0.1671867044538259,1.084336620685458,-0.35651296377182,-0.7052313685417175,-1.1175391674041748
2.541190673828112,0.4007014458179473,-0.4023483362421393,0.9842758255213498,-0.4111887812614441,-0.6515701413154602,-1.0983126163482666
2.551156738281236,0.5592653929529712,-0.640101738089323,0.8593710964798926,-0.4652544260025024,-0.5787590146064758,-1.061900973320007
2.5611218261718562,0.7705708232596516,-0.9408233450248836,0.7343529701918363,-0.5113421082496643,-0.4963680207729339,-1.0154998302459717
2.5710878906249945,1.0264486414708196,-1.2587734423980117,0.5523001205176115,-0.5463917255401611,-0.4352950751781463,-0.9467812180519104
2.5810527343749783,1.2816609815105795,-1.5370356725052,0.2607066996723413,-0.5613783597946167,-0.4208393096923828,-0.8733840584754944
2.5910187988281166,1.4945817015267908,-1.8029340956017372,-0.0841734902024269,-0.5456023216247559,-0.4491985142230987,-0.7859527468681335
2.6009836425781145,1.6113550004303454,-1.9902292298436164,-0.4332926328212022,-0.5093679428100586,-0.5091496109962463,-0.7072699666023254
2.6109499511718752,1.6581398402199148,-2.0693015975147486,-0.8534750241786241,-0.4550639688968658,-0.5958179235458374,-0.6423748731613159
2.620914794921873,1.5869263693556188,-2.08148800213188,-1.1822896299153565,-0.390240877866745,-0.6846888661384583,-0.5750032067298889
2.6308808593749973,1.4225234504014252,-2.032595084147155,-1.4274614913254975,-0.3191115856170654,-0.7544253468513489,-0.5120471119880676
2.640845947265589,1.2398732193559407,-1.9225678985029455,-1.6781553310275077,-0.2518952786922455,-0.805830180644989,-0.4814858436584472
2.6508117675781193,1.1848662754703312,-1.8282275268122552,-2.069629514294862,-0.1754287332296371,-0.8276856541633606,-0.4757770895957947
2.6607766113281173,1.1840186456650494,-1.8476964896529915,-2.3359873715966937,-0.0725666880607605,-0.7733601927757263,-0.4728071391582489
2.670742919921878,1.268920450142026,-1.86094058662951,-2.5526661289721724,0.0388863421976566,-0.6973676681518555,-0.4637444019317627
2.6807075195312393,1.3776266163155435,-1.833530309395492,-2.757193260782957,0.130747452378273,-0.5896106362342834,-0.4510133862495422
2.690672607421874,1.519215792045742,-1.8154589383929969,-2.796938411194086,0.1930566430091858,-0.455499917268753,-0.42678102850914
2.700638671874998,1.7771629638768731,-1.8147449449047448,-2.8310364956289527,0.2058186531066894,-0.3178820312023163,-0.404675155878067
2.71060375976559,2.137678237517923,-1.8007716568708418,-2.870620902520418,0.1866148710250854,-0.1749597787857055,-0.3961948454380035
2.72056958007812,2.495194183212518,-1.7637310892432927,-2.911611669078469,0.1435680836439132,-0.0497955158352851,-0.372528612613678
2.7305349121093485,2.707083952745795,-1.663792751415074,-3.022504823902249,0.0644636675715446,0.0243964232504367,-0.326124906539917
2.7405007324218786,2.724196123327314,-1.3154957388341426,-3.1346137842565773,-0.0576276592910289,0.0502630472183227,-0.2751947045326233
2.7504655761718766,2.639285843282938,-0.8685191563144325,-3.2307828326791523,-0.1909156739711761,0.0522971712052822,-0.2131147980690002
2.760431884765609,2.4983254669755697,-0.4854816697418689,-3.333951530730724,-0.2826337218284607,0.0654503032565116,-0.119276650249958
2.7703967285155926,2.297433038405329,-0.0680137980401515,-3.407522378376126,-0.3011602759361267,0.0978713631629943,-0.0295955017209053
2.7803625488281085,1.996454826360196,0.3880503462985157,-3.4859827516287565,-0.2390292733907699,0.1612077802419662,0.0543467588722705
2.7903278808593512,1.633353189487755,0.7843442048072814,-3.453874964228272,-0.0904483124613761,0.2623945772647857,0.1265282779932022
2.800293701171853,1.3796052229121327,1.150322712290287,-3.2994559714108704,0.1219626739621162,0.3989393413066864,0.2030955702066421
2.8102587890624733,1.281989628943056,1.3385402220740914,-3.008658084857464,0.3565296530723572,0.5494417548179626,0.2909631133079529
2.8202248535156116,1.3578700687050818,1.396565710063279,-2.7006045275986192,0.5823699831962585,0.670933723449707,0.3739291727542877
2.830189941406232,1.5268193989172576,1.3356921391665937,-2.317532846495509,0.7567242383956909,0.7569580674171448,0.45119708776474
2.840156005859356,1.5859017024829982,1.2229635856091976,-1.8017472239047287,0.8741912245750427,0.8149310350418091,0.5201115012168884
2.8501206054687316,1.5976970619559288,1.1041793852746489,-1.3473971900075674,0.9090842008590698,0.8228121399879456,0.5822142958641052
2.860085693359352,1.580644512607157,0.9438257417112588,-0.9129694156765936,0.893924355506897,0.8062922358512878,0.6123025417327881
2.8700515136718536,1.4721410293988884,0.8309645016849041,-0.5480547380328178,0.8305432796478271,0.7562631964683533,0.6144620776176453
2.8800168457031106,1.3246256784901025,0.8071747530356049,-0.2750058586597442,0.7236435413360596,0.6947934031486511,0.5912495255470276
2.8899826660156123,1.1885654222492128,0.8387222762048244,-0.0497907436072826,0.6039994359016418,0.6380683183670044,0.5520073175430298
2.8999477539062326,1.016639779639989,0.8987421528816223,0.1220113456875085,0.5062304735183716,0.6091124415397644,0.5117528438568115
2.9099138183593567,0.770608378791064,0.9859113177686928,0.3355097194612026,0.435031920671463,0.6347326040267944,0.4899103939533233
2.9198786621093547,0.5141101271266117,1.0639870756179093,0.4744529107272625,0.3911548256874084,0.6885234713554382,0.4770674109458923
2.9298447265624787,0.3326579832918941,1.1765104619920252,0.540812511819601,0.3822318911552429,0.7517330646514893,0.4687927067279815
2.9398098144531133,0.2418766557896509,1.227636253595352,0.6439385397732258,0.4107827544212341,0.7874287366867065,0.4553832113742828
2.949775634765615,0.2462093146990984,1.2953671430408953,0.7673825486123561,0.4449122250080108,0.7703275084495544,0.4388359189033508
2.9597407226562353,0.3507314001210033,1.3443617678344248,0.9832429753422736,0.4684940576553345,0.7242063879966736,0.443487286567688
2.9697067871093594,0.3340007031377405,1.3904331986576317,1.2937182067900896,0.4752217233181,0.681513249874115,0.4718110561370849
2.979671874999994,0.3100210579395294,1.4356792845726012,1.61608378251791,0.4782344102859497,0.6490203142166138,0.5154287815093994
2.9896376953124673,0.298320683273673,1.4431559040635824,1.924137924298644,0.4654573798179626,0.6411924362182617,0.5633353590965271
2.999602783203116,0.3750024294812232,1.4903382187381389,2.286625667056441,0.4265978336334228,0.6982347965240479,0.6083182096481323
3.0095678710937364,0.4407820387285202,1.4228849771901964,2.6215005957454443,0.4151347875595093,0.8039116859436035,0.6732676029205322
3.019533691406238,0.5274266682848334,1.358623225159943,2.7829706761181354,0.4251684546470642,0.9018548727035522,0.7074580788612366
3.0294990234374666,0.5139239934373646,1.2547563157111403,2.852978278324008,0.452347069978714,1.017005443572998,0.7106704115867615
3.0394648437499967,0.3609034692410379,1.364194011029601,2.847709398010373,0.443149983882904,1.123051643371582,0.6618437170982361
3.0494296874999947,0.2860505458958446,1.5925263813197612,2.498349432373047,0.452233225107193,1.172868728637695,0.531460702419281
3.0593957519531187,0.0877881735682487,1.5743500886380672,2.0773773519426584,0.5296682715415955,1.13802969455719,0.3548938632011413
3.0693605957031167,-0.4130457444105297,1.737186196666956,1.948704210278392,0.6923591494560242,1.1715649366378784,0.1677971929311752
3.0793266601562266,-0.9439815167948604,1.8281617680996656,1.7098358329266308,0.9206093549728394,1.236681580543518,0.0440503284335136
3.0892917480468753,-1.4367964520342646,1.509580971607566,0.6313818405389785,1.0827994346618652,1.1652956008911133,0.0010698409751057
3.0992575683593486,-1.787747193994373,1.35177467443943,-0.2507540454566478,1.1612727642059326,1.0364439487457275,0.0023959418758749
3.1092226562499974,-1.69604608476609,1.2696464263290166,-0.5380465542376041,1.1716703176498413,0.9591142535209656,0.0326734185218811
3.1191887207031073,-1.379849699192494,1.0093284337133168,-0.4266635700702667,1.1257792711257937,0.9780606627464294,0.1223166584968566
3.1291538085937276,-1.0533068377800283,0.67871291603446,-0.4241612318605184,1.015548586845398,1.0070278644561768,0.3009146451950073
3.1391186523437398,-0.7094041146352886,0.3971469682067632,-0.7287737087547779,0.8122427463531494,0.9458847045898438,0.5456624627113342
3.149084960937472,-0.467043072862178,0.2848445311069488,-1.060240874826908,0.5615341067314148,0.805993378162384,0.7900655269622803
3.15904980468747,-0.2634809866912663,0.432424033293128,-1.1312906795620918,0.362748384475708,0.6554664373397827,0.93982595205307
3.169015625,-0.2734393399953842,0.4766378535509109,-1.186429213938117,0.2150430977344513,0.508931040763855,1.024214267730713
3.1789809570312286,-0.4329503952547907,0.3945908539831638,-1.144024488928914,0.0973972678184509,0.4172085225582123,1.0991015434265137
3.1889467773437303,-0.5896295880891382,0.3890086699366569,-1.0969003341823815,0.0318704545497894,0.332048624753952,1.1594572067260742
3.1989118652343507,-0.7490573489792645,0.4100216473489999,-1.439396843791008,0.0012222658842802,0.1668322384357452,1.1589720249176023
3.208877929687489,-0.875771319399774,0.4606254609048366,-1.7671815219581126,0.0456661619246006,0.008830351755023,1.0552860498428345
3.2188430175781093,-0.943588425824046,0.4774555996745824,-1.89152627902925,0.1439880281686782,-0.1367476135492324,0.8874677419662476
3.228808837890611,-0.9344764602161943,0.4450286633223295,-1.9857418552964925,0.2642965912818908,-0.2608855366706848,0.708109974861145
3.238773681640609,-0.8098521555513143,0.4101321219861507,-1.9668144519865511,0.3860218524932861,-0.3845807909965515,0.5732851028442383
3.2487387695312293,-0.5997634440906345,0.2376490646898746,-1.8754139331400392,0.4746657013893127,-0.5006256699562073,0.4991387128829956
3.258704589843731,-0.3357860521845519,0.0398147085160017,-1.616003118497133,0.5234283804893494,-0.5831009745597839,0.4536498188972473
3.2686696777343514,-0.20616006677486,-0.1071212350696325,-1.232269174093008,0.5267655849456787,-0.6286990642547607,0.4212282299995422
3.2786357421874897,-0.2166597604140639,-0.265080676972866,-0.8760334774672984,0.4839343130588531,-0.6396368145942688,0.3781148195266723
3.2886005859374734,-0.301891381367296,-0.4477297389745712,-0.4606196156859398,0.3985357880592346,-0.5915632843971252,0.3273714780807495
3.298566894531234,-0.2762145037971437,-0.7116179912924766,-0.1149731176137924,0.2708059549331665,-0.521569550037384,0.2944191396236419
3.308531738281232,-0.1673786468293517,-1.0159726940333842,0.2407669044494629,0.1130703911185264,-0.4528216123580932,0.2630846798419952
3.318497802734356,-0.1249078708466142,-1.0747831949204203,0.4386187962800264,-0.0883356183767318,-0.434911847114563,0.2250206768512725
3.3284628906249907,-0.2783833722688257,-0.9269687149345874,0.391690456366539,-0.305462896823883,-0.4900073409080505,0.1690876334905624
3.338428710937478,-0.769925291897729,-0.6570739156782627,0.1614344245374202,-0.5239354968070984,-0.5630360245704651,0.096007227897644
3.3483937988281127,-1.314515495625138,-0.3296031257659196,-0.0647755467712879,-0.6996692419052124,-0.5854012370109558,0.0287453681230545
3.3583586425781107,-1.6802547875247895,-0.132178519436717,-0.2376356206864118,-0.8227277994155884,-0.5065799951553345,0.0017273556441068
3.368324951171857,-1.926303577899933,0.0130979665040969,-0.4534001858264208,-0.89424729347229,-0.3576512634754181,-0.0095956055447459
3.3782900390624775,-2.0373948856443165,0.2392576689302921,-0.6832908914744854,-0.9199108481407166,-0.1926175355911255,-0.0276105385273695
3.3882561035155874,-2.0497072547286748,0.4618097022533416,-0.9260971927970648,-0.9018018841743468,-0.0543046742677688,-0.0479789301753044
3.398221191406236,-1.978327487386763,0.6361579688996076,-1.1467302407562732,-0.8108183145523071,0.0309373922646045,-0.0675877481698989
3.408187011718738,-1.8257856866180893,0.7910182757437229,-1.2060305709868668,-0.6311654448509216,0.0822889953851699,-0.0820511057972908
3.418151855468736,-1.5970568643562495,0.8830769662380218,-1.0951397542506456,-0.399135023355484,0.1130803823471069,-0.0637574046850204
3.428117919921874,-1.356972535343468,0.9538532147288322,-0.8831488624304532,-0.171973243355751,0.1101610288023948,-0.0216589495539665
3.43808300781248,-1.1030422710034995,0.9311538916647434,-0.5161556249469519,0.0073833474889397,0.06141247600317,0.043466068804264
3.448047851562478,-0.8609109463330358,0.8430997606366872,-0.1072983452022075,0.1251254230737686,-0.0326053649187088,0.1044018566608429
3.458013916015588,-0.7140965833004563,0.7954115422666073,0.3193032655477523,0.1809243559837341,-0.1485009044408798,0.1423574686050415
3.467979003906237,-0.6940143108669669,0.7346686120122671,0.6828501619696616,0.1677662134170532,-0.2807300388813019,0.1487900614738464
3.4779450683593467,-0.7523794791392981,0.7116928100943565,0.984113328436017,0.0817724093794822,-0.4010200202465057,0.1191736906766891
3.4879101562499955,-0.8424461190335452,0.7026292136728763,1.2526917843967675,-0.0746315717697143,-0.48995041847229,0.071389652788639
3.4978759765624687,-0.943646658817306,0.6822299842447042,1.3911258570969105,-0.2668750286102295,-0.5220043063163757,0.0168337151408195
3.5078408203124667,-1.0552430665396153,0.7159498830169438,1.5242542246043682,-0.4653415381908417,-0.4915283918380737,-0.0353341475129127
3.5178071289062274,-1.09938396769166,0.719974316227436,1.5645985099524258,-0.6632379293441772,-0.4298079907894134,-0.0716801062226295
3.5277719726562395,-1.0931678696557878,0.7361264096051454,1.4607815771251915,-0.8524712324142456,-0.3458071053028106,-0.096297301352024
3.5377380371093494,-1.116474803224206,0.7482716054290532,1.368123751693964,-1.014782190322876,-0.2361087799072265,-0.1313249468803405
3.547703124999998,-1.1110505131531505,0.7526210328102111,1.1278145278841256,-1.130629539489746,-0.1304713040590286,-0.163345456123352
3.55766821289059,-1.0723157088283448,0.793897630572319,1.0528531026631591,-1.187425136566162,-0.0259738694876432,-0.1939261555671692
3.5676340332031202,-0.9876067235097288,0.8547083653658628,0.852915636730194,-1.188642144203186,0.0522985644638538,-0.2146005481481552
3.577598876953118,-0.8897612663075327,0.833622322717309,0.8149789970457554,-1.136884689331055,0.1376727968454361,-0.230755865573883
3.587565185546879,-0.83054306140244,0.8213631451249123,0.7484943082690239,-1.066967487335205,0.1901871412992477,-0.2509276866912842
3.5975297851562402,-0.7578571798980236,0.7826818245530128,0.6704997989624738,-1.006196141242981,0.208289697766304,-0.2779443264007568
3.60749584960935,-0.6258830969922244,0.6614379561066627,0.6547901886552572,-0.9381949305534364,0.2121291756629943,-0.306365042924881
3.617460937499999,-0.5047550369452685,0.4930766549155115,0.637481326457858,-0.8339415788650513,0.1912497580051422,-0.3258009850978851
3.627426757812472,-0.4134353282500058,0.4407034935995936,0.4939122289568186,-0.7129741311073303,0.1279956847429275,-0.3381090462207794
3.637392089843729,-0.2951646303955465,0.3685542031899094,0.3851268600672483,-0.5960854887962341,0.0274843778461217,-0.3356380760669708
3.647356933593727,-0.2184299118917435,0.2190697441652417,0.3228624193340539,-0.4669965207576751,-0.0838189721107482,-0.3237206935882568
3.6573229980468795,-0.2137258258540183,0.1212491291433572,0.3485656003892421,-0.302063912153244,-0.1718242466449737,-0.3095240592956543
3.6672880859374715,-0.2318545530669391,0.055441024453938,0.4556915116339922,-0.1391375511884689,-0.240527406334877,-0.2983004152774811
3.6772539062499874,-0.2432967151880264,-0.1094087614849209,0.6264473067462444,0.0013344720937311,-0.2520582377910614,-0.2918769121170044
3.6872189941405935,-0.2332302253343164,-0.3419514429464936,0.8753560165971517,0.1074246913194656,-0.2225900739431381,-0.2769352495670318
3.697185058593732,-0.1833550913792103,-0.5495721568584442,1.094456448161602,0.1664558202028274,-0.1711771041154861,-0.260797917842865
3.707150146484352,-0.1921395785983651,-0.7182263035163283,1.12038408562243,0.1744176149368286,-0.1482211947441101,-0.2601334452629089
3.717115966796854,-0.1879389851033687,-0.8655515386804937,1.177422900661826,0.1573610305786132,-0.1104913800954818,-0.2732806205749511
3.727081054687474,-0.1189871024955064,-1.0818819210097192,1.2126070267677307,0.1402076184749603,-0.0753112882375717,-0.2763858735561371
3.7370471191406125,-0.0145746879931539,-1.2396177832901476,1.162873566305637,0.1151568368077278,-0.0571524836122989,-0.2709668576717376
3.7470119628906104,0.1225179069701582,-1.385509478519857,1.0933177995204926,0.0694346204400062,-0.0564033351838588,-0.2516418993473053
3.756977294921853,0.3312788769584149,-1.518566534356773,0.9262544291853904,0.0154075045138597,-0.068692147731781,-0.223816692829132
3.766943115234355,0.4148508941363543,-1.5947911113813518,0.7337035663723945,-0.0301525220274925,-0.1028636991977691,-0.1817680448293686
3.776907958984353,0.4191731412496418,-1.6009724303647874,0.4747141920119523,-0.074925884604454,-0.1405965983867645,-0.1290199011564254
3.786874023437477,0.4217966216210275,-1.6037605997785924,0.2101075622916221,-0.115172378718853,-0.1834750920534134,-0.0798121392726898
3.796838867187489,0.3998847226075828,-1.556246861192584,-0.0932096140950918,-0.1370819956064224,-0.2004211544990539,-0.0355686470866203
3.806804931640613,0.3058479369733482,-1.4960881605669856,-0.39920448525846,-0.1482624858617782,-0.2201911360025406,0.0112321469932794
3.8167700195312335,0.1718317903133109,-1.37616005089432,-0.6393102954506874,-0.1476777195930481,-0.2083395719528198,0.0397706739604473
3.826735839843735,-0.0001288140114396,-1.1937918516606092,-0.8286328438669442,-0.1149807572364807,-0.1635771542787552,0.0370404012501239
3.8367009277343556,-0.1065327311245724,-1.0431079537183046,-1.0024959573447705,-0.0496383756399154,-0.0851519852876663,0.0104474416002631
3.84666601562499,-0.1026846408616751,-0.9185524765059352,-1.150831830856204,0.0282841194421052,-0.0088175330311059,-0.0171740651130676
3.856632080078114,0.039898368211463,-0.783388219256699,-1.1659335383981466,0.1038549691438674,0.076864555478096,-0.0491704642772674
3.866596923828112,0.3298513649059459,-0.7453899125128984,-1.049136712488532,0.1561733037233352,0.154161736369133,-0.0665393397212028
3.8765632324218586,0.7225519846957177,-0.7836845718547701,-0.9292717311799524,0.1740154325962066,0.2078622430562973,-0.0620794110000133
3.8865280761718566,1.0747887478783726,-0.7577297541260719,-0.8106634719341993,0.1484860926866531,0.2287608683109283,-0.0452394448220729
3.8964938964843583,1.2868795929417014,-0.6380991660952567,-0.8423352060049771,0.0719581097364425,0.1938950270414352,-0.0199284814298152
3.9064589843749786,1.4607067583233118,-0.5816255837231874,-0.9735627083271742,-0.0200511794537305,0.1570187658071518,0.0071329618804156
3.916425048828117,1.6003443615943191,-0.6480497744843363,-1.020679264289141,-0.0843865200877189,0.14823579788208,0.0371506512165069
3.9263901367187373,1.7126356927782296,-0.6547875583067536,-1.1893991696596145,-0.1192907094955444,0.15320685505867,0.0701189860701561
3.936354736328113,1.834022476826608,-0.6901876652508974,-1.3556845413595435,-0.1285508871078491,0.1557225435972213,0.1112730875611305
3.9463212890624675,1.941567782527208,-0.7087193472415209,-1.504625395026803,-0.1190279647707939,0.1596232652664184,0.1551497429609298
3.9562858886718573,1.968464265020192,-0.7440270997270941,-1.4988807138949631,-0.1012786850333213,0.1736458092927932,0.2028309553861618
3.9662519531249956,1.8566849750116463,-0.70716364223212,-1.520283567407727,-0.0977159067988395,0.1813569962978363,0.2452388703823089
3.9762170410155875,1.7193725998178124,-0.6198156136468053,-1.4839923568427562,-0.1356066316366195,0.1872811466455459,0.2746533155441284
3.9861828613281176,1.4804906323321163,-0.467141126409173,-1.4514175364524124,-0.2260009795427322,0.1911275535821914,0.282419890165329
3.996147949218738,1.1280633880786597,-0.2041273188382387,-1.479214474916458,-0.332322210073471,0.2016534805297851,0.2677344977855682
4.006114013671876,0.8607229494802653,0.1671796901911497,-1.5603876142591238,-0.4407413601875305,0.2358189076185226,0.2394727617502212
4.016078857421874,0.6978415410049259,0.5081225406169891,-1.6270786392629146,-0.5152373909950256,0.2939347624778747,0.2354139536619186
4.02604394531248,0.5544487499188632,0.809623315231502,-1.7573919493496415,-0.5386894345283508,0.3695877194404602,0.2559117674827575
4.03601000976559,0.560328967063874,1.1232143406122923,-1.7729560137063265,-0.489984780550003,0.4615241885185241,0.2995422780513763
4.045975097656239,0.6197165371865033,1.3639505576625466,-1.7584329828351737,-0.3918441236019134,0.5323712229728699,0.3664488792419433
4.055940917968741,0.6824407774511724,1.513107392168045,-1.6792524786144494,-0.2513545155525207,0.5757478475570679,0.4471873641014099
4.065906249999998,0.753207381330803,1.533952611798048,-1.463015035265684,-0.089256964623928,0.5773627758026123,0.5179107785224915
4.075872070312471,0.8316858747620135,1.4500117613077164,-1.241267888584733,0.0781275406479835,0.5487041473388672,0.5771150588989258
4.085836914062469,0.9010094402264804,1.3397542740389703,-1.0038345124721526,0.2253992706537246,0.4966731667518616,0.6164387464523315
4.09580224609374,0.9418461122013628,1.1263991081282496,-0.6482055495679379,0.3379428386688232,0.4485297203063965,0.6500693559646606
4.1057680664062275,0.971074252512306,0.8919441633045673,-0.1864250734090805,0.3920739889144897,0.4266608953475952,0.6596580743789673
4.11573291015624,0.9514549214154482,0.7020753791823983,0.2158709481239318,0.4041277766227722,0.406545341014862,0.6545571684837341
4.1256989746093495,0.9771437086191028,0.5782677977278828,0.5696598361194133,0.3797118961811065,0.3968333303928375,0.6386346817016602
4.135664062499998,0.958453182804957,0.5474927202358841,0.849853326550126,0.3100158870220184,0.3880926072597503,0.6233304738998413
4.145629882812472,0.9359935137156395,0.5372293926358223,1.0672609827220438,0.2348319292068481,0.3703857958316803,0.6227515339851379
4.15559497070312,0.9218076789095996,0.5229240961685776,1.2355407431095835,0.1631732285022735,0.351970225572586,0.6318684220314026
4.16556103515623,0.8918344923850149,0.5683467076942325,1.271658350673318,0.1054026037454605,0.3084099590778351,0.6458918452262878
4.175525878906228,0.7910500591214745,0.6852855724230408,1.273470953053236,0.0488113798201084,0.2517850697040558,0.643686830997467
4.185491210937471,0.5849914799597113,0.8084472571894527,1.29412737211287,-0.0026792385615408,0.2119383066892624,0.6363567113876343
4.195457031249987,0.3816200940553099,0.8987459522739052,1.3073755607426163,-0.0486489087343215,0.1890267729759216,0.6234493255615234
4.205421874999999,0.215474861478433,0.9830100433692336,1.2183178056299686,-0.0805386677384376,0.1901120096445083,0.5998476147651672
4.215388183593731,0.076239482332766,1.0166218055918812,1.1637293063521386,-0.0973802730441093,0.2100466638803482,0.5763182044029236
4.225353027343729,-0.0502451363112777,1.0797095454066992,1.156352055582404,-0.1177481338381767,0.2355341911315918,0.5418965816497803
4.235319091796853,-0.0862015619639307,1.1047104234114289,1.165537232556939,-0.1308958083391189,0.2656548619270324,0.5254368185997009
4.245284179687474,-0.0272829975925385,1.0967854756310582,1.2168594235152006,-0.137779027223587,0.3149880468845367,0.5243741869926453
4.2552499999999895,0.0070171852856874,1.073456622491777,1.275615563866496,-0.1411702334880828,0.3612056672573089,0.5325303077697754
4.26521508789061,0.0068397098269313,1.0469871332392096,1.2319751595824957,-0.1462462097406387,0.3829410672187805,0.5379775762557983
4.2751796875,0.0210312437213957,0.9841852246284484,1.249753392857313,-0.1356873959302902,0.4043784439563751,0.5358337163925171
4.285146240234354,0.0935963483903557,0.9153855369076132,1.267012570694089,-0.1038333177566528,0.4098664224147796,0.5334547162055969
4.29511083984373,0.160749876339361,0.8422691550314426,1.210014087665081,-0.0647457689046859,0.3774709701538086,0.5376920104026794
4.305076904296854,0.2099308174852281,0.779977241769433,1.1529589060127734,-0.0362864360213279,0.3163698017597198,0.5380637645721436
4.315041992187474,0.244657920538634,0.6638222208946943,1.1667267346024512,-0.0021556452848017,0.2554284632205963,0.5352551341056824
4.32500781249999,0.248477844152972,0.6079033497959375,1.2078612935453652,0.0312108322978019,0.1823420226573944,0.523026704788208
4.334972900390611,0.2866208200644701,0.5512257692843675,1.1963181552678346,0.0588665753602981,0.1088934764266014,0.5100228190422058
4.344937988281231,0.3127184803299606,0.4361436383381485,1.2108406016170978,0.0790895521640777,0.053604919463396,0.5057894587516785
4.354904052734355,0.2811629199847579,0.324654563447833,1.230674598377943,0.0671185627579689,0.0157509595155715,0.4919552505016327
4.364868896484353,0.2480184830129146,0.2956532176300883,1.1111264279335735,0.0188514310866594,-0.0190459042787551,0.4677455127239227
4.374834960937477,0.1959761610865593,0.1887880031481385,1.0484832170158624,-0.0597058683633804,-0.0063751735724508,0.4373178482055664
4.384802978515609,0.145145479972288,0.0432148723483085,0.8515922791719436,-0.1460985541343689,0.0305780507624149,0.4106199145317077
4.394769287109355,0.1622664183821529,-0.0446054499238729,0.5212327820807695,-0.2109112441539764,0.0758088082075119,0.3931111991405487
4.404734130859353,0.1547102308489382,-0.085473174624145,0.1144803656607866,-0.2396965473890304,0.1027091294527053,0.3817807734012604
4.414698974609351,0.0860438141189515,-0.0834860924601554,-0.2935194204717874,-0.2379010617733001,0.1129988953471183,0.3835042715072632
4.424665283203112,0.0536889200896024,-0.0998345851927995,-0.6109802730232476,-0.2196283042430877,0.0999131873250007,0.3862555623054504
4.43463012695311,0.017879282496497,-0.0702282592192292,-0.9392126949578524,-0.1945300102233886,0.0547418221831321,0.3614131212234497
4.444595947265611,-0.0405711529064923,-0.0589388034418225,-1.123929210883379,-0.1584095656871795,0.0133043695241212,0.3293180167675018
4.454561035156232,-0.0877612124960869,-0.0771966369271278,-1.1753624610006808,-0.1150162294507026,0.0054880948737263,0.2998667657375335
4.464527099609356,-0.1300209760766476,-0.1455360136598348,-1.141694584676623,-0.0629769936203956,0.0399211719632148,0.2949433922767639
4.47449218749999,-0.168065971506387,-0.1640451915577054,-1.0135492662787438,-0.0290379356592893,0.0987413451075553,0.3042069375514984
4.484457031249988,-0.2515312403742223,-0.1936629157081246,-0.9144728059768676,-0.0166049692779779,0.1339469999074936,0.3133136034011841
4.494423095703112,-0.3643521483901888,-0.2636336930349469,-0.7910796505421399,-0.0106141660362482,0.1706598401069641,0.3143042027950287
4.504388183593733,-0.4577768665406853,-0.3638815352037549,-0.7000047103881836,-0.0133915767073631,0.2002619355916977,0.3071645200252533
4.514354003906234,-0.3907205884210765,-0.5318573442086577,-0.6524684677094221,-0.0017606560140848,0.2110461592674255,0.2971285879611969
4.524319335937477,-0.2637964093159884,-0.7063862281188369,-0.6650935560047626,0.0212266836315393,0.1676235795021057,0.2784672677516937
4.534285156249993,-0.1781263969454914,-0.7968044579297303,-0.7760381487548351,0.0424571260809898,0.0800468996167182,0.2495689839124679
4.544250244140613,-0.1600024920381605,-0.8071236073702573,-0.7751642885297536,0.0624505430459976,-0.0026117542292922,0.2120061665773391
4.554215087890611,-0.1524746538165956,-0.8414072775050997,-0.7493383578777313,0.0581256598234176,-0.0532988980412483,0.1670604348182678
4.564180908203113,-0.0578683977313339,-0.9288877002984284,-0.6404267322599887,0.0287427399307489,-0.0370610728859901,0.1305346488952636
4.574145996093733,0.0667987231619656,-0.9967314024686812,-0.5348737694203853,-0.0175287295132875,0.0068899253383278,0.1002505719661712
4.5841120605468575,0.1900459673199802,-1.0301561176866292,-0.5532639971137047,-0.0834350362420082,0.0459015071392059,0.0847091674804687
4.594077148437478,0.2865365027818828,-1.0428463801726695,-0.4934434424012899,-0.1524301022291183,0.1095772087574005,0.0778168588876724
4.60404199218749,0.4218115999944508,-1.123779865540564,-0.4479010038882494,-0.21170274913311,0.1721119582653045,0.0721424594521522
4.6140083007812365,0.4883958036229014,-1.0437009511753916,-0.495541291463375,-0.278273195028305,0.1703932583332061,0.0572941303253173
4.623973144531234,0.359726899742335,-0.795255474922061,-0.5617915869623422,-0.3765781819820404,0.1034933254122734,0.034392274916172
4.633938964843736,0.0740596540756523,-0.4743935817554592,-0.6804080295145511,-0.5193542838096619,-0.0444150231778621,-0.0016141161322593
4.643904296874993,-0.2217752767968922,-0.2047331757768988,-0.9022007689028978,-0.6706044673919678,-0.2059935331344604,-0.0210101827979087
4.653870117187481,-0.5590099934197962,-0.0511114708170294,-1.0511796164929863,-0.7813058495521545,-0.2933959066867828,-0.0362197831273078
4.663835205078115,-0.938658787402138,0.1084679735034704,-1.230254911661148,-0.8190180659294128,-0.2997326552867889,-0.056229181587696
4.673800048828113,-1.1357089343957605,0.2784855174690485,-1.4399129766196013,-0.7754015922546387,-0.2110317945480346,-0.0824275389313697
4.683766113281237,-1.32443366304934,0.4676598895862698,-1.5631576634943485,-0.6398786306381226,-0.0639081299304962,-0.1025439947843551
4.6937312011718575,-1.4413687283858656,0.6710685387611389,-1.6103578060865402,-0.4394066035747528,0.0979606658220291,-0.1023753210902214
4.703697265624996,-1.4019558786690234,0.8321215627655386,-1.457455647572875,-0.2144422084093094,0.2201355844736099,-0.0773839503526687
4.713662109374994,-1.2100910253588109,0.8326444175958633,-1.2301947059065104,-0.0008412688039243,0.2745714783668518,-0.0381926819682121
4.7236269531249775,-1.0161692395187911,0.6868912540540099,-0.810949303138256,0.1847006231546402,0.2812307178974151,0.0077087632380425
4.733593017578116,-0.9996243474312126,0.5899059208124876,-0.2904267151534557,0.3183528184890747,0.2541171312332153,0.0422588586807251
4.743558105468736,-1.0072020161438733,0.556814383071661,0.1568219623059034,0.3753095865249634,0.1792024224996566,0.0465809032320976
4.753523925781238,-1.056445501131937,0.4769944119036197,0.537720391023159,0.3479229211807251,0.0749809890985488,0.0433283671736717
4.763489013671858,-1.083536702479422,0.4937041391640901,0.8731009311467408,0.2487561404705047,-0.0390092283487319,0.0246436335146427
4.7734550781249965,-1.1549485454600303,0.4803846388638019,1.0960726511865853,0.1064307540655136,-0.1327047795057296,0.0060407845303416
4.783420166015588,-1.3060162550881504,0.4372890089809894,1.1986217560350894,-0.0573869422078132,-0.2140473127365112,-0.0220920499414205
4.793385009765615,-1.4585571790739893,0.4994496970787644,1.1240870317935945,-0.2089857310056686,-0.2822092771530151,-0.0737026259303093
4.803351318359347,-1.6164783347934484,0.5432473377510905,0.9325362859338522,-0.3102063536643982,-0.3194961845874786,-0.1240715309977531
4.813316162109359,-1.7863553012445568,0.5154962842553854,0.7431891875982284,-0.3390571475028991,-0.2954549193382263,-0.1651078015565872
4.823281982421875,-1.994786162495613,0.5898559441909194,0.6165075120121241,-0.3248638212680816,-0.2377149164676666,-0.1989853382110595
4.833247314453118,-1.9913696320503949,0.6319935426965355,0.470479330921173,-0.2821299135684967,-0.1838360279798507,-0.2285040318965912
4.843212158203116,-1.8935954865187403,0.607344839130342,0.482118915310502,-0.2084807455539703,-0.1376714557409286,-0.2437218576669693
4.85317822265624,-1.8258476459383963,0.6418395216673612,0.5438678077369928,-0.1414944231510162,-0.1175682693719863,-0.245699942111969
4.863143310546874,-1.753043252620846,0.6210086228236555,0.6776783122897148,-0.0879702270030975,-0.1026843935251236,-0.2467148602008819
4.873109130859348,-1.666388613127172,0.5380582446753979,0.8752262527376413,-0.0472528152167797,-0.094776302576065,-0.2513561248779297
4.88307397460936,-1.5429827443413435,0.440475237801671,1.0546388170361518,-0.0154967494308948,-0.0884502306580543,-0.2712150514125824
4.89304003906247,-1.383528241574764,0.2633653974875807,1.2321335650146006,0.0113447178155183,-0.0780252814292907,-0.2899836897850036
4.9030051269531185,-1.2145231625873594,0.0737327602088451,1.4049673354446888,0.0271612331271171,-0.0753306970000267,-0.3071288466453552
4.9129699707031165,-1.0191334961518643,-0.0488251134455203,1.5329425579726694,0.0425492562353611,-0.0713341459631919,-0.3215437233448028
4.922936279296877,-0.8442060413781552,-0.1936605776205658,1.6460089651823042,0.0601420998573303,-0.082081064581871,-0.321458488702774
4.932901123046875,-0.7090611464165151,-0.2895052163943648,1.7361475012689829,0.0621518194675445,-0.0949331000447273,-0.3088630139827728
4.942866943359348,-0.5951482053801417,-0.3931587753534317,1.7741449312299489,0.0367990620434284,-0.1226052120327949,-0.3004184067249298
4.952832031249997,-0.5543247582130134,-0.5007663326352835,1.7641969531893729,-0.0111911045387387,-0.1535320729017257,-0.292074590921402
4.962797119140589,-0.5152632061518728,-0.5938613804399967,1.6413596780717372,-0.0851838365197181,-0.2012940049171447,-0.288854032754898
4.972763183593727,-0.5187451299834996,-0.7559174440070986,1.4038088130593298,-0.1583830565214157,-0.2298761159181594,-0.2861316502094269
4.9827280273437395,-0.6120054513525217,-0.8666630070537328,1.0657634376406668,-0.218541994690895,-0.2521473467350006,-0.2840943336486816
4.992694335937472,-0.6435143960770219,-0.9509282671928404,0.5471814623296261,-0.2554671764373779,-0.2763178646564483,-0.2847826182842254
