time,ax,ay,az,gx,gy,gz
0.0,0.4930202485531568,-0.9350313176199794,0.3446294299840927,0.5297770500183105,-0.092023953795433,0.2497645020484924
0.009964843749990848,0.2580807350829243,-0.8433324003487825,0.3697621176749467,0.5941115617752075,-0.0945693999528884,0.245557501912117
0.019928955078121646,0.0545766627095639,-0.7351616562262177,0.4431634539723396,0.6347015500068665,-0.0671351104974746,0.218430295586586
0.029893798828126705,-0.1023468237420544,-0.600722206120193,0.5149252063691616,0.6641078591346741,-0.0262555927038192,0.1711956709623336
0.039859130859376535,-0.2102757584653794,-0.5285363830924034,0.6130810446947813,0.6894668936729431,0.0441731698811054,0.1282697468996048
0.04982397460937449,-0.0101532182890921,-0.7312690327018498,0.7484785261780024,0.7045637965202332,0.1530972421169281,0.1037976890802383
0.059787841796875796,0.4608026806352659,-1.088486433841288,0.8185837435394525,0.7096239924430847,0.2462572902441024,0.0921272039413452
0.06975292968749613,1.0462363148719072,-1.3925629041627048,0.6885989347547292,0.6863685250282288,0.2762258350849151,0.0816111788153648
0.0797177734375012,1.5107071991585197,-1.56202632137686,0.5171405443310737,0.6349220275878906,0.2575221955776214,0.0731117352843284
0.08968310546875102,1.770327126507461,-1.57517455676347,0.3870306478619575,0.5581972002983093,0.2086393535137176,0.0813203975558281
0.09964721679687472,1.966568952792883,-1.6278651134654878,0.1897638624429702,0.4561055302619934,0.1584713906049728,0.1083335876464843
0.10961181640625028,2.150825742252171,-1.6017904687494038,-0.25352877086699,0.3306487798690796,0.0462372526526451,0.1224502027034759
0.11957690429687062,2.06129408601746,-1.4219669855624435,-0.9650690207481384,0.1921965330839157,-0.116106316447258,0.1130865514278411
0.12954174804687568,1.8362118035644293,-1.1099316651910542,-1.4625667069762944,0.0725439041852951,-0.2585622668266296,0.062777578830719
0.13950610351562176,1.52731375830546,-0.7480445186749101,-2.0180881276279687,-0.0269996561110019,-0.3869628310203552,-0.0248952656984329
0.1494711914062492,1.1551120654586702,-0.3985618034407496,-2.5285756438106297,-0.0775951892137527,-0.4496794641017914,-0.1237736344337463
0.15943603515624716,0.8078653656482696,-0.123013800728321,-2.582509478572011,-0.0801414549350738,-0.3758895695209503,-0.1952715516090393
0.16940087890625222,0.6466165268108248,0.0972635656610131,-2.613583246749639,-0.0560222640633583,-0.2210557609796524,-0.2201814353466034
0.17936474609374642,0.6914039091728628,0.1932426444694399,-2.6261177341520785,-0.0289984326809644,-0.0483091622591018,-0.2067931741476059
0.18933007812499625,0.8550763949606567,0.3847098036989569,-2.561117730975151,-0.0295246727764606,0.1166611462831497,-0.1700343638658523
0.1992949218750013,1.0016213664673268,0.547216825903952,-2.3996704469561574,-0.0413239300251007,0.2802386581897735,-0.1026095226407051
0.20926000976562165,1.1933597438536585,0.53157326657027,-2.181751334130764,-0.0665781497955322,0.4563164710998535,-0.0086028659716248
0.21922387695312295,1.415486975893378,0.4719833057433366,-1.982254013180733,-0.1115948259830474,0.6076345443725586,0.0991241186857223
0.2291887207031209,1.5548277881748973,0.4189826601788401,-1.9224638536065817,-0.1637981086969375,0.7057884931564331,0.1859604716300964
0.23915405273437074,1.5957397904083133,0.4242641077131032,-1.8344038773596285,-0.2223406732082367,0.7609173059463501,0.2351115196943283
0.2491188964843758,1.6047542869910596,0.4234524990692734,-1.786905044081807,-0.2889135777950287,0.7724804878234863,0.2542710900306701
0.2590830078124995,1.5680299457058309,0.4550885773047805,-1.753652178299427,-0.3517488539218902,0.7766345143318176,0.2724221348762512
0.26904785156249744,1.5468123856320977,0.4579658863067626,-1.6761714637339111,-0.4133645594120025,0.7829871773719788,0.3023430109024048
0.2790126953124954,1.5238511967614292,0.4440121797561645,-1.60746734534204,-0.4635449051856994,0.7995514273643494,0.3444875180721283
0.28897802734375233,1.4865658605925738,0.3993865638270974,-1.519039704826474,-0.4943512976169586,0.8270906209945679,0.3917485177516937
0.298942138671876,1.4191260630480944,0.4631581942528486,-1.4632745629847048,-0.5028878450393677,0.8438906073570251,0.4482104778289795
0.308906982421874,1.332987994774431,0.5055009599417448,-1.358067637103796,-0.4902614951133728,0.8599713444709778,0.5229430794715881
0.31886743164062636,1.226961423073709,0.4775768879666924,-1.2105243752747774,-0.4694130420684814,0.8673193454742432,0.6198158264160156
0.3288325195312467,1.1043034500457345,0.4647577384039759,-1.042926167410612,-0.4457396864891052,0.8587911128997803,0.7114048600196838
0.338796386718748,0.979260335446894,0.4496840879127383,-0.899067147052288,-0.4048647582530975,0.8480989336967468,0.7934384346008301
0.34876123046874596,0.7925438778758048,0.377365286155045,-0.7282236736565828,-0.3476470112800598,0.8147273659706116,0.8557931780815125
0.3587263183593734,0.5392055150143802,0.3444625489845871,-0.5890566105067729,-0.3070292472839355,0.7723072171211243,0.899330735206604
0.36869140625000085,0.2264654073745012,0.3137047148883342,-0.4026911583304405,-0.2700557708740234,0.7297746539115906,0.9233039617538452
0.37865527343750216,-0.0941550782516598,0.3101291944891214,-0.2725473595917225,-0.2400124371051788,0.6844667792320251,0.9202680587768556
0.3886203613281225,-0.3993155444175004,0.293674903294444,-0.1586386563390493,-0.2101192474365234,0.6464890241622925,0.916494369506836
0.39858520507812045,-0.6789015704743564,0.2868149543970823,-0.0836924286872148,-0.1833299696445465,0.60821932554245,0.910159468650818
0.4085502929687479,-0.9261331408932804,0.2958808889061212,-0.0050789106994867,-0.1554701030254364,0.5930933356285095,0.9046318531036376
0.4185144042968716,-1.1792067153386772,0.3229419143110513,0.0988888287752866,-0.1159392222762107,0.6013005375862122,0.8965097069740295
0.42847949218750614,-1.413027015520632,0.4038008731380105,0.0935340237438678,-0.0784083604812622,0.6133852005004883,0.8828938007354736
0.438444335937497,-1.6712383912459017,0.4809378888323903,0.0834732329785823,-0.0064895995892584,0.6551042795181274,0.8729814887046814
0.44840917968750205,-1.9079428685620423,0.5151823960006237,0.0958557446897029,0.1133403927087783,0.7118005752563477,0.8686892986297607
0.45837329101562574,-2.117841172017157,0.5559273711040615,0.12668985889256,0.253053069114685,0.7612813115119934,0.8515550494194031
0.4683383789062461,-2.288629700355232,0.5623077197909355,0.1244230830043554,0.4126158356666565,0.7749507427215576,0.8208280205726624
0.4783034667968735,-2.420801351659745,0.4658861579120159,0.1758124939799308,0.5677491426467896,0.7505379915237427,0.7743459939956665
0.48826855468750097,-2.5190683952748776,0.4162763238295912,0.2853863828986883,0.7213789224624634,0.6883899569511414,0.7050665020942688
0.4982321777343728,-2.513373398503661,0.3812862589910626,0.3546551494359969,0.8655367493629456,0.5829251408576965,0.6133903861045837
0.5081972656250002,-2.4823808788686987,0.2960314032927155,0.3828928174048662,0.9936166405677797,0.4347397089004516,0.5227329134941101
0.5181623535156206,-2.447759793473035,0.2245920147180557,0.4863818334519862,1.0961129665374756,0.272689014673233,0.4233967661857605
0.528127441406248,-2.4358619965389368,0.1987730983287096,0.6076975980907678,1.1454288959503174,0.1296868324279785,0.3099357187747955
0.5380913085937564,-2.4684315562322734,0.0976549030661582,0.7100304298400878,1.1524440050125122,0.0202885773032903,0.1812304258346557
0.5480561523437473,-2.507586047273874,0.000954816506803,0.5967255376994609,1.134240984916687,-0.0816063657402992,0.0456355847418308
0.5580212402343747,-2.557009126612544,-0.0331347923606634,0.3440630282729864,1.1231768131256104,-0.156829759478569,-0.1156797781586647
0.5679863281250022,-2.713147782829404,-0.046664136019349,0.1101934821218252,1.1204653978347778,-0.1967792958021164,-0.2960599362850189
0.5779501953124964,-2.810982718637585,0.0656359629929065,-0.1608165849000215,1.119902491569519,-0.2081493735313415,-0.5040184855461121
0.5879155273437462,-2.7661536890909075,0.3901712839752435,-0.3630407004654407,1.120591163635254,-0.2087424546480178,-0.7397268414497375
0.5978801269531218,-2.553855923278629,0.5342378096044064,-0.7327408588200807,1.124841809272766,-0.2253026217222213,-0.9333456158638
0.6078452148437563,-2.3717665409863,0.2721609906226396,-1.018593690186739,1.1425377130508425,-0.2242381423711776,-1.0172988176345823
0.6178093261718729,-2.2213043229706586,0.3358510802447795,-1.0894874275773765,1.162700891494751,-0.22069051861763,-1.0453832149505615
0.6277744140625003,-1.845860944788903,0.5053372938126325,-1.282335227510333,1.1645320653915403,-0.2137860059738159,-1.0558435916900637
0.6377395019531207,-1.5094420015282928,0.3768868549883365,-1.4162719887912272,1.1606875658035278,-0.2604433000087738,-1.014719009399414
0.6477041015624962,-1.3739401828877629,0.2784054379701614,-1.5953531291782854,1.1560752391815186,-0.3145651519298553,-0.9632326364517212
0.657668212890627,-0.9022995531022548,-0.1304442429900169,-1.3780851737380029,1.191294550895691,-0.2863745987415313,-0.9320731163024902
0.6676333007812474,-0.1884906276367604,-0.831841284519434,-1.045725442740321,1.22548508644104,-0.2867237329483032,-0.9450432658195496
0.6775983886718748,0.3030247693113982,-1.0824994683861733,-1.0259002138078213,1.1807284355163574,-0.4317541718482971,-1.0103484392166138
0.6875634765625023,0.4152912583149969,-0.9384072237938642,-0.8079606427162885,1.0801749229431152,-0.6695102453231812,-1.104970097541809
0.6975273437499965,0.3923864758066833,-0.8066115661948918,-0.3965104238688945,0.9296658635139464,-0.9340245127677916,-1.178056001663208
0.7074921875000015,0.5579479171462357,-0.8341711887717247,-0.0471387677937746,0.7112714648246765,-1.1917005777359009,-1.200484037399292
0.7174572753906219,0.8164176515467464,-0.9836176538735628,0.0063023150146007,0.4003141522407532,-1.4569333791732788,-1.166684865951538
0.7274223632812493,0.8387810206547379,-0.9952496394783258,-0.1118318969786167,0.0345092676579952,-1.677045822143555,-1.101780652999878
0.737386474609373,0.3530313476264476,-0.6321142464667558,-0.294152457678318,-0.3074433803558349,-1.8409597873687744,-1.0312058925628662
0.7473515625000005,-0.3637615620858967,-0.1711766508728265,-0.5238239676177502,-0.582475483417511,-1.938920497894287,-0.9384481906890868
0.757316162109376,-1.0133044977374377,0.0964379284918308,-0.7234609892994165,-0.7875411510467529,-1.9328666925430296,-0.8210209012031555
0.7672812499999964,-1.4709583954855798,0.3300029387384653,-0.728033119520545,-0.8863028287887573,-1.6770942211151123,-0.7045358419418335
0.7772453613281272,-1.7949869359895585,0.6009364333927631,-0.4827139585942029,-0.8690797090530396,-1.2224177122116089,-0.6178606152534485
0.7872104492187475,-1.9348853821538388,0.8750432973861694,-0.467633293840289,-0.759956419467926,-0.8185980916023254,-0.5666104555130005
0.7971755371093749,-1.7404279550671578,0.9874182152003048,-0.7584305958718061,-0.5850801467895508,-0.5933195948600769,-0.5504394769668579
0.8071401367187505,-1.2728816088579595,1.032680083206296,-0.6990367421388626,-0.3815933763980865,-0.5274375081062317,-0.5589472055435181
0.8171042480468742,-0.7545389952607452,0.9588765958487988,-0.4995014272660016,-0.1970015317201614,-0.6281948089599609,-0.5695628523826599
0.8270693359375016,-0.2524935826003551,0.8699474355518817,-0.3888929346024989,-0.0600351579487323,-0.865651547908783,-0.5742670297622681
0.837034423828122,0.1370658530868589,0.7978133427113294,-0.2186000808268785,0.0461455956101417,-1.1589525938034058,-0.5678938627243042
0.8469995117187565,0.3217424753934145,0.7557908950179815,0.0066395841449499,0.1374810934066772,-1.4239581823349,-0.5615427494049072
0.8569631347656212,0.2177164298601448,0.7785755582779645,0.2749357160329818,0.2110815644264221,-1.615795016288757,-0.5505912899971008
0.8669282226562487,-0.0604405132416635,0.7509867096066475,0.4263870912164449,0.2548921704292297,-1.7282073497772217,-0.5307446122169495
0.8768933105468761,-0.3499900802344083,0.8052133898347615,0.577114828300476,0.24367156624794,-1.743906855583191,-0.5247011184692383
0.8868583984374965,-0.5893490906473249,0.8848065665096044,0.7277391050100326,0.2047430723905563,-1.6683473587036133,-0.5261642336845398
0.8968225097656273,-0.7117327037133276,0.919863851365447,0.8783014223992824,0.1444336175918579,-1.5169761180877686,-0.5330333113670349
0.9067871093749957,-0.6917320451486856,1.0008113652586936,1.0675585043638944,0.0730260089039802,-1.32973313331604,-0.5426334738731384
0.9167521972656232,-0.5845218166213483,1.06411683947742,1.185272445118427,-0.0052954796701669,-1.1514122486114502,-0.551774799823761
0.9267172851562506,-0.4737335104115307,1.0828683016985654,1.2494997103571892,-0.0793380141258239,-0.9858136177062988,-0.5418428182601929
0.9366811523437519,-0.3509301375634968,1.1024842717945575,1.2944009283572435,-0.1182879656553268,-0.8617917895317078,-0.5299544334411621
0.9466464843750018,-0.1735294976092875,1.1067869374245405,1.3016992686718702,-0.121068574488163,-0.8081163167953491,-0.5211548209190369
0.9566113281249997,0.0046197322225198,1.0976239722818135,1.3246499361485242,-0.1197148486971855,-0.8142938017845154,-0.5245610475540161
0.9665761718750048,0.1897322617283091,1.095183593392372,1.3250526717305182,-0.1299315392971038,-0.8792378902435303,-0.5451102256774902
0.9765402832031214,0.3042256695337593,1.019203346517682,1.3727367984473704,-0.1515220999717712,-0.9540109038352966,-0.5736071467399597
0.9865051269531264,0.3446724654082209,0.9382318672269582,1.5875088454186916,-0.1830179691314697,-0.986469268798828,-0.6095163822174072
0.9964704589843763,0.3553341446761042,0.8336024489730596,1.7599194220006464,-0.2303954362869262,-0.9592647552490234,-0.6479313969612122
1.0064353027343742,0.3456246515665203,0.7598328638851642,1.7796803535252808,-0.2844501733779907,-0.9376614689826964,-0.6929196715354919
1.0163991699218755,0.3566601325828581,0.6624924335956573,1.8067554074555636,-0.3299387991428375,-0.9063302874565125,-0.7393643856048584
1.0263642578124959,0.4573318992521613,0.6062696111142635,1.863959642189741,-0.3595688641071319,-0.8317673802375793,-0.7855814099311829
1.036329101562501,0.5445991176862269,0.6208318049520254,1.91172443292737,-0.3897970616817474,-0.7449262142181396,-0.8211050629615784
1.0462944335937507,0.6608849983990192,0.5720300723820925,1.889422584748268,-0.4328795671463012,-0.6453450322151184,-0.8208730816841125
1.0562585449218744,0.7689079315487295,0.4033236110150814,1.917825087890029,-0.4679126739501953,-0.5299131274223328,-0.792586088180542
1.06622314453125,0.9519715657006949,0.240292857196927,1.9561270537555215,-0.5074576735496521,-0.407730221748352,-0.7556719779968262
1.0761882324218774,1.1485700234040617,0.0537052867025136,1.9071990644574164,-0.568920910358429,-0.3105830252170563,-0.7054746150970459
1.0861530761718754,1.248832917011529,-0.1795522650301456,1.8507821807086464,-0.6411831378936768,-0.2189692109823227,-0.6530340313911438
1.096117187499999,1.3401526257067915,-0.3334557095408439,1.794538315439224,-0.7138670682907104,-0.1398513317108154,-0.6159689426422119
1.106082519531249,1.4849256921701133,-0.4890659579694271,1.6516513549834488,-0.7751855850219727,-0.0852674543857574,-0.5939896106719971
1.1160473632812469,1.6322868754304944,-0.6805711111217737,1.5019278265058993,-0.8292461037635803,-0.0519473701715469,-0.5706872344017029
1.126012207031252,1.8560877397708595,-0.8555874862879514,1.337313602888584,-0.8704747557640076,-0.0321829877793788,-0.5453318357467651
1.1359763183593756,2.069758839762956,-0.9315227249771356,1.09160690394938,-0.8986550569534302,-0.0406098626554012,-0.5175853967666626
1.1459411621093736,2.26779237177074,-0.9713464935824274,0.7395984696298837,-0.8865139484405518,-0.0695783942937851,-0.4810726940631866
1.1559064941406234,2.45200882921964,-0.9969622886151076,0.3939221609413623,-0.8299299478530884,-0.1049933433532714,-0.4072871506214142
1.1658713378906214,2.6111039971545336,-1.0952318164482713,0.0709621264517307,-0.7343594431877136,-0.1381390392780304,-0.278935045003891
1.1758352050781227,2.6503099261224268,-1.1937749005258085,-0.1308686058819294,-0.619398295879364,-0.1671343296766281,-0.0968829095363617
1.1858002929687572,2.6464710786119103,-1.2206474176213145,-0.3436269749432802,-0.5141791701316833,-0.2048564106225967,0.1068731546401977
1.195765136718748,2.5942618756860494,-1.3155746492892504,-0.5641016174703836,-0.4285131990909576,-0.2144446372985839,0.3304886519908905
1.2057304687499908,2.473718264463544,-1.4990364889785646,-0.70959729911983,-0.3513225615024566,-0.1731589883565902,0.5360844135284424
1.2156945800781216,2.295941776934266,-1.662712847223878,-0.9360720588445662,-0.2743265628814697,-0.0938790738582611,0.6864550113677979
1.2256591796874972,2.0503351773686704,-1.7313900776088236,-1.310774555531144,-0.2038526386022567,-0.0127874193713068,0.7735307812690735
1.2356242675781246,1.8056671738274397,-1.7694459597587584,-1.7114608037799597,-0.1371117830276489,0.0656356513500213,0.8131125569343567
1.2455891113281226,1.857944619683921,-2.056498814564943,-2.0922376519441603,-0.0876526311039924,0.1505737155675888,0.8332518935203552
1.2555532226562462,2.146808907826245,-2.520973059852421,-2.47829390181601,-0.071714386343956,0.2168497592210769,0.836688220500946
1.265518554687496,2.34410331190452,-2.726519013316929,-2.9275311227440834,-0.1168975830078125,0.2046756595373153,0.8045324087142944
1.2754833984375011,2.3724714743852613,-2.5060692129701376,-3.468396241533756,-0.2247706353664398,0.1232227459549903,0.7395818829536438
1.2854482421875062,2.1678401515476406,-2.147763432072103,-3.8509710790306326,-0.3225017189979553,0.0353062078356742,0.6798186898231506
1.2954123535156228,1.8426859680145975,-1.7105393050208686,-4.063358861213922,-0.3619455993175506,-0.0208137892186641,0.6547210812568665
1.3053771972656207,1.3882222446098922,-1.2325848159134387,-4.173013998675346,-0.3543164432048797,-0.0470573753118515,0.6655630469322205
1.3153466796875009,0.8681243117779492,-0.552513471007347,-4.254782765823602,-0.303093284368515,-0.0633637234568595,0.6805859208106995
1.325311523437506,0.374616279707849,0.1864338412374258,-4.2525516457706685,-0.2217702120542526,-0.0521406307816505,0.6740968823432922
1.3352756347656225,0.0664535629861056,0.6817591518625616,-4.062246516057849,-0.0952529460191726,0.0099473195150494,0.6680546998977661
1.3452404785156205,-0.0631084172766655,0.9339233563780784,-3.796871240052581,0.0539972558617591,0.1192487701773643,0.6693974733352661
1.355205566406248,-0.0561757136703468,1.0933423494398593,-3.404464744371176,0.2074654549360275,0.2737523913383484,0.6858739256858826
1.3651706542968753,0.0519443231782875,1.1863742688804864,-3.0518203502357006,0.3481892645359039,0.4232374727725982,0.7091283798217773
1.3751345214843766,0.2071793633526191,1.316241004243493,-2.6015029328554866,0.4712273180484772,0.5649622678756714,0.7352659702301025
1.385099609374997,0.3686311408836394,1.4025775176987052,-2.172431132599711,0.5553957223892212,0.6617428660392761,0.7742293477058411
1.395064453125002,0.471245931379497,1.5001742608368396,-1.8035621643722055,0.6121954321861267,0.7203190326690674,0.8063177466392517
1.4050295410156224,0.5681873524140566,1.576077350822091,-1.4815455482125282,0.6530286073684692,0.7593258023262024,0.8294742107391357
1.414993652343746,0.647192938459292,1.5879598040565848,-1.1091770474314688,0.6793080568313599,0.8014739751815796,0.8427990674972534
1.4249584960937511,0.7306027508128434,1.5694319214582442,-0.8428864101469516,0.6767500638961792,0.8116336464881897,0.8519715666770935
1.4349235839843715,0.8346867370784282,1.5427134258806705,-0.6626625294655561,0.6512196660041809,0.7954921126365662,0.8584198355674744
1.4448884277343765,0.91852500397712,1.4865674680277703,-0.5607166512072086,0.616020679473877,0.7761234641075134,0.8556081056594849
1.4548525390625002,0.825228369185701,1.4458648707613349,-0.3602531155735254,0.5824692249298096,0.8213379383087158,0.8403473496437073
1.4648176269531206,0.6009747561091556,1.4437386723875998,-0.1962052936673164,0.5419647097587585,0.9030969738960266,0.8185192942619324
1.4747827148437551,0.530946622571908,1.4316802780643103,-0.1433317816138267,0.5037891864776611,0.9852726459503174,0.7950829863548279
1.484747558593746,0.5629762667022645,1.4314207503452896,-0.0590413870334625,0.4691933691501617,1.0668585300445557,0.7818342447280884
1.4947116699218768,0.6045573273036629,1.4316685876265167,0.1153361057072877,0.4523955583572387,1.1287779808044434,0.7840508222579956
1.5046765136718747,0.6350207815632224,1.4361232289478183,0.2763321388274431,0.4273157715797424,1.1676974296569824,0.798523485660553
1.5146416015625022,0.6060551281133666,1.472409178815782,0.5141670814782381,0.4033006727695465,1.1962262392044067,0.8163152933120728
1.5246066894531225,0.5549863639269024,1.5043705434828996,0.7641080569863319,0.3500909805297851,1.1949406862258911,0.8301703929901123
1.5345705566406238,0.5018194949500262,1.5688462305247783,0.9163935449063776,0.2878734171390533,1.1612820625305176,0.8338042497634888
1.5445356445312513,0.3766464338285848,1.588231314474344,1.066449666339159,0.2251431792974472,1.110204815864563,0.8338202238082886
1.5545004882812492,0.2392504720045253,1.58225224006474,1.22734223908484,0.1750602424144745,1.0677499771118164,0.8348175883293152
1.5644655761718766,0.0773823687575757,1.6123095246762036,1.3702724541604518,0.1184795126318931,1.0366644859313965,0.8257612586021423
1.5744296875000003,-0.1122615936327725,1.603634635311365,1.5443021563768389,0.0623677931725978,1.0271153450012207,0.806135892868042
1.5843945312499912,-0.2827512120895087,1.5817846225529908,1.639187010207772,0.0029705101624131,1.0144182443618774,0.7780704498291016
1.5943596191406257,-0.3941068698585033,1.5674018769353628,1.6709166119456291,-0.0506442226469516,1.0103583335876465,0.7425132393836975
1.604323486328127,-0.4409979465015232,1.5497393789947032,1.7645839066803457,-0.0995941907167434,1.0128347873687744,0.71611088514328
1.6142885742187474,-0.4419029325172305,1.5210557208240032,1.812308949929476,-0.1400971859693527,1.000214457511902,0.7041093707084656
1.6242536621093748,-0.4296010848268866,1.5534072538524866,1.8301497270464897,-0.1787769347429275,0.9665250182151794,0.6949291825294495
1.6342187500000023,-0.4208662819683551,1.5122311938554047,1.7295576014846563,-0.1919029206037521,0.9204142093658448,0.6932919025421143
1.6441826171874965,-0.5029482067190111,1.4348293897449969,1.707882945293188,-0.1810500025749206,0.8755945563316345,0.7000472545623779
1.6541474609375015,-0.5473155370380729,1.4146242215842009,1.6439911956191062,-0.1708589345216751,0.8093367218971252,0.7120932936668396
1.6641125488281219,-0.5979599018000066,1.3890513889104128,1.5221335791885853,-0.1605687439441681,0.7145779728889465,0.7063959836959839
1.6740776367187564,-0.7099913399387151,1.3414572785645722,1.411750127452612,-0.1257445216178894,0.6342265009880066,0.6888595819473267
1.6840412597656211,-0.8639020179077982,1.230489889460802,1.360178930169344,-0.0802057981491088,0.5572782158851624,0.6753368377685547
1.694006591796871,-0.9314696796156464,1.0674228952854872,1.1900398056507109,-0.0380377918481826,0.4726548492908478,0.663273811340332
1.703971435546876,-0.9520360823042692,0.8928525103211402,1.103513030320406,-0.020905140787363,0.3739937841892242,0.6449246406555176
1.7139365234374964,-0.9408209338720888,0.6950310136288405,0.9852654210805892,-0.025809021666646,0.263458251953125,0.6220081448554993
1.7239016113281238,-0.9919788741793484,0.4857452891141176,0.8793518082350492,-0.0509343482553958,0.172173872590065,0.5910819172859192
1.7338654785156251,-1.143047825916484,0.3026104894220829,0.7239958268284797,-0.0835001319646835,0.09866613894701,0.5540618300437927
1.7438305664062455,-1.3121633795410397,0.1302969434738159,0.511895629414916,-0.1020312011241912,0.0408206805586814,0.5125164985656738
1.7537954101562505,-1.4320542259432374,-0.0555652353554964,0.3261263895660639,-0.1230532824993133,-0.0168649200350046,0.4716079235076904
1.7637604980468709,-1.537951326045394,-0.1711205367714166,0.1622603539675474,-0.1495320349931717,-0.0597300976514816,0.4180469810962677
1.7737246093750016,-1.599352427947521,-0.2399287000596523,-0.0140051444768905,-0.1668039560317993,-0.1040779501199722,0.3577298521995544
1.7836894531249996,-1.6054320401221511,-0.3443178798168897,-0.2024497410148382,-0.1849613785743713,-0.164925068616867,0.2986513674259186
1.7936547851562494,-1.5908515799753369,-0.3588391571223736,-0.3604863398075104,-0.2164228409528732,-0.2431564182043075,0.238122209906578
1.8036186523437507,-1.5838335179068148,-0.372126508718729,-0.523788896304369,-0.2449152022600174,-0.3339680731296539,0.1747400462627411
1.8135834960937558,-1.5466929970361292,-0.4174287087351083,-0.7099193706810474,-0.2537840604782104,-0.4043249785900116,0.1066310331225395
1.8235485839843761,-1.5360644893854856,-0.5251514168292284,-0.778744485104084,-0.2618553042411804,-0.4467126727104187,0.0377947129309177
1.833513427734374,-1.4763623003557325,-0.5647270558923483,-0.7885849111169576,-0.2964075803756714,-0.4840311706066131,-0.0373780578374862
1.8434775390624907,-1.399326260817796,-0.5705427564337849,-0.8435071723937988,-0.3701007068157196,-0.5288154482841492,-0.1156369149684906
1.8534426269531252,-1.2572113076478242,-0.72870444291085,-0.841477712392807,-0.4643007814884186,-0.53968346118927,-0.1861331760883331
1.8634074707031232,-1.0341404380824415,-1.0888172732308503,-0.8048533243507147,-0.5774859189987183,-0.5221812129020691,-0.2312018424272537
1.8733725585937506,-0.8396971856515855,-1.2636565382644531,-0.940054406479001,-0.7367165684700012,-0.5539194941520691,-0.2849156856536865
1.8833366699218743,-0.9497766129396856,-1.1275167139813302,-1.19931090734303,-0.9496280550956726,-0.6571846604347229,-0.360572338104248
1.8933017578125018,-1.2826999691694974,-0.8152446622446179,-1.4173492626339197,-1.1948823928833008,-0.7788301706314087,-0.4547388255596161
1.9032666015624997,-1.656490611708164,-0.5121794147923588,-1.6606225969463586,-1.4287883043289185,-0.8753766417503357,-0.5436513423919678
1.9132314453124906,-2.0410941785536707,-0.1714060757145285,-1.8283739495456215,-1.6211005449295044,-0.898574948310852,-0.6149940490722656
1.9231955566406214,-2.4837828546211123,0.3381196096986532,-1.9433055661052463,-1.750978946685791,-0.8499152660369873,-0.6764606237411499
1.9331606445312488,-2.7813994812786578,0.8005401373267174,-2.086426919838786,-1.794416069984436,-0.7322012186050415,-0.7145568132400513
1.9431257324218763,-2.8000691104352478,1.0877490594774484,-2.182135365012288,-1.7296820878982544,-0.566379725933075,-0.7126907110214233
1.9530908203124966,-2.7523107494384047,1.2479773230955005,-2.2646493975698947,-1.5541810989379885,-0.3482502698898315,-0.6712119579315186
1.9630544433593755,-2.6911785276055333,1.277762512767315,-2.100124021279812,-1.2995177507400513,-0.0666859671473503,-0.5987646579742432
1.9730195312499959,-2.4804776755958797,1.202868892085552,-1.910631376993656,-1.02221417427063,0.1745091378688812,-0.5157627463340759
1.9829846191406233,-2.20366359847039,1.0951365393802523,-1.8436890075773,-0.7494302988052368,0.309880256652832,-0.4488279521465301
1.9929497070312507,-1.956128953451663,0.9898699922665952,-1.6588620170146229,-0.4848386943340301,0.3434424698352813,-0.4045640826225281
2.002913574218752,-1.7637334273308514,0.8532637195155024,-1.4998726475417614,-0.2121925354003906,0.2756490409374237,-0.3814326524734497
2.012878417968757,-1.5667048345819117,0.6837403888076543,-1.3252373806476592,0.0700401663780212,0.1141268536448478,-0.3956954479217529
2.0228435058593774,-1.2876460472695528,0.5574605720207095,-1.2689642892837525,0.3480336964130401,-0.1482815891504287,-0.4539936482906341
2.0328085937499907,-1.0464236541375518,0.4482122617945074,-1.2030951020568608,0.591053307056427,-0.4789925515651703,-0.5448588132858276
2.042772460937506,-0.8976405483152717,0.2716018954351544,-1.047075688305497,0.7846843004226685,-0.8106671571731567,-0.6346920728683472
2.052737792968756,-0.8307455251719802,0.1221153905838727,-0.6058423256129026,0.8912107348442078,-1.070501685142517,-0.7105085253715515
2.0627023925781245,-0.8135168155387044,0.0364803033962845,-0.1253098027110099,0.8964749574661255,-1.2518775463104248,-0.7755115032196045
2.072667480468752,-0.8814937156345695,0.0373901117175817,0.2178372797608375,0.8191909193992615,-1.3769842386245728,-0.8500009179115295
2.0826315917968756,-0.9381585827950388,0.0494283400356769,0.4275795158714056,0.6971555352210999,-1.4245346784591677,-0.9170960187911988
2.0925964355468736,-0.953444926188886,-0.0263400176540017,0.712012543568015,0.5491599440574646,-1.37517511844635,-0.9630095362663268
2.1025617675781234,-0.9835038182355464,0.069930153055489,0.9028969344735144,0.3834818005561828,-1.2473301887512207,-0.9924971461296082
2.112526367187506,-0.9619728813637048,0.1675105295807123,1.0038175613373517,0.2304013669490814,-1.0639673471450806,-0.9899159073829652
2.1224904785156227,-0.9060942692101002,0.2500476507529616,1.0919418349921703,0.1038135960698127,-0.8481304049491882,-0.9641911387443542
2.13245556640625,-0.7936883717358112,0.3495423364669084,1.1771440837204457,0.0024221474304795,-0.6173968315124512,-0.9131138324737548
2.142420410156248,-0.6380782694377005,0.4118170063331723,1.186934240850806,-0.0615600310266017,-0.4116013348102569,-0.862377941608429
2.152385742187498,-0.4523285745395347,0.4758233222976327,1.1449351740330458,-0.0976649895310401,-0.2628723680973053,-0.8177950382232666
2.162349609374999,-0.2541856090742163,0.535351908326149,1.024359998628497,-0.0872807949781417,-0.1975133270025253,-0.7909751534461975
2.172314453124997,-0.0542162136330269,0.5336944965079427,0.929194574290514,-0.0285910870879888,-0.1950839310884475,-0.788174033164978
2.1822795410156246,0.1476679841872304,0.5410875293686985,0.8416407940000296,0.0531913936138153,-0.2479737699031829,-0.7868642807006836
2.1922443847656226,0.319474019004777,0.4815881694346666,0.7785515928804874,0.1492015719413757,-0.3349804282188415,-0.7835025787353516
2.2022084960937462,0.4525278599712997,0.4583221523985266,0.7539742009848356,0.2529447376728058,-0.4549949765205383,-0.7794274091720581
2.212173828124996,0.5513322618661448,0.4355722681909799,0.7601023284763098,0.3535906374454498,-0.5732232332229614,-0.7802228927612305
2.2221384277343716,0.6023485286803916,0.3465361403882503,0.8421037353366613,0.4419766962528229,-0.6645784378051758,-0.7690783739089966
2.232103515624999,0.6478524983465671,0.2187611166074871,0.9502537289321422,0.497334748506546,-0.7168598175048828,-0.7436497211456299
2.242067626953123,0.6685490302208811,0.0787426973253488,1.1361556552499532,0.5252284407615662,-0.7232697606086731,-0.7104848027229309
2.2520324707031207,0.6926704219773412,-0.0194002815186977,1.2352291929423809,0.51677006483078,-0.7166374325752258,-0.6711747050285339
2.2619978027343706,0.6954196476202458,-0.0974140800476074,1.2821329829365014,0.4809196293354034,-0.6978496313095093,-0.6311833262443542
2.271962402343746,0.6562482785090804,-0.1478589036494493,1.336011872640252,0.4235801994800567,-0.6753783226013184,-0.5968674421310425
2.281926513671877,0.5778316713329404,-0.22116174800843,1.2799018628835677,0.3632169961929321,-0.6513118743896484,-0.5739355087280273
2.2918916015624973,0.5128962578248232,-0.260282044519484,1.3129448853075505,0.2846771478652954,-0.6122219562530518,-0.5746316313743591
2.3018564453125023,0.4984768334586173,-0.3191343387216329,1.2447592378318308,0.1955155879259109,-0.5732833743095398,-0.5876228213310242
2.311821777343752,0.4463036882268265,-0.3887777837902307,1.1810165412396192,0.1016972437500953,-0.5208579301834106,-0.6145870685577393
2.321784912109372,0.4031234122678637,-0.43144115973562,1.0806827743530272,0.0065065454691648,-0.4701404571533203,-0.6451764106750488
2.331749755859377,0.4683381176413967,-0.4534682826265692,1.0043003764182328,-0.0879624411463737,-0.4144416749477386,-0.6716753840446472
2.341715087890627,0.5554733437262476,-0.4936065240085124,0.9640250646531582,-0.1737804263830185,-0.3482354879379272,-0.6769436597824097
2.351679931640625,0.6397010483339428,-0.5212400886043906,0.9192121094584464,-0.2561322450637817,-0.2566786706447601,-0.663025438785553
2.3616440429687557,0.7736703967101871,-0.5994394728332758,0.7899480161637067,-0.3201317489147186,-0.1509594470262527,-0.6356039047241211
2.3716088867187466,0.8728406727753579,-0.6967875019073486,0.6598083090782165,-0.3581621944904327,-0.0434996262192726,-0.6048790216445923
2.3815737304687516,0.9819623609472066,-0.7325187405019998,0.4941255794465541,-0.3794730603694916,0.035075344145298,-0.555070698261261
2.3915390625000015,1.1432723553873598,-0.8130316623702645,0.3284171308517455,-0.38646200299263,0.077372595667839,-0.4841504693031311
2.401503173828125,1.282383888957649,-0.8699147023260593,0.203257550266385,-0.3814368844032287,0.0766386315226554,-0.4021376371383667
2.411468017578123,1.3542257208533584,-0.9192305218979716,0.0188987617373466,-0.3566387593746185,0.048043105751276,-0.3011345863342285
2.4214331054687506,1.3148700081512332,-0.9924068172678352,-0.1585831267595291,-0.307436853647232,0.0215656906366348,-0.2028788626194
2.431397705078126,1.3351893042109906,-1.16864075153023,-0.3550339196205139,-0.2408553063869476,-0.0197831820696592,-0.1238096058368682
2.44136181640625,1.4036800721131264,-1.325817810884118,-0.5263929413229227,-0.1742549687623977,-0.0707433000206947,-0.0675069168210029
2.4513271484375068,1.3859211280606687,-1.3645318646818398,-0.7027414418756961,-0.1204676404595375,-0.1403317004442215,-0.0281725656241178
2.4612919921874976,1.2969682946272194,-1.326390350075066,-0.7884598234325647,-0.0910743251442909,-0.1944450139999389,0.001423941925168
2.471257080078125,1.2565247866883873,-1.3264134386897086,-0.8543518070131539,-0.0637024343013763,-0.2022288590669632,0.0174066238105297
2.4812209472656264,1.3509624812737109,-1.5166145235061643,-0.9215192173570392,-0.0349602699279785,-0.1680431962013244,0.0322771817445755
2.4911857910156243,1.5628339844979344,-1.7224129904270171,-0.9451391623973846,-0.0393918007612228,-0.0932622253894805,0.0452872663736343
2.501151123046874,1.798428454745561,-1.927780372454226,-0.9402584046185016,-0.0920885652303695,-0.0035533746704459,0.0512516796588897
2.511115966796872,1.921077367684245,-1.913951461327076,-0.9875830503731964,-0.2051432430744171,0.0513989552855491,0.0542978085577487
2.521080078124996,1.8423510369718077,-1.6538471114620563,-1.254153089120984,-0.3715721666812897,0.0348101258277893,0.0454992577433586
2.531044921875001,1.6711296701744198,-1.2811980401739478,-1.6405828484803435,-0.56142258644104,-0.0072555840015411,0.0176298283040523
2.541009765624999,1.4365826631531118,-0.9045932169973848,-1.972105544131994,-0.7211739420890808,0.0042945453897118,-0.0091043133288621
2.5509750976562486,1.1325826921340076,-0.4963800803750753,-2.282369178655744,-0.8241596221923828,0.058620385825634,-0.0182877220213413
2.560938964843757,0.871021202263236,0.0407215942278504,-2.531125912815332,-0.8655304908752441,0.1325167119503021,-0.0097893085330724
2.5709040527343774,0.7165750291779637,0.5609203570857644,-2.628185772597789,-0.8323771953582764,0.2690552771091461,0.0114981476217508
2.5808688964843753,0.6867264188811183,0.919091405688226,-2.6453999422490595,-0.719885528087616,0.4365739524364471,0.0742339715361595
2.5908337402343733,0.7709824728004634,1.1493389619499443,-2.6735627914160487,-0.5347842574119568,0.6085445284843445,0.1663220822811126
2.600799072265623,0.9165303230285644,1.290645667476952,-2.6096827321797607,-0.3114060461521148,0.7493323087692261,0.2755140960216522
2.6107629394531244,1.087162491761148,1.399160987253487,-2.390859363991022,-0.100057803094387,0.8391097187995911,0.3832876682281494
2.620728027343752,1.2548228050760923,1.421193955363333,-2.126750162398815,0.0835937857627868,0.8527003526687622,0.4815638959407806
2.630693115234372,1.382065621676296,1.4026216491013763,-1.803245938029885,0.2261841148138046,0.8282350897789001,0.559044361114502
2.640656738281251,1.3984230283677577,1.3484353008836507,-1.4844710802704095,0.3406238853931427,0.7760299444198608,0.6136891841888428
2.6506218261718715,1.3595897321045398,1.2413748560905455,-1.1493933224856854,0.4197123944759369,0.73136967420578,0.6403511762619019
2.660586914062499,1.3825561816722154,1.104915298333764,-0.9038596420258284,0.4544576108455658,0.6834383606910706,0.654610812664032
2.6705520019531264,1.4106582405626773,0.9283911489531396,-0.6907920608848332,0.4588214159011841,0.6586270928382874,0.669184148311615
2.6805170898437467,1.423131207036227,0.8197118707865476,-0.491195955735445,0.4405699968338012,0.6597581505775452,0.6855921745300293
2.6904807128906256,1.4351092295996843,0.7232181204542517,-0.3630348552465439,0.4113889336585998,0.6687295436859131,0.7096183896064758
2.700445800781246,1.4937021422132848,0.6737932875499129,-0.2874357166439295,0.3774948716163635,0.6818773150444031,0.7455266118049622
2.7104108886718734,1.513574279027432,0.6868240340366959,-0.2588718854606151,0.3569239377975464,0.6960675716400146,0.7795047760009766
2.720375976562501,1.4461312666125594,0.7339148710355162,-0.2036778215050697,0.3400821089744568,0.7068501710891724,0.8123263716697693
2.7303400878906245,1.2814479232817888,0.8120636941209435,-0.0964753378927707,0.3326171636581421,0.7108994722366333,0.8413729667663574
2.7403046875,1.1286655917555093,0.9124626351982354,-0.0470721322983503,0.3294599950313568,0.6960366368293762,0.8607496023178101
2.7502697753906205,0.995883991859108,0.9837342659905552,0.0394733477324247,0.329525887966156,0.6826347708702087,0.8769378662109375
2.760234863281241,0.8322663780637085,1.0196420301958915,0.2503904728412628,0.3361212313175201,0.6911273002624512,0.8963451385498047
2.7701989746093716,0.7052662841781974,1.0736141511410475,0.4378489809513092,0.3389346897602081,0.6942731738090515,0.914714813232422
2.780164062499999,0.6420555025056004,1.0922063311472534,0.6451081680744886,0.3326224684715271,0.6936926245689392,0.9253000617027284
2.790128906249997,0.573142746331729,1.1231576419889926,0.8295254087924957,0.3231425881385803,0.6874208450317383,0.9352749586105348
2.800093750000002,0.4951539726462214,1.140397238342464,1.0184265169262885,0.3025617003440857,0.6767312288284302,0.9459057450294496
2.8100578613281257,0.4169729643242433,1.1399901188462973,1.174575110015273,0.2837835550308227,0.6691542863845825,0.9564419984817504
2.820022949218746,0.3860538752516731,1.11450905610919,1.3337287301391365,0.2630050182342529,0.659408688545227,0.9675710797309875
2.8299880371093735,0.3576481937721371,1.1009364578306675,1.3898171125859022,0.2359244376420974,0.6367695331573486,0.9617523550987244
2.8399528808593715,0.3108440647602081,1.094280799333751,1.4348036707818508,0.2315424680709839,0.6116567254066467,0.9465044140815736
2.849916748046873,0.2904825735265389,1.0573699955657123,1.4019927035480737,0.2312619239091873,0.5848309993743896,0.9352816343307496
2.8598818359375073,0.2511576212888583,1.0459446384489537,1.401426886358857,0.2411068230867386,0.5361545085906982,0.9253363013267516
2.8698469238281206,0.2401525354107841,1.034740815128386,1.369389826107025,0.2465043812990188,0.4732973873615265,0.9063863158226012
2.879812011718748,0.1800447612548247,1.036022087110579,1.3999638280689717,0.2396667152643203,0.4236177206039428,0.8738049268722534
2.8897761230468717,0.0286390153113752,1.017519923475385,1.4937527033567428,0.2221978157758712,0.384784996509552,0.8393609523773193
2.8997407226562473,-0.1058595080381259,0.9761740598693488,1.541300636473298,0.187880590558052,0.3592886924743652,0.7967125773429871
2.9097058105468747,-0.2159646542893722,0.9641434303358196,1.587127152624726,0.1397274285554886,0.3562802374362945,0.7552034258842468
2.919670898437502,-0.3307071780176833,0.9360384488359094,1.626816773456335,0.0891904830932617,0.3721734583377838,0.7097824215888977
2.929635009765626,-0.365939161853306,0.8737313380047679,1.604336061578989,0.0420229062438011,0.3969793319702148,0.6707056164741516
2.939600097656246,-0.3291210778700187,0.7534992769494653,1.5227520033478736,-0.0021621324121952,0.4201126098632812,0.6401013731956482
2.9495649414062513,-0.257012156003341,0.7028706212133169,1.357194945922494,-0.0410695299506187,0.400900661945343,0.6065137982368469
2.959529785156249,-0.1454697800232097,0.6460618155375123,1.0724620584964752,-0.0681794434785842,0.3433838188648224,0.5671296119689941
2.969493896484373,-0.1250525400143116,0.5671954918324947,0.8157271850645542,-0.075323686003685,0.2673525810241699,0.5412554740905762
2.9794589843750003,-0.1374119265781715,0.4897814127624034,0.6170826815515756,-0.0777620747685432,0.1850861757993698,0.519145131111145
2.9894240722656207,-0.1864184975378215,0.4222796558976173,0.3686614629566669,-0.0857582464814186,0.0877643525600433,0.4888737797737121
2.9993889160156257,-0.2457633244972676,0.4203063099980354,0.1485521466106176,-0.1022663861513137,-0.0003439339343458,0.4502888321876526
3.009352783203127,-0.3724302409056574,0.4112900598496198,-0.1199286941945552,-0.1125495880842208,-0.0617916993796825,0.4124764800071716
3.0193178710937474,-0.6193810946870595,0.3992071156069636,-0.2560217567265033,-0.1131394803524017,-0.071108229458332,0.3707354366779327
3.029282958984375,-0.8164869173906742,0.4143056082785129,-0.4019435548335313,-0.1158190816640853,-0.06085105240345,0.3124872744083404
3.0392480468750023,-0.99269615560323,0.4440282541081309,-0.6025058746665716,-0.1185163259506225,-0.0517310574650764,0.2458810955286026
3.049212158203126,-1.0977543206632137,0.4763797871366143,-0.7382751120716333,-0.1233800500631332,-0.0421639829874038,0.1787787526845932
3.0591767578125015,-1.146105971378088,0.5312056023016571,-0.8239192593485116,-0.1267849057912826,-0.0432582758367061,0.1210965439677238
3.069141845703122,-1.1311943065155297,0.4811047698318958,-0.8899252246975898,-0.1225062385201454,-0.0419133119285106,0.0787096619606018
3.0791069335937564,-1.0778417787734418,0.4240115942567586,-0.8814099098086356,-0.1197863519191742,-0.0321733318269252,0.0439301095902919
3.089071044921873,-1.0000919649429618,0.4061377916529774,-0.9042284753382206,-0.1214035898447036,-0.0207344274967908,0.0137221496552228
3.0990361328125005,-0.9854187119461596,0.4139341446176171,-0.8320715861439705,-0.1169268190860748,0.0017320000333711,-0.0118471253663301
3.1090009765624913,-0.9920506973065436,0.4247977761983871,-0.7455342894196509,-0.126927375793457,0.0158361364156007,-0.043512113392353
3.1189658203124964,-0.9515601353555916,0.4233288726896047,-0.6692185269802808,-0.1377728283405304,0.0175695866346359,-0.078232541680336
3.128929931640627,-0.8568086255807429,0.3412202060624957,-0.5711451062411069,-0.1576331704854965,0.0132042355835437,-0.1171184405684471
3.1388950195312404,-0.7385276255279779,0.2012029558241367,-0.5087491480827331,-0.1820762008428573,0.0022975255269557,-0.1501650661230087
3.148860107421875,-0.6589427052248269,-0.0113069914340972,-0.4700105443656444,-0.217334434390068,-0.0260585583746433,-0.1808688938617706
3.158824951171873,-0.447926174862124,-0.3966220675498247,-0.4429162012130022,-0.2472933977842331,-0.0505119673907756,-0.2059122025966644
3.168788818359374,-0.2916028097281232,-0.7364417591646313,-0.4133160127192735,-0.2960881888866424,-0.1035828292369842,-0.2387676537036895
3.1787539062500016,-0.4206979761967435,-0.792769211064279,-0.3910732012510299,-0.3875262439250946,-0.2021858394145965,-0.2835465669631958
3.188718994140622,-0.7301099257946014,-0.6301303791731596,-0.3943026846915483,-0.5581372380256653,-0.3587536513805389,-0.3611036539077759
3.1986840820312494,-1.1964552256509662,-0.1927113140717148,-0.4287923987925052,-0.8065137267112732,-0.5173220038414001,-0.4726333618164062
3.2086479492187507,-1.722802866527438,0.1355003573358059,-0.5165501772224903,-1.0571471452713013,-0.5987933278083801,-0.5891658663749695
3.218612792968756,-2.248303827446699,0.384008377431333,-0.6038017596960067,-1.2632806301116943,-0.5827203989028931,-0.6860758662223816
3.228577880859376,-2.600128137370944,0.6594765929058194,-0.7708844192534685,-1.4003812074661257,-0.4412125647068023,-0.762546956539154
3.2385429687499965,-2.844045030283928,0.8420137189656496,-0.8623959972590207,-1.4421265125274658,-0.1937018483877182,-0.8067722320556641
3.2485070800781273,-2.96401639457643,0.9747960495144128,-0.9109867174267768,-1.3817018270492554,0.1323408037424087,-0.8000256419181824
3.2584719238281252,-2.8108842266991734,1.034267060136795,-0.9484124849796296,-1.2519747018814087,0.435917466878891,-0.7436872720718384
3.268436767578123,-2.3440919137276706,0.9629016135811804,-1.1542629743486643,-1.054099202156067,0.6276220679283142,-0.6545103192329407
3.2784018554687506,-1.859962243116647,0.693720807813108,-1.1438701751500366,-0.8037492632865906,0.7417433261871338,-0.5411720275878906
3.2883659667968743,-1.4506529818207026,0.3882116743400692,-0.9638339259952308,-0.5638963580131531,0.7430376410484314,-0.4298395812511444
3.2983310546875018,-1.208154796599224,0.1610641299203038,-0.870972686946392,-0.3358461260795593,0.6434681415557861,-0.3591845631599426
3.308295898437507,-1.1510638860464095,0.0111696287900209,-0.7796504940330982,-0.1255581974983215,0.4524827003479004,-0.3447023332118988
3.3182583007812454,-1.1630485575463625,-0.144065941107273,-0.7024386595368385,0.0497523695230484,0.1987135559320449,-0.3833285570144653
3.3282221679687467,-1.2424777027659115,-0.2172270389080047,-0.5019114110171795,0.1741359829902649,-0.0671755522489547,-0.4619027376174927
3.3381874999999965,-1.3445795022383331,-0.2888935142368078,-0.218507726368308,0.2267813384532928,-0.3170109391212463,-0.5592374801635742
3.348152587890624,-1.343046885843575,-0.3663090546116233,0.1041641388297081,0.2154066264629364,-0.5132724642753601,-0.6574298739433289
3.3581171874999995,-1.2447548539176585,-0.414141357627511,0.4637678505837917,0.1400101333856582,-0.6089782118797302,-0.7424818873405457
3.3680812988281232,-1.0717648700125515,-0.4290492961630225,0.74475278365314,0.0451901033520698,-0.6291140913963318,-0.7811453938484192
3.378046142578121,-0.8567512693703174,-0.4167348812520504,0.8689765446931124,-0.0351686477661132,-0.5882689356803894,-0.7809086441993713
3.388011474609371,-0.6674613811146467,-0.3749433197051287,0.8646154268741607,-0.0927207395434379,-0.5209864974021912,-0.7432435750961304
3.3979765624999985,-0.5194271208982915,-0.270681273458898,0.8171089948117732,-0.1318766623735427,-0.4493528306484222,-0.6881896257400513
3.4079401855468774,-0.3512622921273112,-0.1996110104575753,0.6718477064400911,-0.1331602782011032,-0.3691290915012359,-0.6230841875076294
3.4179052734374977,-0.1942291712887585,-0.206103587347269,0.4971095636934041,-0.0999634265899658,-0.3151159286499023,-0.5637044906616211
3.4278701171874957,-0.0798978587098419,-0.2076271436527371,0.288605929467082,-0.0292282737791538,-0.2996739447116852,-0.5154708623886108
3.4378354492187455,0.0144022540356963,-0.2185512732490897,0.2055564748585224,0.0514689721167087,-0.3169272541999817,-0.4911860227584839
3.4477995605468763,0.1283918405048549,-0.2346454989597201,0.1593342373877763,0.1225000470876693,-0.353967547416687,-0.4886272549629211
3.457764160156252,0.1982143684674054,-0.3120914344727993,0.1066314057260751,0.2055107653141021,-0.4000562131404876,-0.5112678408622742
3.467729248046872,0.2514080523859709,-0.406785734167695,0.1064560491591691,0.2809079885482788,-0.4615990221500397,-0.5422343015670776
3.4776940917968773,0.2919816895104944,-0.446736051762104,0.1953495536208152,0.3332766592502594,-0.4982448816299438,-0.5681362152099609
3.487658203125001,0.3506436122396961,-0.5067360546946525,0.3672545187681913,0.3696841299533844,-0.5178152918815613,-0.5838086009025574
3.497623535156251,0.4453307880740612,-0.5417182284876704,0.5121615868747234,0.3747881054878235,-0.5346981287002563,-0.5811079144477844
3.5075881347656264,0.5242668160144239,-0.5520739105463027,0.6186766727447509,0.3655414283275604,-0.5347353219985962,-0.5720131993293762
3.5175532226562467,0.6207740834154188,-0.6009887481018901,0.7352180625885725,0.3544357717037201,-0.5319658517837524,-0.5515276789665222
3.5275173339843704,0.7352750534728169,-0.5836345854580403,0.7762111672341823,0.3351324796676636,-0.5494499802589417,-0.5292498469352722
3.5374821777343755,0.7716437131881714,-0.6196624689117074,0.8047673996329308,0.3168783783912658,-0.5633546113967896,-0.5056502223014832
3.5474475097656253,0.6876409764427691,-0.6164858847022057,0.874827608808875,0.2982713282108307,-0.562598466873169,-0.49028080701828
3.5574123535156232,0.5910956420537083,-0.5930874734580517,0.9276385770201684,0.2745164632797241,-0.556901752948761,-0.4915980100631714
3.5673762207031245,0.4989318106845021,-0.5881044243484735,0.9024275633960962,0.2474985867738723,-0.5506318807601929,-0.5052371025085449
3.577341308593752,0.3963965151656419,-0.5699450828015804,0.8918027090072631,0.2306541055440902,-0.5283486843109131,-0.5289288759231567
3.587306152343757,0.3526186021070927,-0.5866361053615808,0.86344170691967,0.2280031144618988,-0.496158242225647,-0.5463311076164246
3.5972714843749998,0.4203312252435833,-0.5956318972438573,0.8188076154232025,0.2230797410011291,-0.4639033675193786,-0.5529876351356506
3.6072355957031235,0.588079984026961,-0.6215463829621672,0.7885247053623199,0.221368595957756,-0.4236248731613159,-0.5378879904747009
3.617200195312499,0.7831716538965702,-0.6753603907361626,0.7489443901240825,0.2300726175308227,-0.3840242028236389,-0.4888461828231811
3.6271652832031265,0.971535586413741,-0.7376628253921866,0.7139175004065036,0.242599070072174,-0.3571343719959259,-0.4140137434005737
3.6371301269531244,1.208483663227409,-0.8162722517266869,0.6890460940003394,0.2462750375270843,-0.3280819356441498,-0.3256979882717132
3.647094238281241,1.3874481914974748,-0.8924234712541103,0.6176017369896173,0.2554182410240173,-0.3313585221767425,-0.2297485619783401
3.657059570312491,1.445522487064451,-0.970280617916584,0.5566659145116806,0.2608079314231872,-0.3387022018432617,-0.1082279831171035
3.6670241699218735,1.420408211813122,-0.983731051120162,0.4891062899798155,0.26844522356987,-0.3536987006664276,-0.0019809142686426
3.676988281249997,1.304228494888544,-0.984383962070942,0.4064274222493171,0.273889809846878,-0.3722273707389831,0.104933813214302
3.6869533691406247,1.1938334257800132,-0.9617252632781864,0.3736439275443554,0.2622294425964355,-0.3881012201309204,0.1919949352741241
3.6969182128906226,1.1362728518888354,-1.0546712580010291,0.2561667181551456,0.2604587078094482,-0.3969908654689789,0.269400805234909
3.7068835449218724,1.114318501973152,-1.2441694552451372,0.2344692656099796,0.2542614638805389,-0.3771553933620453,0.3349499404430389
3.7168471679687514,0.999734383676946,-1.316436819076538,0.1851525692552328,0.2303667813539505,-0.3639032244682312,0.3668607473373413
3.7268122558593717,0.7997218797463923,-1.2460744120836258,0.0866623844087123,0.1858651936054229,-0.3640724122524261,0.3663155734539032
3.736777343749999,0.5944886820254847,-1.193933890479803,0.0261205296844244,0.1384500116109848,-0.3701928853988647,0.3513371646404266
3.746742187499997,0.4162768352862447,-1.1881404017701744,-0.1039975500911474,0.0899120345711708,-0.3691677451133728,0.3029177188873291
3.7567065429687574,0.3120974623547867,-1.1653516468569636,-0.2681932560354471,0.0451243296265602,-0.3609513640403747,0.230948194861412
3.766671142578126,0.323280060224235,-1.242793490716815,-0.5159019424468279,0.0047186976298689,-0.356694608926773,0.1616567373275756
3.776636230468746,0.3872450577976182,-1.3326090784594415,-0.737337538960576,-0.0537137165665626,-0.3507355153560638,0.107894979417324
3.7866013183593736,0.3976030779438093,-1.2701181354939937,-1.019686161598563,-0.1622866541147232,-0.3862608969211578,0.0492942444980144
3.796565185546875,0.3305484072593972,-1.176372514826059,-1.3941244543910023,-0.3105003535747528,-0.446319431066513,-0.0160309635102748
3.8065305175781248,0.1967861622951924,-0.9690186351567506,-1.64364866579175,-0.4891103208065033,-0.4794441759586334,-0.0778634399175643
3.8164953613281227,-0.0331196678567677,-0.7042515541777015,-1.943777275270224,-0.6645822525024414,-0.4700368344783783,-0.1380471438169479
3.8264602050781207,-0.3036264615315944,-0.3109530780926346,-2.180373031514883,-0.8057230114936829,-0.4024153649806976,-0.2037942111492157
3.8364243164062515,-0.5799270361769944,0.0985930606991052,-2.417466800409555,-0.8906959295272827,-0.2619554400444031,-0.2535005211830139
3.8463891601562494,-0.8105952290035784,0.5330889318302273,-2.587475576546788,-0.8957737684249878,-0.0592170357704162,-0.2894878089427948
3.8563544921875064,-0.8953859012562781,0.897427855412662,-2.689287599292397,-0.8024089336395264,0.1878731697797775,-0.2881442606449127
3.866319335937497,-0.7300170598793775,1.1584206785500049,-2.711120076394081,-0.6364381313323975,0.4428329765796661,-0.2564709782600403
3.8762832031249985,-0.4225966859575361,1.364736739604175,-2.685399944204092,-0.4292620122432709,0.6485214233398438,-0.1955498307943344
3.886248291015626,-0.0864922520061954,1.5504472350031138,-2.576201902860403,-0.2168418616056442,0.7796359658241272,-0.1220879107713699
3.896213134765624,0.2592377961635589,1.6521797627717256,-2.3689105670332906,-0.0028105387464165,0.8295822143554688,-0.0568585693836212
3.9061784667968737,0.5498475397337228,1.7044506327569484,-2.0775813500821587,0.1936030387878418,0.8111062049865723,-0.0035559283569455
3.9161425781249974,0.7446146903567016,1.723625873348117,-1.7693454219937323,0.3566098213195801,0.7490785121917725,0.0296566188335418
3.926107177734373,0.9202987356513738,1.6962003985449672,-1.416063314476609,0.4920410513877868,0.6722524166107178,0.0584608614444732
3.9360722656250005,1.0703135021604595,1.600011184117198,-1.1156021120429038,0.6010809540748596,0.5885796546936035,0.0795195400714874
3.9460371093749984,1.1965412234339865,1.4958967296481132,-0.8370920446544885,0.680350661277771,0.5268566608428955,0.0991997644305229
3.956001220703122,1.334162299250811,1.340633687222004,-0.523427077254653,0.7191920876502991,0.5052900910377502,0.1335670500993728
3.965966552734372,1.4931696427717804,1.142187921151519,-0.2348801844984293,0.7215489149093628,0.5221253037452698,0.1811918169260025
3.975931396484377,1.6523752853438258,0.9786515558987856,0.0081266078323125,0.6884719133377075,0.5650069713592529,0.2355485260486602
3.985896240234375,1.768197421002388,0.8494313017457723,0.1739408548891544,0.6207996606826782,0.6191401481628418,0.2908120453357696
3.9958603515624986,1.8220988147988917,0.7950456315636635,0.3211836724668741,0.5235795974731445,0.6715580821037292,0.3495408892631531
4.005825195312497,1.872010846698284,0.7820578474357723,0.4376636875122785,0.4094415307044983,0.7202025055885315,0.405571699142456
4.015790527343746,1.8405160766296087,0.8140937386438251,0.510856934016943,0.2833245992660522,0.7450311779975891,0.4642517864704132
4.0257553710937515,1.7919084053270518,0.923607129547,0.5297428362727165,0.1510069370269775,0.7455028891563416,0.5102613568305969
4.035719238281246,1.705107635360956,1.1107114173918962,0.5203063148856163,0.0434477068483829,0.7400508522987366,0.561214804649353
4.045684326171873,1.569039853400737,1.2630953972503542,0.5187362890899181,-0.0383902080357074,0.7443675994873047,0.6112638711929321
4.055649169921871,1.3880201461665331,1.412621065068245,0.5483499215871095,-0.0919152125716209,0.7676481604576111,0.6572582721710205
4.065614501953121,1.2588731033802032,1.5934879198282956,0.5108715470641851,-0.1102579459547996,0.7824777960777283,0.7011910676956177
4.075578613281252,1.1907231848049908,1.702394284749031,0.4801011457473039,-0.086031436920166,0.7989529371261597,0.7531629204750061
4.085543212890627,1.177131735695526,1.773793925835192,0.5193506215959787,-0.0394098386168479,0.7977747917175293,0.82191002368927
4.0955083007812405,1.2118868957996367,1.8050544487565756,0.5691945566952228,0.0267345607280731,0.786665141582489,0.9045735001564026
4.105473144531246,1.243960780930519,1.7644339768156407,0.6683820761561393,0.1027663946151733,0.7653487920761108,1.001797795295715
4.115437255859376,1.226168519130349,1.7010697581470011,0.7950602446109056,0.1694229245185852,0.7391217350959778,1.104045271873474
4.125402587890626,1.0892732733700423,1.6137649841815231,1.0148340453922748,0.2218654751777649,0.7134726643562317,1.1823982000350952
4.135367431640624,0.9154979843061416,1.5033900080129503,1.2195447170764206,0.2345599681138992,0.6802827715873718,1.2320197820663452
4.145332275390622,0.7261763857379555,1.3831532707825305,1.4126315864622592,0.2217166125774383,0.6447998881340027,1.256684184074402
4.155296386718746,0.5166613825120031,1.23652712379843,1.5873469328552483,0.1794820874929428,0.6241174936294556,1.2647428512573242
4.165261230468751,0.3166714557394385,1.077799912393093,1.681853016501665,0.1308292001485824,0.6090222001075745,1.2605431079864502
4.175226562500001,0.1500873933538794,0.9408850120842456,1.7319594019293785,0.0686518400907516,0.6010279655456543,1.2499085664749146
4.1851901855468725,-0.0030092648185789,0.8377753507435322,1.7652566913753749,-0.001730082090944,0.6087131500244141,1.2308818101882937
4.195155273437507,-0.1532983912896365,0.743396985130012,1.6999901462167502,-0.0645543187856674,0.6187780499458313,1.2097758054733276
4.205120361328127,-0.2795237014103681,0.623012656122446,1.5453560493439435,-0.1077437549829483,0.6101936101913452,1.1935997009277344
4.215085205078125,-0.3486518173679709,0.5020666015788913,1.2986843047648668,-0.1397269964218139,0.5847085118293762,1.1829262971878052
4.225049316406249,-0.386621190278232,0.3295341521829366,1.123313709333539,-0.1655469387769699,0.5608673095703125,1.1760952472686768
4.2350144042968765,-0.440926123374328,0.1765010607659816,0.9144038323938846,-0.1868112087249755,0.524584174156189,1.162177562713623
4.244979248046874,-0.5928459197871386,0.0575946953564882,0.5985843173086642,-0.2103604972362518,0.4699086248874664,1.1377681493759155
4.254944335937502,-0.8166407197128981,-0.0308536956861615,0.3167909904658794,-0.2202202975749969,0.4204798340797424,1.0871504545211792
4.264908203124996,-1.1179857923090455,-0.0992222985133528,0.0309241305738687,-0.2155321091413498,0.3783267438411712,1.0135252475738523
4.2748732910156235,-1.4050212575890122,-0.1275441376343369,-0.3424900798678398,-0.195471316576004,0.3195920586585998,0.9118137955665588
4.284838378906251,-1.6541656758919356,-0.1394640002697706,-0.6690016693592071,-0.1474679410457611,0.2667902410030365,0.7934978604316711
4.294803466796871,-1.8369494701892135,-0.1538058293551206,-0.8688198928266763,-0.0777919217944145,0.2173087000846862,0.6600993275642395
4.304767333984373,-1.9565549237787725,-0.1813987696796655,-1.0273486590504646,-0.0051787481643259,0.1707969605922699,0.5282885432243347
4.314732177734371,-2.0331420505054294,-0.2068660961523652,-1.039267060381174,0.050587311387062,0.1402347832918167,0.4030797481536865
4.324697021484376,-2.015661923394352,-0.2602121941536665,-0.9764853177756072,0.0865194573998451,0.1412786096334457,0.2995834350585937
4.334662109374996,-1.931495301324129,-0.3488014549717307,-0.8255880693435669,0.0898217782378196,0.1607348620891571,0.2139074206352234
4.344625732421875,-1.7936733691729605,-0.5089861717090011,-0.6600719284504651,0.0787207260727882,0.194119855761528,0.1623778939247131
4.354591064453125,-1.5655086105346678,-0.6652186436891555,-0.486667664656043,0.0470405593514442,0.2241776287555694,0.1249977797269821
4.364555908203123,-1.3491241599306465,-0.7620549238488078,-0.3362397873014211,-0.0026143682189285,0.2283565253019333,0.0940784737467765
4.374520996093757,-1.192078325740993,-0.7816916444718838,-0.2725093656688928,-0.0649296715855598,0.2011965364217758,0.0621216110885143
4.384485107421874,-1.08063104416579,-0.7807160774379969,-0.1842915685117244,-0.1324422061443328,0.1558212041854858,0.0266528464853763
4.394449707031249,-0.9668643066670743,-0.7926821173027158,-0.0966962871670722,-0.2122062742710113,0.1107195019721984,-0.0136519642546772
4.404415039062499,-0.8415906712479889,-0.917607304610312,-0.0929576851606368,-0.2962567508220672,0.0501423776149749,-0.0465965904295444
4.414379882812497,-0.7203338702548295,-1.0355360571593046,-0.1581985113561153,-0.3814893364906311,-0.0268733091652393,-0.0825370177626609
4.424343994140621,-0.6025338586520403,-1.103385896809399,-0.2382207270979881,-0.4606403708457947,-0.1295214295387268,-0.1116941273212432
4.434309082031241,-0.6082547205168753,-1.1095283450871705,-0.3548983105421066,-0.536688506603241,-0.2519064843654632,-0.1389515846967697
4.444273925781246,-0.7227876200824975,-0.8910399079412221,-0.5197831677943467,-0.6114462614059448,-0.4060801863670349,-0.1889327466487884
4.454239013671874,-0.982327102606371,-0.5513321522682905,-0.7519213601082563,-0.6869633793830872,-0.5816392302513123,-0.2579190135002136
4.464203124999997,-1.388863318992406,-0.1112532203078269,-0.9900731136232614,-0.7743058204650879,-0.7462583780288696,-0.3251704573631286
4.4741679687500024,-1.818818039562553,0.3105988578274846,-1.2481021185189485,-0.8566579818725586,-0.8726778030395508,-0.3813431859016418
4.484133056640623,-2.148412689761072,0.65161448122859,-1.479382232698798,-0.9088838696479796,-0.9134550094604492,-0.4201622009277344
4.494097900390621,-2.4119383923769,0.9292647169172764,-1.589206881508231,-0.919548749923706,-0.8475212454795837,-0.4249897301197052
4.504061767578122,-2.531469611686468,1.0783391338363288,-1.7180185548603533,-0.8620039820671082,-0.6838187575340271,-0.3899110853672027
4.514027099609372,-2.564470840795338,1.1212892177686091,-1.7293442509949206,-0.7136579155921936,-0.4594807028770447,-0.3109435737133026
4.523991943359377,-2.454830316381156,1.0969789523765443,-1.8181378022134305,-0.4974671304225921,-0.2684900462627411,-0.2147850841283798
4.533956054687501,-2.2951076641976838,1.0812439153671265,-1.8756337133705612,-0.2467805743217468,-0.1258700340986251,-0.1434171646833419
4.543921142578121,-2.1861627208322285,1.0026561163425445,-1.7118372358769178,-0.0047409357503056,-0.0456298217177391,-0.1110323220491409
4.5538857421874965,-2.0613627673394976,0.8493339788511395,-1.4280623798280954,0.2066509276628494,-0.0479971058666706,-0.1075313314795494
4.563851074218746,-1.898498602259904,0.679623016616702,-1.1271429122328758,0.3783204555511474,-0.1529820412397384,-0.132957324385643
4.573814941406248,-1.7923308685228228,0.5052016847342252,-0.8896125054866075,0.5096702575683594,-0.3274430632591247,-0.1973986327648162
4.583780029296875,-1.7758625488027928,0.3587050093486905,-0.54129941855371,0.6087728142738342,-0.5179468989372253,-0.2808685004711151
4.5937451171874955,-1.807727028966695,0.293464183153212,-0.1523223127990961,0.6282991170883179,-0.6928385496139526,-0.3882093429565429
4.6037099609375005,-1.9027318559154869,0.3100917850881814,0.3195329826503992,0.5834424495697021,-0.8272786736488342,-0.498806893825531
4.613673828125002,-1.934277625519037,0.3004740619152784,0.6691442927002906,0.4971360564231872,-0.9211862683296204,-0.6219595074653625
4.623638916015622,-1.9191539984062316,0.3009115765497088,0.8870137211650609,0.400537371635437,-0.9870216846466064,-0.7429818511009216
4.63360400390625,-1.8955067269675432,0.311916662427783,1.1362889262408018,0.283458948135376,-0.9882906675338744,-0.8508081436157227
4.643569091796877,-1.815553046417236,0.3783712483271956,1.3788836306393146,0.1665362864732742,-0.9280017018318176,-0.9252381324768066
4.653532714843756,-1.669389256247878,0.4244599225461483,1.5105126994997262,0.0480860695242881,-0.8353471755981445,-0.9559419751167296
4.663497802734376,-1.512729644896835,0.5084010652974248,1.6256483141988516,-0.057808693498373,-0.7126080989837646,-0.9537376761436462
4.673462890624997,-1.400241183705628,0.5979238075733184,1.7692150736123322,-0.1511309146881103,-0.5653725266456604,-0.9321469068527222
4.683427978515624,-1.2789387169398367,0.6840799960255622,1.846602849197388,-0.2233656048774719,-0.4180631339550018,-0.9006281495094299
4.693392089843755,-1.147423629847914,0.7475088043630123,1.87032157843709,-0.2644672393798828,-0.2953148484230041,-0.8718318939208984
4.703356933593746,-1.019555009499565,0.7749579523026943,1.8514052810430528,-0.2656227350234985,-0.2197814732789993,-0.8486964702606201
4.713321777343751,-0.8810259519923478,0.8084349822297692,1.823647505545616,-0.2401258945465088,-0.197085753083229,-0.8486919403076172
4.723286865234371,-0.7526451443381607,0.7980708246037364,1.7884627949178218,-0.1870444416999817,-0.2269742488861084,-0.868505597114563
4.733250976562502,-0.5846027729030698,0.7225748541146516,1.8022867376089096,-0.1184778958559036,-0.289885550737381,-0.8991631269454956
4.743216064453122,-0.4293842272058129,0.6156356976136564,1.8613146806389087,-0.0438021123409271,-0.3724684119224548,-0.9340345859527588
4.753180908203127,-0.2599731247007846,0.477398608790338,1.959452398785949,0.0076376451179385,-0.4551505148410797,-0.9618813991546632
4.763145996093755,-0.1002748397735878,0.3673942194998264,2.079398044115305,0.0319529697299003,-0.5349867939949036,-0.989102840423584
4.773109863281249,-0.0142079918389208,0.2557043613404035,2.167574924740195,0.0256316922605037,-0.5870515704154968,-1.008284330368042
4.783074951171876,0.0564385475913062,0.1427495978116989,2.236471350833773,0.0111831370741128,-0.639555811882019,-1.0187186002731323
4.793040039062497,0.1319549032812938,0.0548734536990523,2.209642965140939,-0.0212424471974372,-0.6821746230125427,-1.037206530570984
4.8030041503906205,0.2623628328489139,-0.0403182741239666,2.1836282339185478,-0.0697740837931633,-0.7249112725257874,-1.054413676261902
4.812968749999996,0.4012366121405735,-0.141242408119142,2.097986424729228,-0.1225456818938255,-0.7452285289764404,-1.0595568418502808
4.8229338378906235,0.4972611740585416,-0.2856409421816468,2.0695757382810114,-0.1901621520519256,-0.7411866784095764,-1.0450875759124756
4.832898925781251,0.5899571760756894,-0.4089633704677224,2.0589467922389506,-0.28521329164505,-0.7257009148597717,-1.0279709100723269
4.842863037109375,0.6562095539338887,-0.4801128361850976,1.958397921296954,-0.408884197473526,-0.7135552167892456,-1.0207393169403076
4.852828125000002,0.6059966393917798,-0.5223334367990493,1.844438949161768,-0.5615895390510559,-0.6823831796646118,-1.0280039310455322
4.86279296875,0.5468660031722858,-0.5331695958510041,1.6792331893920898,-0.7193161845207214,-0.6333921551704407,-1.0516914129257202
4.872757812499991,0.498551944521442,-0.552080924808979,1.4051467836648226,-0.865491509437561,-0.5624032020568848,-1.0769280195236206
4.882722167968751,0.5233053505711257,-0.5576601862460374,1.119350650921464,-0.9862520098686218,-0.4797203838825226,-1.0810160636901855
4.892687011718756,0.6581573270007968,-0.5762526585131883,0.7749410011678933,-1.0821524858474731,-0.4118742346763611,-1.057900071144104
4.9026520996093765,0.8263893027238547,-0.7075739765986799,0.3574550092875957,-1.1436415910720823,-0.3577887713909149,-1.0028862953186035
4.9126169433593745,0.9848278333809226,-0.8493120592802762,-0.0509597873866558,-1.1643444299697876,-0.305740475654602,-0.923853039741516
4.922580810546876,1.110714413066581,-0.9678291331112384,-0.5362538256019354,-1.1277753114700315,-0.2670027613639831,-0.8329662680625916
4.932546142578126,1.1975390022996812,-1.071151560419798,-1.0509007995516062,-1.027279019355774,-0.2273882329463958,-0.7248474955558777
4.942510986328124,1.264386313843727,-1.1842526005513965,-1.4565309339433907,-0.8834880590438843,-0.2021339237689972,-0.6019504070281982
4.952476074218751,1.3180107903949916,-1.2310925315290688,-1.6950526898145677,-0.7158769369125366,-0.1819165349006652,-0.4684735536575317
4.962440185546875,1.3544202205121516,-1.223783669820428,-1.976723851582408,-0.5339921116828918,-0.1820422261953354,-0.3547610938549042
4.97240478515625,1.3492556773558255,-1.2410526383988558,-2.19496386692524,-0.338128924369812,-0.1976715177297592,-0.266383558511734
4.982370117187507,1.4134418799318371,-1.3884374947957694,-2.33601367508173,-0.1294532716274261,-0.2253068387508392,-0.1837358176708221
