time,ax,ay,az,gx,gy,gz
0.0,0.796486843347922,-1.6706991698026656,0.6789607533156872,0.0441042371094226,-0.1476198881864547,-0.0288136526942253
0.009964599609375568,0.9577123743750154,-1.6835528061568736,0.3202858468443155,0.0669042617082595,-0.0744619965553283,0.0213682800531387
0.01992968749999946,1.1549354667827487,-1.718840100376308,0.0236900876671075,0.1126054376363754,-0.0673199295997619,0.0764475166797638
0.029894775390625128,1.2727280257314444,-1.6699270163863895,-0.2355857024192809,0.1434488445520401,-0.0822921320796012,0.1197901889681816
0.039859863281250796,1.3029120054624974,-1.5499994912356136,-0.3170493491411209,0.1598208993673324,-0.0895039737224578,0.1598981916904449
0.049824707031250526,1.2607836131766437,-1.4931526916369795,-0.5343091212749481,0.1722132265567779,-0.0925154089927673,0.2022342085838318
0.05978979492187442,1.1753523779980837,-1.437028068833053,-0.6082014559596777,0.1940277218818664,-0.0688361749053001,0.2579158246517181
0.06975488281249831,1.1115770212452858,-1.2677873544588685,-0.776965200471878,0.209476426243782,-0.0523047372698783,0.3089622557163238
0.07971972656249982,1.0366980136107653,-1.019069198743999,-1.0410866770237683,0.2280682176351547,-0.0471597760915756,0.3599705994129181
0.08968457031249955,0.8004643686767667,-0.8035103853091597,-0.979362919038534,0.2459746748208999,0.0716718658804893,0.4011747241020202
0.09964965820312521,0.5367188858304173,-0.7069158049508929,-0.9144511786669492,0.2537010312080383,0.2089855223894119,0.4249394237995147
0.10961499023437504,0.3889885039314627,-0.6413692738071084,-1.2046189506232738,0.2646661400794983,0.3376866579055786,0.4214419424533844
0.11957983398437477,0.4343974522579461,-0.4865124740943312,-1.332085639107227,0.2928445041179657,0.4476959705352783,0.4182815551757812
0.12954492187499866,0.509831463426724,-0.3411640919610857,-1.4102905762940643,0.330761194229126,0.5252175331115723,0.4441549479961395
0.1395097656249984,0.5456449734773486,-0.1357473178341984,-1.4369243161976335,0.3607678413391113,0.5695583820343018,0.4853377938270569
0.1494746093749999,0.6156974377382546,0.0567947771504521,-1.4673247151583433,0.3789718747138977,0.5992311239242554,0.5246117115020752
0.15943969726562557,0.7316541595619172,0.2300131629839539,-1.4788579165637492,0.4115281999111175,0.6190615892410278,0.558555006980896
0.16940478515624946,0.837648144167289,0.3703700204402208,-1.5020277797490358,0.4519529342651367,0.635303258895874,0.6032875776290894
0.17936962890625097,0.8624046189568937,0.5899392385601997,-1.4897867223352192,0.5092548727989197,0.6174664497375488,0.637080192565918
0.18933471679687486,0.7433778420381247,0.8608946527853608,-1.44030694437325,0.5527896881103516,0.5871022343635559,0.64766925573349
0.19929980468749875,0.6449070194792003,0.9878051686912774,-1.3267010234594343,0.5891780257225037,0.5558186173439026,0.6540057063102722
0.20926489257812442,0.6544038196861743,0.9507207619220018,-1.264012804356217,0.6076822280883789,0.5167141556739807,0.6478694677352905
0.21922973632812592,0.7223377574231475,0.9078639092311264,-1.257812196150422,0.6004488468170166,0.4568239450454712,0.6366586089134216
0.22919458007812565,0.7844316638950258,0.7600988213449716,-1.1930711361706257,0.5726123452186584,0.3868629932403564,0.6256144642829895
0.23915991210937548,0.8361758065924048,0.646172290174663,-1.1423054100513457,0.499097615480423,0.3133949041366577,0.6191946864128113
0.2491247558593752,0.813710073088482,0.6308563553601503,-1.061350881895423,0.4000169336795807,0.2603448629379272,0.6137017011642456
0.2590898437500009,0.6776622379377484,0.6574927256122232,-0.9157873957067728,0.2656596302986145,0.2242438793182373,0.6143981218338013
0.26905468749999883,0.5085450038127601,0.784611623571813,-0.8459358608454466,0.1295478492975235,0.2177416831254959,0.6164340972900391
0.27902001953125044,0.3232859785083681,1.017019280476868,-0.7930500738322734,0.0102060139179229,0.2261471599340438,0.6155161261558533
0.288984619140626,0.1138984741196036,1.269983403198421,-0.7851718878030777,-0.0756104588508606,0.2482320219278335,0.617351770401001
0.2989497070312517,-0.0981120722491294,1.554132060995698,-0.7398591663926839,-0.1247859969735145,0.2617590129375458,0.6165078282356262
0.30891381835937537,-0.247343506360799,1.829565205156803,-0.7385615277975798,-0.1370716243982315,0.2730593383312225,0.619208037853241
0.31887890624999926,-0.2680879690300673,2.0623434489399197,-0.7127677458494901,-0.125100165605545,0.266519695520401,0.6177424788475037
0.32884399414062493,-0.1920163175448775,2.23232855194062,-0.7180763736516237,-0.0929822102189064,0.247494637966156,0.6254400610923767
0.33880883789062466,-0.1297579412262886,2.351093463052809,-0.6149345636069774,-0.0531482435762882,0.2304834276437759,0.6409202218055725
0.3487736816406244,-0.0482172106802463,2.3544869048833847,-0.4987117381930351,-0.0090049030259251,0.2117212116718292,0.6571620106697083
0.35873876953125183,0.0861482243414968,2.3236624352917072,-0.4192126695424318,0.0403946042060852,0.1982956826686859,0.6768880486488342
0.3687038574218757,0.1845089375894516,2.2746634265840053,-0.2883487398356199,0.081538014113903,0.1849498152732849,0.695951521396637
0.37866870117187545,0.2578741065949201,2.245646298675239,-0.1628758555173873,0.0876987054944038,0.1551863253116607,0.710964024066925
0.38863378906249935,0.2789746161602437,2.178535586954653,-0.1215577567011117,0.0812222883105278,0.1000392585992813,0.7242657542228699
0.398598876953125,0.2428635114025324,2.1382108830899,0.032359716334939,0.052649226039648,0.0458673685789108,0.7319444417953491
0.4085639648437507,0.1787224631424993,2.0867019373878835,0.1004606081366538,0.0158012621104717,-0.0104748662561178,0.7317276000976562
0.4185288085937504,0.052201969467476,2.0777295263811943,0.2157072819948196,-0.0264500528573989,-0.0450072772800922,0.7206331491470337
0.4284936523437519,-0.0795543059691786,2.0890107988521454,0.2847638670861721,-0.076595664024353,-0.0666768625378608,0.7002647519111633
0.4384587402343758,-0.1650705890826881,2.0885928657010195,0.3372796517431736,-0.1207269057631492,-0.0608250983059406,0.6840493083000183
0.4484238281249997,-0.1523228973209857,2.004955966593325,0.4988982006758451,-0.1623531579971313,-0.0241894572973251,0.681315541267395
0.45838891601562537,-0.1682540414243936,1.920092740561068,0.4554956968009471,-0.210716962814331,-0.0007523084059357,0.6905146241188049
0.4683537597656251,-0.1653036671862006,1.8877865079790352,0.4656839133381843,-0.2557666301727295,0.034158956259489,0.7075647711753845
0.47831884765625077,-0.1320979284811765,1.7469059189096092,0.4899211134940385,-0.272203654050827,0.078544795513153,0.7276047468185425
0.4882836914062505,-0.1128160857103764,1.668783107048273,0.5046610019862652,-0.2841021716594696,0.1286572366952896,0.7495924234390259
0.4982487792968744,-0.0780959969196468,1.5693158938631415,0.419824079439044,-0.2937563955783844,0.1570292115211486,0.7754778265953064
0.5082136230468759,0.0093060999404639,1.450802911685407,0.3128933985054493,-0.2930719256401062,0.1704434305429458,0.7933326363563538
0.5181787109374998,0.0794711577303707,1.3865142716482282,0.1399421391755342,-0.2797579765319824,0.1392692625522613,0.8040196299552917
0.5281440429687496,0.0718762456219643,1.330702075794339,-0.0459141944348812,-0.2505045533180237,0.083946444094181,0.802328884601593
0.5381088867187493,0.0022113924391567,1.202009352646768,-0.1207587152779102,-0.2067852914333343,0.034913383424282,0.7960776090621948
0.548073974609375,-0.1293575802644714,0.9879854936942456,-0.200135618853569,-0.1440880745649337,-0.0179361589252948,0.7844793200492859
0.5580385742187506,-0.3151521006850525,0.9165689014732836,-0.2056207722663879,-0.0876743346452713,-0.0751041024923324,0.7565259337425232
0.5680039062499986,-0.5561919037917629,0.849969061884284,-0.2120931831508875,-0.0539689771831035,-0.1178802698850631,0.7104090452194214
0.5779687499999984,-0.7149446514971554,0.7191691373243928,-0.1832604718983173,-0.0314096063375473,-0.1386950016021728,0.646167516708374
0.5879338378906258,-0.7861016429338604,0.5611439367085695,-0.1754243714451789,-0.012667616829276,-0.1435521245002746,0.5810660123825073
0.5978986816406255,-0.8054448605030775,0.4257631140992045,-0.1033762033224105,-0.0024131159298121,-0.142515629529953,0.5249233245849609
0.6078637695312494,-0.7987683053486049,0.2936699348583817,-0.1260959846526384,-0.0036214063875377,-0.1478521525859832,0.4827039539813995
0.6178288574218751,-0.6712330816730856,0.2305862866967916,-0.0915484028846025,-0.009761057794094,-0.160812422633171,0.4398843348026275
0.6277937011718748,-0.499777759989351,0.2291924942508339,-0.2136293066769838,-0.0172109417617321,-0.1842498332262039,0.3862373530864715
0.6377587890624987,-0.3692808369640261,0.1889616061493754,-0.2336865907996893,-0.0006074653938412,-0.1885268688201904,0.3361512720584869
0.64772265625,-0.2372598827091976,0.0976557798489928,-0.3130535575032234,0.0203990302979946,-0.2094112932682037,0.2966336905956268
0.6576877441406257,-0.0930346045880578,0.1316772919163107,-0.3053530661284923,0.0326370559632778,-0.216939777135849,0.2540793120861053
0.6676528320312496,0.1396293286330066,0.1487467923998832,-0.1752723957538604,0.0426792465150356,-0.2107653319835662,0.2139098048210144
0.6776179199218753,0.3351538186956196,0.1468897663563489,-0.3267734552979469,0.0546576119959354,-0.2477539926767349,0.1762484461069107
0.687582763671875,0.5227829706648365,0.2771978157460689,-0.3946399538218975,0.092055469751358,-0.2818160951137543,0.149985671043396
0.6975476074218747,0.7568064287360757,0.2665449043065309,-0.3487421259999275,0.1455599665641784,-0.2942533195018768,0.1551077365875244
0.7075129394531245,1.0016136215522884,0.2126113618060946,-0.3514280040830373,0.2084671109914779,-0.3061883449554443,0.1855090260505676
0.7174777832031243,1.2117554514396935,0.1567503583744168,-0.2268693120002746,0.2696545422077179,-0.2772429883480072,0.2261145114898681
0.7274428710937517,1.4138665350846946,0.0925409210532903,-0.1585363650083542,0.3090775310993194,-0.2507334649562835,0.2755166888236999
0.7374077148437514,1.6985137900538745,-0.0448641008600592,-0.0474859737962484,0.3322009742259979,-0.2153541594743728,0.3448201417922973
0.7473730468749995,1.9287138539120556,-0.1672515863835811,0.0626285978704691,0.3288159668445587,-0.1847044825553894,0.4279104769229889
0.7573376464843751,2.0857246167883274,-0.1716062744617462,0.1115121635049581,0.3090310990810394,-0.1317842751741409,0.5152651071548462
0.7673027343750007,2.2251000619918107,-0.2757639835506677,0.1970411599695682,0.2991862893104553,-0.0626583099365234,0.6312860250473022
0.7772675781249987,2.184135160527378,-0.3439829487740993,0.4392132550418376,0.2808299362659454,0.0555724576115608,0.748613715171814
0.7872329101562503,2.188386826622486,-0.3166717480003833,0.5278384639561176,0.2410443127155304,0.158722698688507,0.8395795822143555
0.7971977539062518,2.250151939531416,-0.3235626765578985,0.5323334372878075,0.189139574766159,0.2530004680156708,0.913594663143158
0.8071628417968757,2.356415680988878,-0.3581915068686008,0.6087421387076377,0.1354331374168396,0.3428767919540405,0.9920173287391664
0.8171279296874996,2.477610303466022,-0.397981080943346,0.6299836641788482,0.0821331664919853,0.4235942661762237,1.0765204429626465
0.8270927734374993,2.5867414170533416,-0.3140697488084435,0.6446124935120344,0.0339119844138622,0.4959663450717926,1.156347632408142
0.837057861328125,2.6628809461429714,-0.152549984075129,0.4473381093084811,-0.0077094952575862,0.5171531438827515,1.2250300645828247
0.8470227050781247,2.793234880501032,-0.0313499547705054,0.2576899821996689,-0.0125412819907069,0.5385110974311829,1.3042327165603638
0.8569877929687504,2.82597716641277,0.0358519423648715,0.1650169591993093,0.0073029962368309,0.5737396478652954,1.386680245399475
0.8669528808593743,2.8786151161447164,0.2791714539065957,0.0366927771031856,0.036930676549673,0.6001929044723511,1.4561610221862793
0.8769179687499999,2.963216184109449,0.4108393934726715,-0.1548538771033287,0.0776908919215202,0.6087493300437927,1.5412391424179075
0.8868828124999997,2.970903816002607,0.4502010975241661,-0.2343950313299894,0.1187901422381401,0.6260933876037598,1.6272201538085938
0.8968476562499994,2.934766042433679,0.5559139271005987,-0.3401093222111463,0.1352128088474273,0.6496431827545166,1.6994261741638184
0.9068125000000009,2.8902047239124773,0.6422805434331298,-0.4702794244349002,0.1523812264204025,0.6786829233169556,1.7621318101882937
0.9167778320312507,2.7619369481787084,0.6463730734437704,-0.5779314053803682,0.1740516424179077,0.7493749260902405,1.8195383548736568
0.9267419433593744,2.579994280880689,0.6466615349963307,-0.6779506994903087,0.1968802511692047,0.8532528281211853,1.8666346073150637
0.9367067871093759,2.491371994575858,0.6084925478607416,-0.8150088076621294,0.221364825963974,0.9636933207511902,1.9043960571289065
0.9466718749999998,2.478180504569411,0.5688242620781063,-0.8936977289736271,0.230836346745491,1.0627394914627075,1.9487121105194087
0.9566364746093754,2.4636755938768387,0.5515510557159781,-1.0068670120358467,0.2209333777427673,1.1314918994903564,1.9891711473464968
0.9666018066406252,2.490504856352508,0.5687427212744951,-1.1214344714581963,0.2110728472471237,1.182528376579285,2.033390998840332
0.9765668945312509,2.473009531672299,0.5304638440236449,-1.2140011114746332,0.1964001655578613,1.2102688550949097,2.0816335678100586
0.9865317382812506,2.401913257446885,0.5391375643447042,-1.2672767745882272,0.1726713478565216,1.232654333114624,2.124598979949951
0.9964968261718745,2.287489590409398,0.6099585287600755,-1.3394354173481464,0.1422332823276519,1.244988203048706,2.1497960090637207
1.0064619140624984,2.1354094158031045,0.6477791408494115,-1.3829396280318498,0.121293269097805,1.2601276636123655,2.160650968551636
1.0164270019531259,1.9317064598567784,0.6445566716715693,-1.4471107791692015,0.1108203902840614,1.2700796127319336,2.160896062850952
1.0263916015624996,1.7335829114779828,0.6524795736253262,-1.46858026817739,0.1163203418254852,1.2825977802276611,2.1500051021575928
1.0363566894531253,1.568641647863388,0.6879740808546543,-1.5102590169996022,0.1290294826030731,1.2937564849853516,2.1269493103027344
1.046321777343751,1.35233888419345,0.69924658549726,-1.4535568865686654,0.152147501707077,1.3111023902893066,2.0996110439300537
1.0562868652343749,1.177691853796318,0.7067781500458717,-1.2767507053762674,0.1785993427038192,1.3611927032470703,2.0725646018981934
1.0662517089843746,1.0238619129132478,0.6605307781338692,-1.1512433342665431,0.2089472860097885,1.4118674993515017,2.0483720302581787
1.0762167968749985,0.8797956064797937,0.6203057352513075,-0.9823241069316864,0.2217211425304412,1.4683784246444702,2.025996685028076
1.086181884765626,0.8052497032571584,0.4925453245177865,-0.7710930935680865,0.2284535467624664,1.513684630393982,2.0192058086395264
1.0961467285156257,0.7634709281265735,0.326819924788177,-0.5895312422811985,0.2187021225690841,1.5525827407836914,2.018174409866333
1.1061118164062496,0.68483958222121,0.185601482066512,-0.3425216440498829,0.1993322223424911,1.599834680557251,2.018399715423584
1.1160766601562493,0.6192541073065251,0.0041536125481128,-0.1316203010320663,0.1482501327991485,1.643838882446289,2.004744529724121
1.126041992187501,0.4466969618607312,-0.073227441035211,0.0256868144422769,0.074207991361618,1.663448929786682,1.967495083808899
1.1360068359374988,0.2911075552907772,-0.0101689273148775,0.0573106177181005,-0.0195549894124269,1.6446316242218018,1.9005227088928225
1.1459719238281245,0.1052975267738103,-0.0213116680979728,0.0742220050305128,-0.1011831685900688,1.634724736213684,1.819157361984253
1.155936767578126,-0.0890877849247306,-0.1388555129826068,0.0865291134178638,-0.1583308726549148,1.6360979080200195,1.7164565324783323
1.1659020996093759,-0.2623230488277971,-0.2431742578521371,-0.0186111769676208,-0.1858592629432678,1.6499241590499878,1.6221531629562378
1.1758666992187514,-0.3313001024095341,-0.221750946073234,-0.0061819035053253,-0.2083147764205932,1.6569429636001587,1.5241369009017944
1.1858308105468751,-0.2968647853769361,-0.1711734360024333,-0.1246925475955009,-0.2315929681062698,1.6538573503494265,1.4362722635269165
1.1957958984375008,-0.2456218701999634,-0.167229374551773,-0.1777601209163665,-0.2304704487323761,1.6707813739776611,1.3729443550109863
1.2057607421874987,-0.1336685753313824,-0.3354503904893994,-0.2542547470539808,-0.2103164941072464,1.669225573539734,1.3346856832504272
1.2157260742187503,-0.0639040976990014,-0.423816948467493,-0.4788976151764392,-0.1833021938800811,1.613520264625549,1.2938863039016724
1.225690673828126,-0.1247994420360773,-0.2377481411501765,-0.650840574246645,-0.1428044736385345,1.5287444591522217,1.2276932001113892
1.2356557617187516,-0.3005636398948729,-0.1229290450543165,-0.7805401363492012,-0.0725681185722351,1.4306488037109375,1.14768648147583
1.2456206054687495,-0.4770034719929099,-0.0789633543387055,-0.8526870886713266,0.0144325941801071,1.3306434154510498,1.0529557466506958
1.2555856933593752,-0.5697683379951864,-0.1077738537594675,-0.918535817632079,0.1043315902352333,1.23148512840271,0.9499289989471436
1.265551025390625,-0.650081280311942,-0.1477580736234784,-0.8538502872318029,0.185518130660057,1.1543017625808716,0.8452789783477783
1.2755158691406248,-0.7037492306787521,-0.1954755180880427,-0.7964122437417507,0.2519970238208771,1.0689150094985962,0.7496358156204224
1.2854812011718746,-0.7638789244055747,-0.305706117349863,-0.707980511572957,0.3149347901344299,1.0100136995315552,0.6711586117744446
1.2954462890624985,-0.8193564814776182,-0.3333823520436882,-0.5490817429929972,0.361963540315628,0.977141797542572,0.6025148034095764
1.3054111328125,-0.842632508451119,-0.3755778182163834,-0.4428063110977411,0.3844431638717651,0.9608193039894104,0.5503101944923401
1.3153759765624997,-0.8444096741914748,-0.4419131616503,-0.3417167574077844,0.3934787511825561,0.9457998871803284,0.5175418853759766
1.3253413085937495,-0.8418143970012665,-0.4646215448036789,-0.2849246106058359,0.40313321352005,0.9191182255744934,0.492220014333725
1.3353061523437493,-0.917748028255254,-0.5254314028143883,-0.352044090154767,0.4199665486812591,0.8865155577659607,0.4599598050117492
1.345271240234375,-1.0920087627485393,-0.5102896555230021,-0.313774272993207,0.455523133277893,0.8741205334663391,0.4311494529247284
1.3552360839843747,-1.2181420106716454,-0.4925263275563716,-0.272592952299118,0.4912340044975281,0.8578470349311829,0.3898121416568756
1.3652011718749986,-1.2732926738768815,-0.4335556676715612,-0.3358908277332783,0.5259494781494141,0.8342135548591614,0.3295344114303589
1.3751660156249983,-1.3022948964774608,-0.3201894007325172,-0.0998994671225547,0.5657983422279358,0.8699955344200134,0.2390385866165161
1.3851311035156257,-1.3745340571276845,-0.2710346169412136,-0.0482639724314212,0.6027202606201172,0.8500271439552307,0.1374078541994094
1.3950959472656255,-1.4061078837819396,-0.2533662737816572,-0.2122925051152706,0.6407166719436646,0.7918519973754883,0.052674051374197
1.4050610351562494,-1.313520785499364,-0.2733136677891016,-0.0022042320460081,0.6902012825012207,0.7501062750816345,-0.0192126650363206
1.4150251464843748,-1.2106979782760143,-0.2972901711821556,0.1258697746813297,0.72970050573349,0.7099146842956543,-0.0868396461009979
1.4249899902343746,-1.1267523054800928,-0.2707341726899147,0.3870978678792715,0.7564771771430969,0.6994706392288208,-0.1450246423482895
1.4349550781249985,-1.0346551826715469,-0.2924316252350807,0.3954179524570703,0.7685064077377319,0.6513691544532776,-0.1948665082454681
1.444919921875,-0.9123772950023412,-0.2006079125404357,0.381734879541397,0.7680912017822266,0.5816660523414612,-0.228945642709732
1.4548850097656256,-0.732226625687629,-0.2359872689574956,0.4176157557398081,0.7545716762542725,0.4871472716331482,-0.2442092895507812
1.4648503417968755,-0.597435001143068,-0.2558867321699857,0.3312713512390852,0.7330149412155151,0.3668476939201355,-0.2520283460617065
1.4748151855468752,-0.5872277876444161,-0.279422506058216,0.2547194419562816,0.7021478414535522,0.2535461783409118,-0.2457102835178375
1.4847802734375009,-0.6789768276676535,-0.2459399231731891,0.171425657197833,0.6590983867645264,0.135141372680664,-0.2485166937112808
1.4947448730468746,-0.9242444045372308,-0.101111180999875,-0.0003647416591644,0.6055107712745667,0.0253996830433607,-0.2595105171203613
1.5047102050781245,-1.248992929878831,0.1405208158463239,-0.1734264756262302,0.5561386346817017,-0.0624712333083152,-0.2871964275836944
1.514675048828126,-1.591844244274497,0.3883236102819442,-0.3085451401680708,0.5377643704414368,-0.0966100320219993,-0.3308736085891723
1.5246401367187516,-1.7354546966992317,0.5587637635737657,-0.5431646279036998,0.5479111671447754,-0.117980733513832,-0.3761569261550903
1.5346049804687496,-1.756653113681078,0.6092407358795404,-0.7882043873667717,0.5976033806800842,-0.113456554710865,-0.3962627351284027
1.5445703124999994,-1.7309820813298225,0.6296750366210937,-0.9736837043583392,0.6664828658103943,-0.1089446619153022,-0.3865712285041809
1.554535156250001,-1.7106294675223528,0.6626303807616234,-1.0958131234675643,0.7510284185409546,-0.1033714637160301,-0.3558559119701385
1.5645002441406248,-1.6148000263176858,0.5901666175752878,-1.1458663174033163,0.8436794877052307,-0.1029335558414459,-0.3078806698322296
1.5744650878906246,-1.547904564782977,0.5151292045086622,-1.1057102481037375,0.92681086063385,-0.1359040290117263,-0.2729288041591644
1.584430175781252,-1.428681973031163,0.4804512743592262,-1.0087287142544985,0.9785373210906982,-0.1932444721460342,-0.2611049115657806
1.594395263671876,-1.3580543392308055,0.507719805034995,-0.8752502181351184,0.983267307281494,-0.2853904068470001,-0.2666251063346863
1.6043601074218756,-1.310164606939256,0.4731926815330982,-0.6534761834472418,0.939710021018982,-0.3788346648216247,-0.2813563942909241
1.6143251953124995,-1.3153051846981048,0.4342676153331994,-0.3614905484139919,0.8487497568130493,-0.4522502720355987,-0.3057155311107635
1.6242902832031252,-1.3880670540481803,0.4784048632234334,-0.0859060130834579,0.7077183723449707,-0.5122827291488647,-0.3475165069103241
1.6342553710937509,-1.4884849920868872,0.5436386751562357,0.0713654465556144,0.5305177569389343,-0.5661355257034302,-0.3962046802043915
1.6442192382812504,-1.5997075249955055,0.6319149245023727,0.2710276026785373,0.3289957344532013,-0.579452633857727,-0.4403489530086517
1.654184082031252,-1.6963360076233744,0.7425012053340673,0.4744856439530849,0.1294019073247909,-0.5490028858184814,-0.4905152022838592
1.6641491699218758,-1.678314467111975,0.8028460761815309,0.4859527943849563,-0.0396565459668636,-0.5065564513206482,-0.527255117893219
1.6741142578124997,-1.5997344130024314,0.8921417317032814,0.4472708892911672,-0.171425774693489,-0.4416287839412689,-0.5375868082046509
1.6840793457031253,-1.4388583530001342,1.0550304467022418,0.3462999935448169,-0.2513193190097809,-0.3840340971946716,-0.5433616042137146
1.694043945312501,-1.1893262505538762,1.1646744782477616,0.2083323693126439,-0.2730909287929535,-0.3390314877033233,-0.5291784405708313
1.7040090332031248,-0.9042163465090096,1.1879074697971344,0.1413017370909452,-0.2625682353973388,-0.3159270584583282,-0.5021002292633057
1.7139738769531245,-0.5721240342758596,1.1441636051386594,0.0588677840322256,-0.2373571842908859,-0.3152996003627777,-0.457134336233139
1.7239392089843744,-0.2724438992172479,1.089383382681012,0.1153179855287074,-0.2014299035072326,-0.3121098279953003,-0.4069811403751373
1.7339040527343759,0.0126847095280885,1.0277700993329286,0.1460147370874881,-0.1742768436670303,-0.3415553271770477,-0.3466211557388305
1.7438691406249998,0.2380709433637559,0.9688099608421326,0.0793231275618076,-0.1653448045253753,-0.418204128742218,-0.277398407459259
1.7538342285156254,0.464979564461112,0.9157342042148112,0.1245697979986667,-0.1802260130643844,-0.5081657767295837,-0.2122689485549926
1.7637993164062493,0.6520775686956942,0.8286433652609586,0.1664303331285715,-0.2029926478862762,-0.6091603636741638,-0.1507602930068969
1.7737641601562508,0.6822776227787136,0.7470189750194549,0.1105950486600399,-0.2473068386316299,-0.7220855951309204,-0.0883648246526718
1.7837290039062506,0.6372989556282759,0.7821995939940214,0.1912415337800979,-0.2960485517978668,-0.7916507124900818,-0.0398316457867622
1.7936940917968744,0.5764297686457633,0.761957600954175,0.2648299170821905,-0.3511975407600403,-0.8358096480369568,0.0114049091935157
1.8036591796874983,0.4609332116797566,0.7437742940098047,0.2337806988239288,-0.4082420766353607,-0.8670538663864136,0.0704157650470733
1.8136242675781258,0.314410963461548,0.7900088064402342,0.1897954266250133,-0.4623071849346161,-0.8720818758010864,0.1316975057125091
1.8235891113281255,0.1815259031906723,0.8409300153821706,0.1580430285334587,-0.5124303698539734,-0.8474987149238586,0.1898830384016037
1.8335539550781252,0.0520052047863602,0.88418054356575,0.079158292388916,-0.5521884560585022,-0.8189089298248291,0.2481207847595214
1.843519042968751,-0.0493130430929362,0.9005138387292623,-0.0345978506505489,-0.5659304261207581,-0.7808678150177002,0.2988454699516296
1.8534831542968746,-0.1650491079032421,0.908459244775772,-0.0684393299758434,-0.5504928827285767,-0.706450343132019,0.3415644466876983
1.8634482421874985,-0.2823043451048433,0.884471635466814,-0.1936298902213573,-0.5117391347885132,-0.6314985156059265,0.3759240210056305
1.8734130859375,-0.4307658908225595,0.8648182559698819,-0.3163222039103507,-0.4585142731666565,-0.5499961972236633,0.3878816068172455
1.8833781738281257,-0.5335574261248112,0.8391863865852356,-0.3472814057976007,-0.3826237022876739,-0.4606496691703796,0.3792724013328552
1.8933430175781254,-0.6529724717088043,0.7926976071327925,-0.4720119473159312,-0.2906780540943146,-0.4017269611358642,0.3446499705314636
1.9033081054687493,-0.6840230051413178,0.7646966705292463,-0.5438192924201488,-0.1932568103075027,-0.3701397478580475,0.2905859649181366
1.913273193359375,-0.6194055715411901,0.647733255881071,-0.5561760851681232,-0.0923344492912292,-0.3577967882156372,0.23519167304039
1.9232380371093747,-0.525688154054433,0.5110843130320311,-0.4064753530442714,-0.0019129426218569,-0.3323361873626709,0.1903312504291534
1.9332033691406245,-0.3902263020981103,0.3307470351040363,-0.2076712750554084,0.052095428109169,-0.3029210269451141,0.1701093316078186
1.943168212890626,-0.2170391881857067,0.117359135967493,-0.0714040250003337,0.0830043703317642,-0.2669157087802887,0.1673543006181717
1.9531333007812517,-0.0709768125642091,-0.0885650031596422,0.0847983441025018,0.0971686616539955,-0.215253859758377,0.1744167357683181
1.9630979003906255,0.0268305045846849,-0.2996089695185422,0.2013894183069467,0.0915400609374046,-0.1588686555624008,0.196485549211502
1.9730632324218753,0.0989869553875178,-0.4534703284531831,0.2946761892914772,0.0713026970624923,-0.0953093916177749,0.2197487950325012
1.983028076171875,0.0767528386823832,-0.5927449436306953,0.3189537214577198,0.0433056652545928,-0.0344309993088245,0.23592109978199
1.9929931640625007,0.0258364520460367,-0.6848036341249942,0.3546913897931575,0.0110846161842346,0.0436555445194244,0.2420421093702316
2.0029580078124987,-0.0134654115770012,-0.7796329583764076,0.4014689230591058,-0.0153003931045532,0.1216469779610633,0.2427491843700409
2.0129230957031243,-0.0359978536415845,-0.8993968173980712,0.38506782335639,-0.0526648089289665,0.2061943560838699,0.2499969750642776
2.0228881835937518,-0.0617827946960926,-0.9765314950048924,0.4245096069067716,-0.0847398042678833,0.2937282025814056,0.2704327404499054
2.0328530273437515,-0.0693085870910436,-0.9974714071810244,0.4287169954687356,-0.1248105242848396,0.3734970688819885,0.3016258180141449
2.0428181152343754,-0.1359639562595635,-0.985140917918086,0.418397261506319,-0.1599356085062027,0.4454662501811981,0.3401274085044861
2.052782958984375,-0.2403707447387278,-0.992791140410304,0.3117015583723783,-0.1922916769981384,0.5016794800758362,0.3879455327987671
2.062747070312499,-0.3718520026262849,-0.9528969369173048,0.2023556329905986,-0.2126962691545486,0.5343971252441406,0.4375048279762268
2.0727121582031245,-0.5493386403635144,-0.8894172751754522,0.0210965640425682,-0.2147311866283416,0.5425671339035034,0.4784852862358093
2.082677246093752,-0.7840092006992548,-0.8207838839322328,-0.1864589756786823,-0.194070965051651,0.5272864699363708,0.5063267946243286
2.0926420898437517,-1.0084444904856382,-0.7370201435744762,-0.3750017718940973,-0.1453548222780227,0.5019373893737793,0.5193331241607666
2.1026069335937496,-1.2128648009210825,-0.6492115117400884,-0.5514899731785059,-0.0791716948151588,0.4621060490608215,0.5240727663040161
2.1125722656249994,-1.4770441451400518,-0.6042851592987776,-0.6704056909382343,0.0031223772093653,0.4295262694358825,0.5239129662513733
2.122537109375001,-1.7503205496586858,-0.5298801989167928,-0.7313701549887657,0.0866212993860244,0.4005122184753418,0.4884300529956817
2.132502197265625,-2.0096920552045106,-0.4089870436042547,-0.7448989141255616,0.1675561070442199,0.4015268981456756,0.4326573312282562
2.1424670410156246,-2.204058443006873,-0.3347872504055499,-0.6783125185400247,0.2407350242137909,0.4127731919288635,0.3659757673740387
2.1524323730468744,-2.3076006505459548,-0.2816600558519363,-0.590160772356391,0.3011245727539062,0.4352872967720032,0.3061824738979339
2.1623969726562517,-2.262233860860765,-0.2239981404781341,-0.3934668183892965,0.3470964729785919,0.4606021642684936,0.2635671198368072
2.1723620605468756,-2.11115891777426,-0.1911111853986978,-0.2403939794838428,0.377721220254898,0.4741155505180359,0.2452466934919357
2.1823269042968754,-1.9623960510224103,-0.1565460679739713,-0.0031061493217945,0.3975544273853302,0.4959912598133087,0.2476944029331207
2.192292236328125,-1.8311774626590311,-0.1302513507664203,0.2308031443178653,0.4117608070373535,0.5185197591781616,0.2630179822444916
2.202257324218751,-1.7678113442942498,-0.0903454568356275,0.3533522501438856,0.423272967338562,0.5182154774665833,0.2765215337276459
2.2122221679687506,-1.7538539844818413,-0.0114969610482454,0.4771101472377776,0.4325173199176788,0.4896922409534454,0.2841413617134094
2.2221872558593745,-1.7777265891090035,0.0792658444166183,0.6290308934986591,0.4333124160766601,0.4467093348503113,0.2843483090400696
2.232152099609376,-1.8360548594370485,0.1217488953590393,0.6961515420913695,0.4246813654899597,0.3871980607509613,0.2775708138942718
2.2421162109374997,-1.9124943943865595,0.135132693067193,0.7428764683872461,0.4199541807174682,0.3323210775852203,0.2643410265445709
2.2520812988281254,-1.9060325048960745,0.0556312863290309,0.8059744373351335,0.4170595705509186,0.2826784253120422,0.2498664855957031
2.262046142578125,-1.9081557806603608,0.0166986213445663,0.7861860332816839,0.4086335599422455,0.2358820587396621,0.2466400861740112
2.2720112304687508,-1.9095579025432463,-0.0417430462300777,0.7885270434498787,0.398731917142868,0.2004470974206924,0.2557946741580963
2.2819763183593746,-1.774444060306996,-0.2073620629757642,0.7800199118673801,0.3715700805187225,0.180016353726387,0.2846004962921142
2.291944580078125,-1.6462278686299918,-0.4598275885254144,0.6906091055333614,0.3439379334449768,0.1580186486244201,0.3361843228340149
2.3019096679687507,-1.584817122116685,-0.6180564950197934,0.6350953081041574,0.2876488864421844,0.1418733745813369,0.3925985991954803
2.3118747558593746,-1.55134432997331,-0.6908440833330154,0.6220049403846264,0.1999043971300125,0.1286350637674331,0.437828928232193
2.3218395996093744,-1.5459953701607885,-0.789818836826086,0.621640198725462,0.0827409103512764,0.1186093091964721,0.4692699313163757
2.3318046875,-1.5325034359030425,-0.8963134644299745,0.6076753862589598,-0.0424830541014671,0.1281125396490097,0.4848576784133911
2.3417695312499998,-1.4450016780607402,-1.0170330167412758,0.5169558354139328,-0.1670485138893127,0.1359400451183319,0.4814680218696594
2.3517346191406254,-1.3207780631512402,-1.1525970869630575,0.3647159402012825,-0.2879155278205871,0.1326691508293151,0.4666006565093994
2.361699462890625,-1.1894734039396049,-1.2099760937422512,0.1710550703197717,-0.3809332251548767,0.1037577688694,0.4416971802711487
2.371664550781251,-1.1277370787337422,-1.255719607785344,-0.1057704049825668,-0.4522825181484222,0.0344226323068141,0.4205527305603027
2.3816298828125007,-1.089902949575707,-1.1749380981087685,-0.3947305547147989,-0.5147834420204163,-0.0747059062123298,0.3697385489940643
2.3915947265624986,-1.041651105973497,-0.9964870723187924,-0.6625695904850959,-0.5649486184120178,-0.2012723684310913,0.2979687750339508
2.4015598144531243,-1.0839973787937314,-0.7752081276714802,-0.9498749587476252,-0.6055680513381958,-0.3439873456954956,0.2110221534967422
2.4115244140625,-1.20918399351649,-0.5464122315227985,-1.1618027222037317,-0.6290635466575623,-0.4818695783615112,0.126697689294815
2.4214885253906253,-1.3577721612885594,-0.3292793006390333,-1.1977414660692214,-0.6427234411239624,-0.5767613053321838,0.0548048615455627
2.431453857421875,-1.474811271521449,-0.1036269632130861,-1.2342337521642446,-0.6489579081535339,-0.6398582458496094,-0.0208771154284477
2.441418701171875,-1.5939049761965869,0.1730792696237564,-1.2363280940949917,-0.6515831351280212,-0.6728256344795227,-0.0994816496968269
2.4513837890624988,-1.6928949272587894,0.517630373674631,-1.1745119816511869,-0.6400876045227051,-0.6740459203720093,-0.1745910346508026
2.4613483886718743,-1.6993956874549387,0.8452776891976594,-1.130980882960558,-0.6095008254051208,-0.6447795629501343,-0.2432537376880645
2.471313720703126,-1.5980726172700523,1.094233745321631,-1.1980547698020934,-0.5340151786804199,-0.5949558019638062,-0.3035831153392792
2.4812785644531257,-1.3921801884554326,1.3157856616914272,-1.3333154731631278,-0.4196435511112213,-0.5387352108955383,-0.3687759935855865
2.4912436523437496,-1.1540187172640115,1.5085989748328923,-1.5042454557985063,-0.2680622637271881,-0.4950369894504547,-0.4197462201118469
2.5012084960937493,-0.8252606640201061,1.6101894637823104,-1.639504405593872,-0.0938481241464614,-0.4848680198192596,-0.4639131426811218
2.511173828125001,-0.4403035344965755,1.643420702254772,-1.687328817564249,0.0821032002568245,-0.518730103969574,-0.504100501537323
2.521138671874999,-0.1392860864195972,1.7411182754188774,-1.5741782392024992,0.2238882035017013,-0.5917184352874756,-0.5621656775474548
2.5311037597656245,0.1351417531564831,1.9552713137090203,-1.3962100284934045,0.2974795997142792,-0.6978834867477417,-0.6429076790809631
2.541068603515626,0.328083880309388,2.1364450424611565,-1.262567866244912,0.3250233232975006,-0.8349466323852539,-0.7355965971946716
2.5510334472656258,0.5347155831839889,2.31171217751801,-1.03470486703217,0.3324737846851349,-0.9527619481086732,-0.8180898427963257
2.5609987792968756,0.6985331765308975,2.368364623588324,-0.8424550329923629,0.3260742425918579,-1.0638257265090942,-0.8758090734481812
2.5709636230468753,0.8170278923995793,2.407230653077364,-0.5595873549163342,0.298982709646225,-1.1302984952926636,-0.8979514241218567
2.580928710937501,0.9043534899573772,2.392351063853502,-0.2705073781967163,0.2490770071744918,-1.1521868705749512,-0.8882399201393127
2.5908935546875007,0.94468630406335,2.285129875540733,-0.0374012176334857,0.158654972910881,-1.1468807458877563,-0.8485113978385925
2.6008574218749985,0.9736166304714976,2.195835389062762,0.1457593010216951,0.0538247637450695,-1.1210205554962158,-0.804685652256012
2.610822753906252,0.989409315952286,2.076618642529845,0.2828419591128826,-0.0628909319639206,-1.0933809280395508,-0.7529244422912598
2.6207875976562516,0.9076968821011484,2.0114456208735705,0.3495253853321075,-0.1981120854616165,-1.0777560472488403,-0.7197926044464111
2.6307526855468755,0.8023343272671103,1.9972528448700904,0.2823299179375171,-0.3240455090999603,-1.090174674987793,-0.7131993770599365
2.640717529296875,0.6715396634042262,1.918738695603609,0.2041594675421714,-0.4217652380466461,-1.1162256002426147,-0.7314058542251587
2.650682861328125,0.4759013559699058,1.909181178185344,0.0875841754287481,-0.4900774657726288,-1.1488947868347168,-0.775479793548584
2.660647460937499,0.256532482727617,1.9563982719123365,-0.0264279881983995,-0.5396300554275513,-1.1802743673324585,-0.8431531190872192
2.6706125488281245,0.1817064291230402,1.907979401180148,-0.178232999125123,-0.5695440173149109,-1.1966863870620728,-0.9106062054634094
2.680577392578126,0.159161511169374,1.766066254192591,-0.2997282119840383,-0.5742394924163818,-1.2110624313354492,-0.9552857875823976
2.690542724609376,0.1584747892805375,1.680637210971117,-0.4125865294009447,-0.5589063167572021,-1.2243998050689695,-0.992293894290924
2.7005075683593756,0.1220404439178295,1.648040763270855,-0.5819213517993688,-0.5324733853340149,-1.2565702199935913,-1.0248597860336304
2.7104726562499994,0.0015975554067292,1.6697879001766442,-0.8111983094632625,-0.489824503660202,-1.2974393367767334,-1.0550429821014404
2.720437744140625,-0.1016233865720219,1.6485358533114194,-0.9929349327951668,-0.427225798368454,-1.333943486213684,-1.0888925790786743
2.730402832031251,-0.1814372750591486,1.546060398221016,-1.2023667877823114,-0.3403564095497131,-1.3290419578552246,-1.140753149986267
2.7403676757812505,-0.3312222879329696,1.452380828526616,-1.2556494651585817,-0.2462692260742187,-1.2829804420471191,-1.211663842201233
2.750332519531252,-0.460248517351225,1.4918512536495925,-1.202442191106081,-0.1940318644046783,-1.217562198638916,-1.29458749294281
2.7602966308593757,-0.4362608349770307,1.484315012925863,-1.1266916613340376,-0.1978168338537216,-1.1643494367599487,-1.3721832036972046
2.7702617187499996,-0.2462558755208738,1.3320926533699036,-1.0017588752418756,-0.2404274046421051,-1.0816951990127563,-1.426418423652649
2.7802268066406253,-0.0418925559696741,1.05710433036685,-0.8399515257388352,-0.2932060658931732,-0.961696982383728,-1.4304670095443726
2.790191650390625,0.1440423045033589,0.7532967401146888,-0.7424117734849452,-0.328227162361145,-0.8046543598175049,-1.373803734779358
2.8001564941406247,0.2878494850765913,0.4480237534850835,-0.6835854905068874,-0.3402662575244903,-0.6242039203643799,-1.2744494676589966
2.8101215820312504,0.3431695134993642,0.2021446205884218,-0.7140870117545127,-0.3222747445106506,-0.4500526785850525,-1.1564921140670776
2.8200866699218743,0.3567222745662555,-0.0565238512545824,-0.7620031936615705,-0.275438129901886,-0.3062894642353058,-1.049443244934082
2.8300517578125,0.3594339812103658,-0.2698901230812072,-0.8265262269765138,-0.1978903263807296,-0.2202600091695785,-0.9844729900360109
2.8400166015624997,0.4179724236903712,-0.6628425622075795,-0.9021960927277805,-0.0944399982690811,-0.1746934503316879,-0.938792049884796
2.8499816894531254,0.6010004750723019,-1.133393789321184,-0.720296972310543,0.0165293924510478,-0.1358246207237243,-0.9258483052253724
2.859946533203125,0.8724979968175292,-1.5501099658727644,-0.4840647886812687,0.0702670365571975,-0.1074555441737175,-0.9341917037963868
2.869911621093749,1.1619531635250897,-1.978577370494604,-0.2175175462871789,0.0608370564877986,-0.0858130976557731,-0.93528413772583
2.8798767089843764,1.4403173196367918,-2.377604161098599,0.0783931532353162,-0.017455369234085,-0.0478086024522781,-0.8981932401657104
2.8898415527343744,1.664820048636198,-2.694167188027501,0.3783177645742893,-0.1464032381772995,0.0300856661051511,-0.819264829158783
2.899806640625002,1.7616963685452938,-2.8508260687261817,0.481238625344634,-0.322049468755722,0.1285299360752105,-0.7091642022132874
2.9097717285156257,1.6936480837136505,-2.7868910644322638,0.5393886164963245,-0.5126247406005859,0.2391006499528885,-0.5710933804512024
2.9197368164062496,1.5191967950843277,-2.574254860445857,0.3776929106742143,-0.6865566372871399,0.347066193819046,-0.4147748649120331
2.929700683593751,1.2423913396567106,-2.253477430692315,0.0943161140322685,-0.8029679656028748,0.4291850328445434,-0.251186728477478
2.939665527343749,0.9003015111528336,-1.945661773842573,-0.3302583748042583,-0.8406085968017578,0.483245313167572,-0.1078650131821632
2.9496306152343763,0.45718865485657,-1.5343918799981473,-0.7732739447385072,-0.796144425868988,0.5115837454795837,0.0129223894327878
2.959595703125,-0.1076364911153912,-1.149341592298448,-1.1342980446845292,-0.6848900318145752,0.5318962335586548,0.1163438558578491
2.969560791015624,-0.6199680277295411,-0.7471198050454259,-1.4325591067254542,-0.5159081816673279,0.558032751083374,0.1800413429737091
2.9795256347656256,-1.0761448386624457,-0.3710103641703725,-1.741469573074579,-0.2952738404273987,0.5602228045463562,0.1892273873090744
2.9894904785156218,-1.495261354354024,-0.0113058223903179,-2.1254963629454373,-0.0357104465365409,0.5272305011749268,0.1345042139291763
2.999455566406249,-1.7948253156870602,0.274127906781435,-2.395756488382816,0.252487450838089,0.4732415676116943,0.0392852947115898
3.009420654296873,-1.9370482592761515,0.4897051326557993,-2.4407173276156184,0.5430803894996643,0.4103986918926239,-0.0791539996862411
3.0193854980468746,-1.8838021145179864,0.6398448407188058,-2.393262333479524,0.8120645880699158,0.3528168797492981,-0.1905508339405059
3.0293505859374985,-1.6422510739535092,0.6191796538308263,-2.166719184693694,1.047075271606445,0.2909700274467468,-0.2695505917072296
3.0393156738281224,-1.322295189715922,0.556903814920783,-1.8067419634521007,1.2171379327774048,0.2369287014007568,-0.3029093444347381
3.04928076171875,-1.0342019590113312,0.5334732549726963,-1.3293775491923092,1.3122316598892212,0.2084616422653198,-0.3037351965904236
3.059245605468748,-0.7879344843842089,0.4289864600598811,-0.9630746320605278,1.3358417749404907,0.1743184775114059,-0.2829451858997345
3.0692104492187493,-0.6282620280180126,0.3663303896605968,-0.658990562954545,1.2972246408462524,0.1441390067338943,-0.2535052895545959
3.079174560546873,-0.4468708571229129,0.2775987977623939,-0.4078764520138502,1.2291256189346311,0.1163240671157836,-0.2286825031042099
3.089139648437497,-0.3691659784127026,0.1677858393907547,-0.2568248898029327,1.14787495136261,0.096375398337841,-0.2019702047109604
3.0991047363281243,-0.4142006865993142,0.1704161878943443,-0.0740881495177745,1.0466455221176147,0.0675615891814231,-0.1823552250862121
3.1090698242187482,-0.492979770412296,0.2718389190614223,0.0483235936641693,0.929094135761261,0.029025649651885,-0.1757045090198516
3.119034423828124,-0.5620541103560477,0.4400263249903917,0.2657248200953007,0.8096738457679749,0.0020166377071291,-0.1836156994104385
3.1289997558593736,-0.5786410149544478,0.5424205315381289,0.3537029632776975,0.6918609142303467,-0.0284203626215457,-0.1807229667901992
3.138964599609375,-0.6244016262628138,0.6253665257722139,0.5019236859768629,0.5882459878921509,-0.0412100069224834,-0.15571029484272
3.148929687499999,-0.6315855464175343,0.7049848368883133,0.660534869787097,0.49772909283638,-0.040993757545948,-0.1189235150814056
3.158894531249997,-0.6142743461325765,0.7515893516749144,0.7816682635962963,0.4096421599388122,-0.0330744422972202,-0.0731115564703941
3.168859863281247,-0.5451811553578824,0.827021901538968,0.8897761716157198,0.3179939985275268,-0.0324563235044479,-0.0362374223768711
3.1788247070312483,-0.4692764579374343,0.8735720557898282,0.8529840257912874,0.2494430243968963,-0.0584327355027198,0.0008633388206362
3.18878955078125,-0.3648443888865411,0.9238368466496468,0.8149842577427625,0.1915238052606582,-0.1087627485394477,0.028366869315505
3.1987543945312478,-0.2311767268706113,0.9828121827095746,0.7214823827028274,0.1626945734024047,-0.1845812052488327,0.0366359800100326
3.2087197265624976,-0.0615451134826987,0.9626578679531812,0.6015116029322147,0.1652104556560516,-0.2588375806808471,0.0419455245137214
3.218684814453125,0.0645667993914335,0.960584568810463,0.5487491500377655,0.1907943189144134,-0.3319804072380066,0.0556336417794227
3.228648681640623,0.1876741236221045,0.8806991311907768,0.5466653295010327,0.219289094209671,-0.4070756733417511,0.0735098496079444
3.2386137695312467,0.2962508912622928,0.8362222760826349,0.6266770238488912,0.2365203350782394,-0.4793544113636017,0.0842509046196937
3.2485783691406223,0.413983317521587,0.8295213171392679,0.7181891863763332,0.2431611865758896,-0.5480421185493469,0.0955373793840408
3.258543701171872,0.5077328106470406,0.7613789242833853,0.7737725419104099,0.2419310063123703,-0.6203046441078186,0.1185425743460655
3.2685087890624995,0.5482346977096051,0.7074421669125557,0.8074813347667456,0.2552105784416199,-0.6764906644821167,0.1473859250545501
3.2784736328124975,0.5944695024009794,0.6648509794205427,0.8785463370710611,0.2673357427120209,-0.7107685804367065,0.1645196378231048
3.28843408203125,0.6079529245587065,0.5822229650944472,0.9928963543504477,0.2663900554180145,-0.7265449166297913,0.1674456596374511
3.2983991699218738,0.6347005366329104,0.5132189869731665,1.0610030913710593,0.249617263674736,-0.7253686189651489,0.1591752171516418
3.3083642578124977,0.6713823539506644,0.4465583571076393,1.1636936505168676,0.2038492411375045,-0.6901435256004333,0.1438633650541305
3.318329345703125,0.7597785764146596,0.3190074974715709,1.1552075617223978,0.1436787992715835,-0.650033175945282,0.1401205658912658
3.328293945312497,0.8446515201233327,0.2169564052730798,1.0862480072647331,0.0640356540679931,-0.6053317189216614,0.1413594633340835
3.338259277343747,0.924693974935636,0.1448860253185033,1.0515005190104243,-0.0127249546349048,-0.5282618403434753,0.1566033959388733
3.3482241210937485,1.0058384727057068,0.0853664993792772,0.9109469699382782,-0.0899185389280319,-0.4603898823261261,0.1728723794221878
3.3581892089843723,1.0075905770700424,0.0670814856261014,0.7340472652435303,-0.1591472625732422,-0.3900264799594879,0.1938003003597259
3.368154052734374,0.9793768014334142,0.0868985312521457,0.6358078402876853,-0.2246391922235489,-0.3079587817192077,0.1946375966072082
3.3781181640624975,0.9964883144278078,0.1430564718037843,0.4819014731675386,-0.2825091183185577,-0.2354043275117874,0.1753776222467422
3.388083251953125,0.9975199224978684,0.2006687028169632,0.216463653320074,-0.3206599652767181,-0.1842758953571319,0.1419482827186584
3.398048095703123,0.923804697945714,0.2642763748526573,-0.1027227078497409,-0.3280596137046814,-0.1437048316001892,0.086044818162918
3.408013183593747,0.8859893465533852,0.3245879279524087,-0.310801394662261,-0.3027007281780243,-0.1181898862123489,0.0119652599096298
3.4179780273437483,0.923300474750623,0.3908575126737356,-0.5689098945349454,-0.2626004517078399,-0.1201830953359603,-0.0716097950935363
3.427943359374998,1.0223181175373497,0.4190624474167823,-0.7370137138336896,-0.2171514928340912,-0.1444929540157318,-0.1477490365505218
3.4379082031249997,1.1307110530432314,0.3883329626321792,-0.8271464047014713,-0.1933550834655761,-0.1838915944099426,-0.2159954756498336
3.4478732910156236,1.2382890189044178,0.358704132565856,-1.0148539191365242,-0.1876330226659774,-0.2489819228649139,-0.2736132144927978
3.457837890624999,1.3384597041837871,0.3320505189180374,-1.0861392861932515,-0.1899247765541076,-0.3062002956867218,-0.2989039123058319
3.467802978515623,1.4062285875521598,0.2968769142061472,-1.125372979950905,-0.191371664404869,-0.3528026938438415,-0.296095073223114
3.477768066406247,1.3479459099315103,0.3105728466033935,-1.1662287219524383,-0.1914892494678497,-0.3819626569747925,-0.2889998853206634
3.4877331542968744,1.2013419747792184,0.3269289381206035,-1.1149106226474046,-0.1873206049203872,-0.3748847842216491,-0.2814250588417053
3.4976982421874983,0.9772242995746432,0.3386240520894527,-1.0091302807927132,-0.1906969845294952,-0.326011449098587,-0.2736193537712097
3.5076630859374998,0.768858539449051,0.3744955759376287,-0.9091589174777268,-0.2012446969747543,-0.2482911050319671,-0.2686421573162079
3.5176284179687496,0.6301862010136247,0.3530155655354261,-0.838348182195425,-0.2068789452314376,-0.1475187391042709,-0.2674541175365448
3.527592041015625,0.5200306032167747,0.3482821072727441,-0.6157254217237234,-0.1935809850692749,-0.0132248532027006,-0.2695527076721191
3.537557128906249,0.4467923119939863,0.2857306662917137,-0.6227227332651615,-0.1843163818120956,0.0648167356848716,-0.2676890194416046
3.5475222167968727,0.3637050826583057,0.29746845035851,-0.5642436562895774,-0.1676673591136932,0.125433474779129,-0.2719056010246277
3.5574870605468742,0.3451698204711079,0.3310509864866733,-0.4124363072752952,-0.1446484625339508,0.1580322682857513,-0.2954535186290741
3.567452392578124,0.377410002079606,0.3377577906489372,-0.370199924570322,-0.116884209215641,0.1557014733552932,-0.3254569768905639
3.577417236328122,0.4042544621244072,0.3189280024945736,-0.2936053451895714,-0.0803386270999908,0.1326869130134582,-0.3513234555721283
3.5873820800781235,0.4429465232860297,0.2735270182788372,-0.2124538331568241,-0.0408333018422126,0.1057394593954086,-0.3774919509887695
3.597346923828125,0.4776201060539111,0.2493056002140045,-0.1440899065047502,-0.0077156899496912,0.0738970413804054,-0.4009748995304107
3.607312255859375,0.5424919162739068,0.2231318790376186,-0.0957750806689262,0.023854486644268,0.0237997882068157,-0.4078911244869232
3.617277099609373,0.6096742319259792,0.1648918715149164,-0.1264215633451938,0.0573146156966686,-0.0149556417018175,-0.4024963676929474
3.6272421874999967,0.6592620003070682,0.1182528699368238,-0.0926905586570501,0.0908006727695465,-0.0462975837290287,-0.3811894655227661
3.6372070312499982,0.6169435653418303,0.0865565859466791,-0.0589905336290597,0.1044924929738044,-0.0682651251554489,-0.3536933958530426
3.647172363281248,0.5685380655478686,0.0917325272798538,-0.0110930564224719,0.1084965616464614,-0.0725898295640945,-0.3380180299282074
3.6571372070312496,0.4790289134059101,0.0885650031596422,0.0288204362928867,0.1062850579619407,-0.055765938013792,-0.3224310874938965
3.6671010742187473,0.41662247038614,0.1037999816924333,0.071010057246685,0.1108244135975837,-0.0279343072324991,-0.3114522099494934
3.6770661621093748,0.4008126145748421,0.1065717844933271,-0.0333218393653631,0.1200917214155197,-0.0280740596354007,-0.2961185276508331
3.6870310058593727,0.4369070604586973,0.1337619892358779,-0.1042050553619861,0.1353305876255035,-0.0506920218467712,-0.2856594920158386
3.6969963378906225,0.5115505788369104,0.1258382104992866,-0.1171112986862659,0.1540687978267669,-0.0697709396481514,-0.2815435826778412
3.70696142578125,0.543799236012809,0.0498918658941984,-0.1841547903895378,0.1690682470798492,-0.1136742159724235,-0.2708240747451782
3.716926025390622,0.5462791431950405,0.0251782803982496,-0.2209866837024688,0.1635089367628097,-0.1523281186819076,-0.2608343064785003
3.7268911132812494,0.5117839857339859,0.0378735113203525,-0.1726841328263282,0.1375761479139328,-0.1724818646907806,-0.2509438693523407
3.7368562011718733,0.4139997206671163,0.0534124412357807,-0.2075099470138549,0.1032250523567199,-0.1711263656616211,-0.2425173670053482
3.7468212890624972,0.291558386064507,0.142723294326663,-0.1574357102900743,0.0628483369946479,-0.1454537659883499,-0.2243546098470688
3.7567861328124987,0.1846464098313823,0.1887123075634241,-0.1162748478621244,0.0278271399438381,-0.1046408638358116,-0.201661005616188
3.7667512207031226,0.0958429217407479,0.244547007510066,-0.1301975747525691,0.0027428269386291,-0.0488697439432144,-0.1808073967695236
3.77671630859375,0.0187898945353925,0.3213941003471612,-0.1114817683666944,-0.0131745357066392,0.0071769589558243,-0.1557393223047256
3.786681152343748,-0.051240942415595,0.3673766838431358,-0.1352507664889097,-0.0225272923707962,0.0610175542533397,-0.1287647038698196
3.7966452636718717,-0.1627594260634854,0.4563081822276115,-0.1603226639032363,-0.0218097791075706,0.1072279214859008,-0.1120134145021438
3.8066101074218732,-0.3027527474369854,0.5794593456000089,-0.2115834800630807,-0.0166152827441692,0.1352712661027908,-0.106790155172348
3.816575195312497,-0.4410353193698451,0.6652274115175009,-0.2793213837713003,-0.0041699721477925,0.1571971178054809,-0.1116956919431686
3.8265402832031246,-0.5621609682640061,0.7067173597693442,-0.2287473808318376,0.0223796125501394,0.1965818107128143,-0.1227960065007209
3.8365051269531225,-0.6698642044726759,0.6673340284079313,-0.2500374216198921,0.0588793009519577,0.2195633351802826,-0.1334180384874344
3.846469970703124,-0.7806046529527754,0.6550035391449928,-0.1642781235307455,0.1043895334005355,0.2488940507173538,-0.1456944197416305
3.856435058593748,-0.8660280701510608,0.6368167250692844,-0.0521685786545276,0.1413907557725906,0.2610253095626831,-0.1704948395490646
3.866400146484372,-0.8834431692019105,0.5897878473907708,0.0917155761450529,0.1762874871492386,0.2605006694793701,-0.2200719714164734
3.8763652343749992,-0.8573192785166204,0.4966518830537795,0.3207125478237867,0.2045712769031524,0.2626574039459228,-0.2647201120853424
3.886330322265623,-0.7880277886908501,0.428022583463788,0.5394844780862331,0.2134869992733001,0.2533968091011047,-0.2958825528621673
3.8962951660156246,-0.7315772949334234,0.3984586353272199,0.7188052724480628,0.1972109377384185,0.2458874136209488,-0.3106580376625061
3.9062600097656226,-0.6412634753450751,0.3417518287211656,0.9413497069865464,0.1571130603551864,0.2481289952993393,-0.3271414339542389
3.91622509765625,-0.5195096846152096,0.2571855398088693,1.1218716938316822,0.0942265316843986,0.274220734834671,-0.3432306349277496
3.926190185546874,-0.3605352204505354,0.1328863754451275,1.331319330909848,0.0140312928706407,0.3253651559352875,-0.3397381603717804
3.9361542968749976,-0.1817476561825722,0.0440279422968626,1.447213070499897,-0.0838295221328735,0.3549107909202575,-0.3195351660251617
3.946119140624999,-0.0709035281322896,-0.0285638311833143,1.404860367938876,-0.1736390441656112,0.360215812921524,-0.2859734892845154
3.956084228515623,-0.0399355584166944,-0.0854746359288692,1.4231103103786706,-0.2348717600107193,0.3568810522556305,-0.2543345987796783
3.9660490722656245,-0.06410254288055,-0.144690795007348,1.3208411915153264,-0.2526238560676574,0.3319306671619415,-0.233749970793724
3.9760141601562484,-0.1688699813656508,-0.1851104836791753,1.244375206950307,-0.2518174648284912,0.2911449074745178,-0.2313302159309387
3.98597900390625,-0.2591227184165269,-0.306245046532154,1.1395686785638333,-0.238397791981697,0.2298967242240905,-0.2432630509138107
3.995944091796874,-0.3086079032059758,-0.5050479554772377,1.0982979260206225,-0.208328440785408,0.1841917932033538,-0.2624582946300506
4.005909179687498,-0.336455329748243,-0.7406500245094298,1.152372046035528,-0.1880266368389129,0.1531995236873626,-0.2896827161312103
4.015874267578122,-0.3732317665468901,-0.934338366919756,1.1905249588191509,-0.1876352578401565,0.1288192123174667,-0.3288919031620025
4.025839111328123,-0.3454232107102871,-1.1407347997337578,1.194884907594323,-0.2150642275810241,0.095528095960617,-0.3611460030078888
4.035803955078125,-0.2869603542171418,-1.302699385625124,1.1998843233168124,-0.2548719346523285,0.0472958907485008,-0.3923622369766235
4.0457690429687485,-0.2402862813256681,-1.4383406127363445,1.113934471091628,-0.2930275797843933,-0.0215875711292028,-0.4033800065517425
4.055733154296872,-0.2092528451584279,-1.55185301014781,0.9881219795554876,-0.3265502452850342,-0.0946714729070663,-0.4179682731628418
4.0656982421875,-0.245025292546302,-1.6013006394058464,0.9147060302108526,-0.3508188426494598,-0.1581615060567855,-0.4369081258773803
4.075663085937498,-0.3544688330836594,-1.6240157445609569,0.7480839739024638,-0.3750689327716827,-0.2071932554244995,-0.4660955667495727
4.085628173828125,-0.445246836117655,-1.7107067705422638,0.6544219398647546,-0.3879314661026001,-0.2184674888849258,-0.4881039261817932
4.095593017578123,-0.4823866263359784,-1.8429630313903087,0.5039443781495094,-0.3863809704780578,-0.2283195853233337,-0.4978204667568207
4.105558105468747,-0.5798749406635761,-1.868635232785344,0.3521136482596397,-0.37706258893013,-0.2438697814941406,-0.5131688714027405
4.115523193359374,-0.6586645458705723,-1.84230836687386,0.1244008711725473,-0.3568304181098938,-0.2827978134155273,-0.5313150882720947
4.125488037109372,-0.7657090624421834,-1.8577748160749672,-0.0484936895340681,-0.3111753165721893,-0.3224416375160217,-0.562006413936615
4.135453369140622,-0.8788147787488997,-1.79100254252851,-0.1699941630899906,-0.2613836526870727,-0.3695472180843353,-0.6122597455978394
4.145418212890624,-0.9365715327993036,-1.6761451602488755,-0.296276610225439,-0.2013735920190811,-0.4131807088851928,-0.6700606942176819
4.1553833007812475,-0.9169042709074914,-1.5957640480667352,-0.3558919977545738,-0.1168501898646354,-0.463231086730957,-0.7237210273742676
4.165347900390623,-0.861177561379969,-1.5473276416778563,-0.4135720333069562,-0.0304244887083768,-0.5186765193939209,-0.7599599957466125
4.175312988281247,-0.7869571637846529,-1.436011877527833,-0.3936532808721065,0.0486273393034935,-0.5799587368965149,-0.791533350944519
4.185277343749997,-0.7441349440157413,-1.3464584478527306,-0.3328109818965196,0.1259580850601196,-0.631191074848175,-0.8095080852508545
4.195242187499998,-0.7183914309501648,-1.256885144433379,-0.2854033340334892,0.1984535455703735,-0.6789488792419434,-0.8084955811500549
4.205207275390622,-0.6861661546498536,-1.1550935799539088,-0.1785351969420909,0.2723320126533508,-0.706764817237854,-0.8069069981575012
4.215171874999998,-0.6729897160820663,-1.0447270793527363,-0.0260229145288467,0.3276584148406982,-0.721348226070404,-0.8019418120384216
4.225136962890625,-0.6908791546463966,-0.8747872767984867,0.1412795252591371,0.3674724102020263,-0.7367075085639954,-0.8083354830741882
4.235102050781249,-0.7276233696758747,-0.6787731217890978,0.2935737810075283,0.3845004141330719,-0.7552075386047363,-0.8320304751396179
4.245067138671873,-0.7075397820681333,-0.4918944593936205,0.4469967485249042,0.3917974829673767,-0.7575130462646484,-0.8660089373588562
4.255031982421874,-0.6714115800451487,-0.2936053451895714,0.5952899519383907,0.3973249793052673,-0.7721694707870483,-0.9076263904571532
4.264997070312498,-0.5895310961507261,-0.0835299316018819,0.6944564286112785,0.3874505162239074,-0.8082705140113831,-0.9469807147979736
4.274962402343748,-0.4815612083625048,0.0676058017611503,0.8208926050037145,0.3586418032646179,-0.849014163017273,-0.990353226661682
4.2849272460937495,-0.4138740849934518,0.2322971822679042,0.8776502650141715,0.3120700120925903,-0.8863458633422852,-1.0388810634613037
4.294892333984373,-0.2984784311186522,0.3421089715957641,0.8744313029676676,0.2808187305927276,-0.9148314595222472,-1.0821547508239746
4.304857177734375,-0.1102034189939498,0.38340778118968,0.7098299388319254,0.2710838317871094,-0.9444999098777772,-1.1134370565414429
4.314821289062499,0.069943670124188,0.4427192173361778,0.515377626311779,0.3007015287876129,-0.9682939648628236,-1.1228185892105105
4.3247863769531225,0.3458054149609059,0.5249561865180731,0.2401122399330139,0.3516536653041839,-0.9951703548431396,-1.1062710285186768
4.334751220703124,0.6761103323206306,0.4896849666506052,0.0431628499001264,0.4094179570674896,-1.0320802927017212,-1.0840736627578735
4.344716552734374,1.0357390323854982,0.3222895878821611,-0.1532172158122062,0.4657363593578338,-1.087375283241272,-1.0577692985534668
4.354681152343749,1.43693133046031,0.1155021099239587,-0.2958779662966728,0.49903604388237,-1.154105544090271,-1.0445903539657593
4.364646240234373,1.730226002265513,0.0065735331714153,-0.2303437101125717,0.4720765948295593,-1.2211825847625732,-1.0250701904296875
4.374611083984375,1.8824067146368324,-0.0850958657443523,-0.0799251851081848,0.3701062798500061,-1.2741128206253052,-0.9944283962249756
4.384576416015625,1.9062370875574648,-0.1863426558226346,0.10848726272583,0.2078058123588562,-1.3154221773147583,-0.9452177286148072
4.394541259765623,1.7566867236897348,-0.1319581546843052,0.2511731476515531,-0.0117554627358913,-1.3299318552017212,-0.8834211826324463
4.40450634765625,1.4698257381938398,0.0058662616848945,0.3516869472801685,-0.2573625445365906,-1.3343899250030518,-0.8061256408691406
4.414470947265622,1.0764765548348427,0.2490028178751468,0.3533580953627824,-0.5127507448196411,-1.3103318214416504,-0.7408342361450195
4.424436279296872,0.5790024686779827,0.5871271037489175,0.1988952634036541,-0.7285988330841064,-1.255000352859497,-0.7021304965019226
4.434400390624999,0.0862967659667134,0.8249655535310506,-0.0683224255979061,-0.8756116628646851,-1.1667118072509766,-0.6752173900604248
4.444365234374997,-0.2572843240082264,0.9072370095044374,-0.3817196819722652,-0.947727918624878,-1.0633957386016846,-0.6263177394866943
4.4543303222656245,-0.5026867793038488,1.0164029021441936,-0.598584901830554,-0.962881565093994,-0.9204552173614502,-0.5759850740432739
4.4642951660156225,-0.6638561231642961,1.1210393346607683,-0.8427356034994125,-0.9355319738388062,-0.7914130687713623,-0.5445107817649841
4.474260498046872,-0.7732412115126848,1.1003782394260166,-1.10150987380445,-0.8591800928115845,-0.6645148992538452,-0.517318069934845
4.484225097656248,-0.7701635576330125,1.0512690483421088,-1.2361825481444595,-0.7348560094833374,-0.542290210723877,-0.4920496940612793
4.494190185546872,-0.737916654022783,0.9982178416341544,-1.4413134910672902,-0.5790441036224365,-0.4591773450374603,-0.485500156879425
4.504155273437499,-0.6964964100062847,0.949030909138918,-1.4433008654922246,-0.4004024565219879,-0.3933836817741394,-0.495242565870285
4.514120361328123,-0.6131828245688229,0.833372147348523,-1.4009540081501006,-0.2360644936561584,-0.3873072564601898,-0.5151408910751343
4.524085449218747,-0.5152435516033321,0.7090320664525032,-1.3660697417736052,-0.091271087527275,-0.4529871940612793,-0.5515612363815308
4.5340502929687485,-0.4026163029959425,0.5739122328668832,-1.1665700827360153,0.036236934363842,-0.5476076602935791,-0.5935715436935425
4.544015380859372,-0.3247092893097549,0.4652262326985597,-0.9687900870978832,0.1250480264425277,-0.6694067716598511,-0.6188947558403015
4.553979248046874,-0.3106324678361415,0.3725958797961473,-0.8159253379851579,0.1878560483455658,-0.7943485975265503,-0.6227472424507141
4.563944335937498,-0.2991736468411982,0.3169160781502723,-0.4350502901434898,0.2004208415746688,-0.857505738735199,-0.6261286735534668
4.573909423828125,-0.3471708215625956,0.2334194642961025,-0.0399105701059103,0.1645234227180481,-0.8631452322006226,-0.6128190159797668
4.583874267578123,-0.4520980537192895,0.219926945516467,0.3003805384129285,0.0988719761371612,-0.8379099369049072,-0.5831862688064575
4.593839355468747,-0.6251967952284961,0.2614782685667276,0.5241407784819603,0.0247143469750881,-0.8058878183364868,-0.5568260550498962
4.603804199218748,-0.7836912938565015,0.3624316286563873,0.7583318116724491,-0.0406007431447505,-0.7594696879386902,-0.5377841591835022
4.613769287109372,-0.8886383266922085,0.4378898974835872,0.9333528630137444,-0.0846117213368415,-0.7260921597480774,-0.5173739790916443
4.623734130859374,-0.910764599108696,0.510381133198738,1.032987541720271,-0.1106409206986427,-0.7242186069488525,-0.5078632831573486
4.633699218749998,-0.8444652768362313,0.5737012204647064,1.1793453931570053,-0.1246119737625122,-0.7304396629333496,-0.5068262815475464
4.643664062499999,-0.7259975220397115,0.588676086756587,1.4190712641209362,-0.1138863712549209,-0.7311765551567078,-0.519124448299408
4.653629394531249,-0.5421517975993454,0.5504091922044754,1.526539120671153,-0.1062434017658233,-0.7690994143486023,-0.537872314453125
4.663594482421873,-0.2903935983351431,0.495921815213561,1.5999164915710686,-0.0924679338932037,-0.8191396594047546,-0.5585429668426514
4.673558105468748,-0.0172358334938064,0.4134598051041364,1.7254881600886582,-0.074440024793148,-0.8765304088592529,-0.580007016658783
4.683523193359372,0.2114660642284899,0.2976227641373872,1.769892534482479,-0.0705334320664405,-0.9597523808479308,-0.5961039662361145
4.693488037109374,0.4608531321808695,0.1723924564033746,1.8019196578621863,-0.0848950669169426,-1.040128231048584,-0.6110818386077881
4.7034533691406235,0.6942411784254015,-0.0308954890012741,1.8716069420725103,-0.1086525917053222,-1.0995869636535645,-0.6055302023887634
4.713418457031247,0.884471635466814,-0.2211953580170869,1.8789760095357892,-0.1284225434064865,-1.1345657110214231,-0.5940357446670532
4.723383300781249,1.062234678992629,-0.3898942205995321,1.869489219266176,-0.1604779362678527,-1.145193338394165,-0.5643215179443359
4.733348144531247,1.1914730533242226,-0.5670335792690515,1.8133073133170603,-0.2040551304817199,-1.1269915103912354,-0.5215351581573486
4.743313232421874,1.289049045935273,-0.7263637250036,1.7612550545185803,-0.256836324930191,-1.0850602388381958,-0.4697366654872894
4.753278320312498,1.3077001165218651,-0.8382014672011137,1.6815093176305294,-0.3179961144924164,-1.016897201538086,-0.4157410562038421
4.7632431640625,1.307316524031758,-0.9144400727510452,1.5564327391535042,-0.3852337300777435,-0.942521035671234,-0.3650672435760498
4.773208251953124,1.3182980829037725,-1.0057102432161569,1.3600719626635311,-0.4504435062408447,-0.8540961146354675,-0.3055546283721924
4.783172363281247,1.3601643171221016,-1.1289183974727988,1.1107494113147258,-0.4987492561340332,-0.757682740688324,-0.249628260731697
4.793137207031249,1.3848103903397917,-1.2060185882881282,0.8155798855483531,-0.5228766798973083,-0.6617607474327087,-0.1918952018022537
4.803102294921873,1.381301797696948,-1.2550588057890533,0.5151590151250363,-0.5358124375343323,-0.5865767598152161,-0.1351600140333175
4.813067138671874,1.4003244780749082,-1.3015908398613334,0.2081704567492008,-0.5474023818969727,-0.5110607743263245,-0.0973409861326217
4.823032226562498,1.355025492928922,-1.319794020549953,-0.0195680393010377,-0.552390456199646,-0.4199305772781372,-0.0811961069703102
4.832997314453122,1.3180787410646675,-1.3727534573212266,-0.3173234899073839,-0.5418809056282043,-0.333538144826889,-0.07825917750597
4.842962402343749,1.2806406985521317,-1.4008464561223983,-0.619970804208517,-0.5306485295295715,-0.2366704642772674,-0.070548266172409
4.852927246093747,1.2704483903616666,-1.3817881199091673,-0.877192584374547,-0.5033855438232422,-0.1427087634801864,-0.0679655224084854
4.862892089843749,1.2772305978477,-1.3592138845294712,-1.0674451071172952,-0.4637568891048431,-0.0433763265609741,-0.063541479408741
4.872857177734373,1.3076792198643088,-1.3175772212833166,-1.2292752529740332,-0.4247063100337982,0.0590376779437065,-0.0552875436842441
4.882822265624997,1.4328472760170696,-1.324530693683028,-1.4316174419611691,-0.3828203678131103,0.1651044487953186,-0.0420673452317714
4.892787353515624,1.5260791019439697,-1.2774851571306585,-1.5520084929704665,-0.3327976763248443,0.283401608467102,-0.0065287942998111
4.902751220703122,1.6471178032070397,-1.262771279862523,-1.725384115192294,-0.2812785804271698,0.3779712319374084,0.0540634468197822
4.912716308593753,1.8308304027870297,-1.202417933447659,-1.9883178432643407,-0.2044628858566284,0.4415190815925598,0.1294412910938263
4.922681152343751,2.0414074822865427,-1.183851764665544,-2.250308153006434,-0.0987156853079795,0.4775692224502563,0.2174342572689056
4.932646240234375,2.1974252886027097,-1.2082014852851628,-2.398753916633129,0.0451170913875103,0.4847144484519958,0.3198698461055755
4.942611328124999,2.248943586654961,-1.213712357661128,-2.5288445238798856,0.1905885338783264,0.4721637666225433,0.4100316762924194
4.952576171875,2.3260645279973744,-1.3218661506488918,-2.5657085658967493,0.3224124908447265,0.4597475528717041,0.4880119562149048
4.96254150390625,2.3647911490157245,-1.6053762182816862,-2.540795658436417,0.4238581359386444,0.4677961468696594,0.5605008006095886
4.972506347656244,2.3675445393770933,-1.8067589145869016,-2.38045604339838,0.470015674829483,0.4825648963451385,0.6274933815002441
4.982471435546872,2.310895308177173,-1.8831378053903576,-2.255360760220885,0.4476187527179718,0.4799685776233673,0.686460554599762
4.992436035156244,2.217413891403377,-1.8619357351467007,-2.182521149459481,0.3711805939674377,0.4726633429527282,0.7338054776191711
