time,ax,ay,az,gx,gy,gz
0.0,0.9339611311051994,-1.2477838463500142,0.7581599622368812,-0.2395303845405578,-0.5995442271232605,-0.4352865815162658
0.009965087890620339,1.1684173180378974,-1.2938263433396815,0.5530401252299547,-0.286140501499176,-0.5822560787200928,-0.3993850648403168
0.019929199218751137,1.3003309029281138,-1.3601309993743895,0.2965560116887092,-0.3242788314819336,-0.5237525105476379,-0.3688303530216217
0.029894042968756196,1.2799063929282128,-1.3704820052579043,0.1069499701559543,-0.3309406638145447,-0.4190937876701355,-0.3731188178062439
0.039859130859376535,1.2759130855083465,-1.332304542554915,-0.4288970282107591,-0.3512440621852875,-0.2966504395008087,-0.4227612018585205
0.04982397460937449,1.3466393573775888,-1.2506754761382937,-0.8444166884541511,-0.3294815719127655,-0.1276694536209106,-0.4924849271774292
0.059788085937505286,1.4325535537675025,-1.008753848695755,-0.8245634024709463,-0.2927879989147186,0.0981301218271255,-0.5759350657463074
0.06975317382812563,1.5068328419432042,-0.809765061789751,-1.0292834265053272,-0.2837099730968475,0.2716588377952575,-0.6319775581359863
0.07971801757812358,1.7434991792060437,-0.8047931185960769,-1.180358369591832,-0.2608976066112518,0.3966657519340515,-0.6650382876396179
0.08968188476562489,2.3196154979884622,-0.6863517403498292,-1.3882231213927267,-0.0511061623692512,0.3876126706600189,-0.8190934062004089
0.09964721679687472,2.2925018656134606,-0.8004749631360173,-1.9364999777436256,0.0849701762199401,0.3123695850372314,-0.9188580513000488
0.10961206054687267,1.727998681604862,-1.2483593081504103,-2.3592577725470063,0.121617205440998,0.2199730575084686,-0.921372890472412
0.11957714843750011,1.7745555578574537,-1.389994807240367,-2.4513404284387827,0.1872771680355072,0.0710509642958641,-0.8346515893936157
0.12954101562500142,1.938816291861981,-1.4520891521036623,-2.4918261680841445,0.3406782746315002,-0.1348184645175933,-0.6657634973526001
0.13950585937499937,2.040885504239053,-1.6009657083630562,-2.677299639856815,0.4932014644145965,-0.3277546167373657,-0.4444047212600708
0.1494709472656197,2.268532668744028,-1.692740613479912,-3.069189418187737,0.5818511843681335,-0.4666167199611664,-0.220471516251564
0.15943603515624716,2.559985804335773,-1.352174487411976,-3.038451165574789,0.6329444646835327,-0.5109080076217651,-0.0335069447755813
0.16940014648437085,2.6008149505913254,-0.8763651936396956,-2.828473367142677,0.6593742370605469,-0.5225744247436523,0.1039614155888557
0.1793649902343759,2.405944120398164,-0.541897968968749,-2.756384282487631,0.6581401228904724,-0.485822856426239,0.2059279978275299
0.18933007812499625,2.155930956436693,-0.26023352920264,-2.535782798710465,0.6567332744598389,-0.4041576981544494,0.2754250764846802
0.19929394531249045,1.934138655439764,0.0325111075043678,-2.177401906749606,0.6538147330284119,-0.3310102522373199,0.3162696957588196
0.209259033203125,1.7293616405211387,0.3143623020142316,-2.0050217253059146,0.6320981383323669,-0.3082449734210968,0.3428893387317657
0.21922412109374534,1.5512106205910443,0.5916346443012357,-1.9228928926736115,0.6188737154006958,-0.3468602895736694,0.3569002151489258
0.2291889648437504,1.426171743775904,0.9123799253508448,-1.7499252667307852,0.6284793615341187,-0.3934257924556732,0.35873943567276
0.2391528320312446,1.3028867248907685,1.3069319086283444,-1.5575743104040622,0.6765334010124207,-0.4002253711223602,0.356605976819992
0.24911791992187204,1.201340075083077,1.6878148475155232,-1.1918740353405477,0.7499800324440002,-0.31248340010643,0.3697843253612518
0.2590830078124995,1.098523551470041,1.9659388381958007,-0.7893424514859915,0.8544403910636902,-0.1601625680923462,0.4116460382938385
0.2690480957031198,1.0127624998152256,2.044184984175861,-0.4814502222687005,0.9781341552734376,0.0146492924541234,0.4953452050685882
0.2790122070312506,0.9032469900202006,1.947097651864588,-0.2369067218899726,1.07948100566864,0.1782233119010925,0.6269303560256958
0.2889770507812486,0.8914976616460829,1.8404338051736355,0.0348632235884666,1.119166612625122,0.3485205173492431,0.7800597548484802
0.29894189453124653,0.9296930253319442,1.740320987561345,0.2214379346013069,1.0800721645355225,0.4704160690307617,0.9160737991333008
0.3089060058593702,1.095089777629077,1.682491022144258,0.1141156240016221,0.9746950268745422,0.4883268177509308,0.9998144507408142
0.31887109374999767,1.230478783544898,1.6174422113895417,0.0907341638922691,0.8275068998336792,0.4947919249534607,1.0397921800613403
0.3288359374999956,1.3359589734092354,1.6098355357781051,0.1089127946615219,0.6622709631919861,0.4505781531333923,1.0623574256896973
0.33880102539062307,1.5099493665285408,1.5015183689221738,-0.0852203689068555,0.5043239593505859,0.3706670701503753,1.0886236429214478
0.3487648925781244,1.4636878199607133,1.3117957152724264,-0.1198129588603973,0.3411467969417572,0.3310020565986633,1.1776565313339231
0.3587299804687447,1.261712126198411,1.205269523486495,-0.0790600927114486,0.1947925090789795,0.3195765614509582,1.3250417709350586
0.3686948242187498,1.175607229541987,1.2434297427937389,-0.2894435493350029,0.0653543099761009,0.2989914417266845,1.4593721628189087
0.3786599121093701,1.1054401259254665,1.4338266424432395,-0.6193231539547444,-0.0177789311856031,0.2484038919210434,1.5161923170089722
0.3886240234375009,0.9337461731802672,1.660793569599092,-0.73201488263309,-0.0352809578180313,0.2137492299079895,1.484455943107605
0.39858886718750597,0.70935048475191,1.9245137718737124,-0.7122808391153812,0.0148900663480162,0.1827726811170578,1.3823471069335938
0.4085539550781263,0.3979847707377746,2.0383441491931675,-0.6014455519586801,0.1305410265922546,0.1468101441860199,1.260588526725769
0.4185178222656205,0.1583474183075129,2.0525129597991705,-0.2828770304262638,0.272843062877655,0.1399106979370117,1.1138067245483398
0.42848291015624795,-0.0355808703385293,2.064787334960699,0.0302682970136404,0.3828405141830444,0.1155392080545425,0.9593104720115662
0.4384479980468754,-0.1394248555694706,2.045961638459563,0.3221025408774614,0.4516997337341308,0.0956608429551124,0.8315786123275757
0.44841308593749574,-0.0578581868645735,2.0134265655577184,0.7099608717352152,0.4659757912158966,0.1198601424694061,0.7596500515937805
0.45837695312500415,0.0852832050099968,1.9481617739647623,1.0006821859210728,0.4109378457069397,0.1574290990829467,0.764542281627655
0.468341796874995,0.2678639510158449,1.7980594753026962,1.2381225762963295,0.2996144294738769,0.2281944304704666,0.8290552496910095
0.47830688476562244,0.4218266149004921,1.6366916862607002,1.5130542006760834,0.1656276136636734,0.3332630395889282,0.9005741477012634
0.4882719726562499,0.4447485677393153,1.5350830771327018,1.707276796093583,0.0345790237188339,0.4580644369125366,0.9541074633598328
0.4982355957031217,0.4650574520029127,1.5245038154512642,1.7648136237829923,-0.0729192048311233,0.5616254806518555,0.9847984910011292
0.5082009277343715,0.4404294624311849,1.4696791693300009,1.700305203515291,-0.1394527405500412,0.6366000175476074,1.0004184246063232
0.5181657714843766,0.3570869796928018,1.3468454013437032,1.7146382647722958,-0.1770706921815872,0.6999358534812927,1.0057021379470823
0.5281298828125003,0.2693099485730752,1.2635755819827317,1.6197808834701777,-0.1988440603017807,0.7292019128799438,0.9832807779312134
0.5380949707031206,0.1698268436990678,1.1671657105416058,1.5609680444955825,-0.1951124370098114,0.7438375949859619,0.944531500339508
0.5480595703124962,0.0399296766651794,1.017306572985649,1.5943687943160534,-0.1866533607244491,0.7711047530174255,0.9011499285697936
0.558024902343746,-0.0926305903644301,0.8993664222598076,1.6216455082982777,-0.1940508186817169,0.7987342476844788,0.8575209975242615
0.5679890136718697,-0.0877217938011512,0.8096756299406289,1.512344591102004,-0.2103911936283111,0.7920992970466614,0.8199312686920166
0.5779538574218748,-0.0700214480681344,0.6675754359483719,1.401585876312852,-0.2308136373758316,0.7467027902603149,0.7958980798721313
0.5879189453124951,-0.0640770796457305,0.4914063836157322,1.3464964417755605,-0.2804948091506958,0.6892439126968384,0.7820494174957275
0.5978837890625002,-0.0201900436569005,0.2813268783748149,1.339374627071619,-0.3640152812004089,0.6459132432937622,0.7703983187675476
0.6078479003906239,-0.0230282079585827,0.108770755842328,1.1678782427251335,-0.4729657769203186,0.5935498476028442,0.7568300366401672
0.6178129882812513,-0.086418638780713,-0.0522808068573474,0.8863800994366406,-0.5748410224914551,0.5427239537239075,0.741232693195343
0.6277778320312493,-0.2422804142849519,-0.2257470299720764,0.6908008287131786,-0.6518123745918274,0.512519896030426,0.7216233611106873
0.637741943359373,-0.4866800126809626,-0.3175274880468845,0.3668856854557991,-0.7197520136833191,0.4592044651508331,0.6878579258918762
0.6477070312500004,-0.6763659875821322,-0.3571981119170784,-0.0059276364833116,-0.7698838114738464,0.3850341439247131,0.6300739645957947
0.6576718749999984,-0.849180614920333,-0.4252349985718727,-0.241456640279293,-0.7895384430885315,0.3289516866207123,0.558685839176178
0.6676369628906258,-1.0844659461535513,-0.5207119730770587,-0.3470920207053423,-0.7636936902999878,0.3341431021690368,0.4925161004066467
0.6776010742187566,-1.2768489050537346,-0.5422329000115395,-0.5637415519863367,-0.7049960494041443,0.3437131941318512,0.4347878396511078
0.6875659179687474,-1.368733408024907,-0.5774243326410651,-0.8779308355212211,-0.631019115447998,0.3266443908214569,0.3897665441036224
0.6975310058593749,-1.365819420274347,-0.6242442437440157,-1.2168389652490614,-0.5328014492988586,0.2914943993091583,0.3349043428897857
0.7074960937499952,-1.3581237512052058,-0.6306126097321509,-1.381085524597764,-0.4110898673534393,0.2617843151092529,0.2637644112110138
0.7174599609374965,-1.4207479651615025,-0.518915445049107,-1.5086831459850072,-0.2722366452217102,0.2233010977506637,0.1991239190101623
0.727425048828124,-1.3290106155760586,-0.6354463134989142,-1.549146673798561,-0.1162960827350616,0.1984118670225143,0.1654964387416839
0.7373898925781219,-1.12294597199969,-0.9139826843723654,-1.4707804085701703,0.0284496527165174,0.1412074267864227,0.1557679176330566
0.7473540039062456,-0.9327789355833084,-1.049405300296843,-1.4816583609372376,0.1431281268596649,0.0323201268911361,0.1403141021728515
0.7573188476562507,-0.7228259062662721,-1.2103294372245668,-1.3577566714584826,0.2179541736841201,-0.0599008798599243,0.1299780905246734
0.767283935546871,-0.4070474538438022,-1.5646487788349388,-1.1491291185915469,0.2574892342090606,-0.1323516815900802,0.1158897280693054
0.7772490234375056,-0.0075407707683742,-1.930389678169787,-1.0678063416451216,0.2407171577215194,-0.2312937080860138,0.0983770489692688
0.7872128906249998,0.1902972021346911,-2.154891384255886,-1.0453893426537513,0.1875110268592834,-0.3756408989429474,0.0793583542108535
0.7971779785156201,-0.0708487109388224,-2.125792715543509,-1.2203525263279675,0.0674197673797607,-0.6130428314208984,0.0462462082505226
0.8071430664062476,-0.6956148779314011,-1.7281106175467371,-1.5215736072182655,-0.1028835996985435,-0.8826067447662354,-0.0502539537847042
0.8171066894531265,-1.4347440495491026,-1.1786825453341006,-1.883527096968889,-0.3044412136077881,-1.0915732383728027,-0.2076190859079361
0.8270720214843763,-2.1578446811035272,-0.6935165174126625,-2.0926462327450515,-0.508777379989624,-1.1511539220809937,-0.4021659195423126
0.8370368652343743,-2.8059809648275373,-0.1068447562158107,-2.170413947558403,-0.700649082660675,-1.0761184692382812,-0.5887213945388794
0.8470019531249946,-3.1418887436956164,0.586193914552033,-2.274942243525386,-0.8347331285476685,-0.8571258187294006,-0.7312266230583191
0.8569658203124959,-3.1956627117201686,1.1349667377263306,-2.008159438809753,-0.8633748888969421,-0.4523338675498962,-0.7955414652824402
0.866930664062501,-3.052344958631694,1.505176599168777,-1.5516560262709855,-0.785076916217804,0.0218419004231691,-0.7612476348876953
0.8768959960937508,-2.4728105019688607,1.6681667287155986,-1.4330308158904312,-0.6224357485771179,0.4015335738658905,-0.6344231367111206
0.8868608398437559,-1.7794573584243654,1.6710484216317534,-1.2606354368776085,-0.4150525033473968,0.6538905501365662,-0.470685064792633
0.8968249511718724,-1.2194368727877736,1.7014575884208083,-0.8508218793213367,-0.209346204996109,0.7656255960464478,-0.3114496171474457
0.9067900390624999,-0.7686948002547025,1.6086036558955907,-0.3926408889591694,-0.007549968548119,0.7221007347106934,-0.1656050533056259
0.9167546386718755,-0.4726031912073493,1.3897715198785066,0.0707885234504938,0.165880411863327,0.5777164101600647,-0.0713512599468231
0.9267187499999991,-0.3021174086755141,1.301248017773032,0.3911269772648811,0.3183645009994507,0.3432456851005554,-0.0549030490219593
0.936684082031249,-0.3021998993271961,1.2522986934259532,0.6739397102832794,0.4411495625972748,0.0818013027310371,-0.1129780635237693
0.9466489257812398,-0.4041771591044962,1.1814306749984622,0.9473346266150474,0.5250905752182007,-0.2047521770000457,-0.2163548022508621
0.9566140136718744,-0.5803662313118577,1.1139023223876952,1.0792945348650216,0.5622835159301758,-0.4644756317138672,-0.322446346282959
0.9665778808593757,-0.7473930690288543,1.0373495363220573,1.36132400855124,0.527114748954773,-0.6129842400550842,-0.4213041961193084
0.9765427246093736,-0.8682716112941503,1.0043588286072016,1.476197172921896,0.4380461573600769,-0.673757016658783,-0.5159047245979309
0.9865080566406235,-0.8789765451818704,0.958404302161932,1.5758604932010172,0.2999234795570373,-0.6708768010139465,-0.5785415768623352
0.9964721679687472,-0.6785247730512172,0.8930883649036288,1.6230916154533623,0.1472117006778717,-0.6325264573097229,-0.6107450127601624
1.0064370117187451,-0.5003509567674249,0.8474892277672886,1.6519418623626232,-0.0209567286074161,-0.5596356391906738,-0.6258911490440369
1.0164018554687502,-0.4508752704586833,0.8460197397366166,1.6005080277234316,-0.1997376680374145,-0.4786891341209411,-0.6223960518836975
1.0263666992187552,-0.3970238167511299,0.8186863271310925,1.4986691169708966,-0.3684092164039612,-0.3862273693084717,-0.6329078078269958
1.0363308105468718,-0.3357352718453854,0.8727642465382814,1.2999831124037504,-0.4874991178512573,-0.3425816297531128,-0.6619777679443359
1.0462961425781216,-0.3112243327820673,0.8159665467783809,1.149348898822069,-0.5538038015365601,-0.3017886281013489,-0.6957525610923767
1.0562609863281196,-0.2275004677769727,0.7131935700461268,1.1881202357649805,-0.5815840363502502,-0.2570062279701233,-0.7022040486335754
1.066226074218747,-0.0532685757856816,0.6426806486666202,1.0703162786394358,-0.5862542390823364,-0.2281160950660705,-0.6889169812202454
1.076189697265626,0.1640847381168045,0.6003776304662227,1.0041367102891203,-0.5520773530006409,-0.1943711787462234,-0.6627296209335327
1.0861547851562463,0.3447423157740384,0.5224094246447086,0.955287631446123,-0.4990816712379455,-0.1830804049968719,-0.6093801259994507
1.0961201171874961,0.4303767088418826,0.4372515995800495,0.9054372666060924,-0.4365391731262207,-0.1697622090578079,-0.5450021624565125
1.1060839843750045,0.5153437971074134,0.3383472809746861,1.0577145712196827,-0.3542619347572326,-0.1417659074068069,-0.469938576221466
1.1160488281249954,0.6691091483216732,0.1628682567328214,1.09735100055933,-0.2666926681995392,-0.1378047168254852,-0.391377180814743
1.1260136718750005,0.8427194560822099,-0.1081596382066607,0.8974790010780096,-0.1905620843172073,-0.1967901885509491,-0.3190508186817169
1.1359787597656208,0.9543773116681724,-0.2460758245125412,0.6570610561966895,-0.1213068440556526,-0.2794416546821594,-0.266813725233078
1.145943115234374,0.9508143584895878,-0.2980252074584364,0.5015513455331325,-0.0486408956348896,-0.3313109874725342,-0.2392891496419906
1.155907958984372,0.8135179845824837,-0.3953083546027541,0.5796650973051786,0.0378966592252254,-0.3327762484550476,-0.2028344720602035
1.1658730468749994,0.7290732762232423,-0.5496481447041034,0.6614589988946914,0.1349333375692367,-0.2845847010612488,-0.1398003697395324
1.1758369140625007,0.7703238627612591,-0.769264709097147,0.6542372309476137,0.2273000329732895,-0.2491974383592605,-0.0618006363511085
1.1858017578124986,0.9720775112707168,-0.9174985835388302,0.5691618234694004,0.2999096810817718,-0.2542974948883056,0.0156856216490268
1.1957670898437556,1.232354075897485,-1.0878820382073522,0.5436462739408016,0.3441431820392608,-0.2995842695236206,0.0978971347212791
1.2057319335937464,1.417952343093604,-1.296492639939487,0.4996230078190565,0.361680656671524,-0.3751961588859558,0.1881764382123947
1.2156958007812477,1.4436260057933628,-1.4758806543186307,0.426642527282238,0.3612513542175293,-0.4280244708061218,0.2624605000019073
1.2256608886718752,1.4208444112733003,-1.4881021302491426,0.3053150722056627,0.349304735660553,-0.4828401505947113,0.3182047605514526
1.2356257324218731,1.3788399376280605,-1.4662120777413248,-0.0123509475290775,0.3461837768554687,-0.5514892339706421,0.3694562315940857
1.245591064453123,1.2291982422150671,-1.4443720018550752,-0.2184007588624954,0.3777865767478943,-0.5333281755447388,0.4210027754306793
1.2555551757812466,1.0180677666164937,-1.4461509942263364,-0.2618716517984867,0.433433324098587,-0.4057736992835998,0.4839647114276886
1.2655200195312446,0.9512997308537364,-1.441466928063333,-0.46242812641263,0.5004398226737976,-0.260527491569519,0.5423204302787781
1.2754848632812497,0.969804086446017,-1.4094687385171651,-0.7210726328581571,0.5380500555038452,-0.1314813494682312,0.5632544755935669
1.2854489746093734,0.940772856946662,-1.339886960507929,-0.964670376819372,0.5519959330558777,-0.0631718635559082,0.5610853433609009
1.2954138183593713,0.8571098735496401,-1.2239280467271805,-1.135279456937313,0.5539200305938721,-0.0352345034480094,0.5584567785263062
1.3053791503906211,0.7436601661108434,-1.1730670435398816,-1.156018293583393,0.5400390625,0.0206454079598188,0.5795090794563293
1.3153439941406262,0.6657018971614539,-1.149246607491374,-1.195653553879261,0.5101751685142517,0.0801766440272331,0.6202461123466492
1.3253078613281204,0.6699733639355748,-1.1466472386479376,-1.2776619750022888,0.4701913297176361,0.1587035357952118,0.669120728969574
1.3352766113281263,0.5581518422205001,-1.0371394007027148,-1.4062164587229489,0.448303610086441,0.2151228636503219,0.6969715356826782
1.3452416992187466,0.3370550492070615,-0.8408981589391827,-1.6193898383259773,0.4499409198760986,0.2433113604784011,0.7026647329330444
1.355205566406248,0.1596347547043115,-0.6533031649678945,-1.8329495868980883,0.483759343624115,0.2650715410709381,0.6825379133224487
1.3651704101562459,0.049009712764807,-0.571616815406084,-1.9113760578811168,0.5390693545341492,0.3028006255626678,0.6391460299491882
1.3751354980468733,-0.0363454249702394,-0.5821484385535121,-1.8637573976159092,0.5900329351425171,0.3595693409442901,0.5988574624061584
1.3851005859375007,-0.0174561617136001,-0.6490522295251488,-1.8103291742891072,0.6137398481369019,0.422941654920578,0.5873129367828369
1.395064453124995,0.2105181889191269,-0.822159848460555,-1.719492134544253,0.6050720810890198,0.4792235791683197,0.5984768867492676
1.4050297851562448,0.4906444593325257,-0.9090759153693914,-1.688052455663681,0.5557082891464233,0.5058164000511169,0.6137219071388245
1.4149943847656203,0.6724466952465474,-0.8605670282661915,-1.7232178770691156,0.4955011010169983,0.4950369596481323,0.6261676549911499
1.4249594726562478,0.7205018472328781,-0.7145590131804347,-1.6958447169750928,0.4344784319400787,0.4715274572372436,0.6253620386123657
1.4349235839843715,0.6555554008740931,-0.4952376323416829,-1.5292758521586656,0.3851250112056732,0.4783680737018585,0.6141115427017212
1.4448884277343765,0.5535643317671493,-0.1706888673558831,-1.2887334041148424,0.3466812670230865,0.5094830393791199,0.6059718132019043
1.4548537597656264,0.5228831796362996,0.1950622611120343,-1.1100491540908812,0.3145398497581482,0.547659695148468,0.5976635813713074
1.4648176269531206,0.603414039020054,0.637572804133594,-0.9132067315638064,0.3029555678367615,0.5806451439857483,0.5894964337348938
1.4747824707031256,0.772523857023567,1.08966687579751,-0.6792670427858829,0.3159323632717132,0.5967903137207031,0.5757406949996948
1.484747558593746,0.902846811721474,1.4310405188560484,-0.4370680597066879,0.342581182718277,0.582438051700592,0.5657809972763062
1.494712402343751,1.0892780226103962,1.6439806742250918,-0.1878448770791292,0.3820194005966186,0.5573502779006958,0.5517075061798096
1.5046765136718747,1.2815867472305893,1.7137328403651713,-0.0004880757778882,0.415524810552597,0.5101974606513977,0.529557466506958
1.514641601562495,1.377125973317027,1.7276216649860143,0.1606874055624008,0.4442882835865021,0.4588724970817566,0.5176366567611694
1.5246064453125001,1.4970609511218964,1.732262184268236,0.2927887681096792,0.4526844322681427,0.4195496141910553,0.5237107872962952
1.5345705566406238,1.6172757687814532,1.6758879706174137,0.4228706075280904,0.4345349967479706,0.3976736068725586,0.5531187653541565
1.5445356445312513,1.696948586563766,1.6828168930977585,0.5154103595376014,0.3764736950397491,0.4015456736087799,0.5736826062202454
1.5545004882812492,1.7563555920392273,1.6114029312252998,0.5076245279669761,0.2893510460853576,0.4129205644130707,0.5930962562561035
1.564465820312499,1.7542039669632912,1.5410983918994663,0.40202071172297,0.1921769678592682,0.4204318523406982,0.6121881604194641
1.5744296875000003,1.721807133488357,1.5203589707314966,0.3113391548007726,0.0814824104309082,0.4680361151695251,0.6227545142173767
1.5843945312499983,1.6939241241760552,1.4988672698915004,0.2735603360265493,-0.0223768092691898,0.5178269743919373,0.6303581595420837
1.5943596191406257,1.6502616541907191,1.506882234042883,0.1161141043424606,-0.1313408464193344,0.5340477824211121,0.63752681016922
1.60432348632812,1.6162797434814271,1.5447551608413457,-0.0567681814044713,-0.2374757230281829,0.5259373188018799,0.6324513554573059
1.614288330078125,1.5508639991104602,1.6194880380034449,-0.1765250261634588,-0.3228995203971863,0.5264971256256104,0.6250690817832947
1.6242536621093748,1.4954963321536778,1.7055325827747585,-0.2586567814052105,-0.3770583570003509,0.5230358839035034,0.6139234900474548
1.6342185058593728,1.371928404673934,1.7927327273219822,-0.4225187253504991,-0.4077810943126678,0.497818112373352,0.6019416451454163
1.6441826171874965,1.2531754762604832,1.84700909191072,-0.4918026894569396,-0.4043591618537903,0.4725530445575714,0.5961160063743591
1.6541474609375015,1.1362104541771114,1.848810003852844,-0.3845651345312595,-0.3693412542343139,0.4739911556243896,0.5959879159927368
1.6641125488281219,1.0421249340303242,1.816342150968313,-0.2505097153067588,-0.3235626816749573,0.4798833429813385,0.6076973080635071
1.6740776367187564,0.9139126148108392,1.788352320280671,-0.1332920336365699,-0.2919269800186157,0.480553925037384,0.614948570728302
1.6840415039062506,0.8135674497473985,1.7264280712872742,0.0857242267757654,-0.2636288702487945,0.5040997862815857,0.6157698631286621
1.694006591796871,0.7904760586258024,1.5974582847639918,0.3241746709764003,-0.2591259777545929,0.5249651670455933,0.6233124732971191
1.703971435546876,0.7976744456972926,1.4377213117942214,0.4054781587004661,-0.2726427316665649,0.5184425115585327,0.6349984407424927
1.7139353027343702,0.7754371141217649,1.297253395178914,0.5793418567001819,-0.2985734045505523,0.5207682251930237,0.652764081954956
1.72390063476562,0.7670471061129123,1.142549155679345,0.7639502360761166,-0.3344996273517608,0.5236777663230896,0.6788990497589111
1.7338654785156251,0.8170134985480457,1.0193079759359358,0.8509785311877727,-0.366283655166626,0.5101116299629211,0.7168160676956177
1.7438305664062455,0.8380239917423575,0.9355991806358098,0.8657727802157401,-0.3934899866580963,0.4462155699729919,0.7627995014190674
1.7537946777343763,0.7916675334326922,0.8841048479810356,0.7694061633944511,-0.4161265790462494,0.3018498718738556,0.8196641206741333
1.7637595214843742,0.7853267861038445,0.850239403258264,0.6566583206146955,-0.425889104604721,0.1273374259471893,0.8614832162857056
1.7737246093750016,0.7809619419578462,0.8144695862188934,0.7178256137609481,-0.4247199594974518,0.027279257774353,0.8590746521949768
1.7836887207031253,0.6337744347639381,0.8094950126767158,0.6497352433532476,-0.4358853995800018,0.0059932330623269,0.827542781829834
1.7936535644531233,0.2909409665522165,0.7471805953219532,0.5832008702158927,-0.4390761256217956,0.0549836792051792,0.7955304980278015
1.8036186523437507,0.0154668875925242,0.6405576651632785,0.5037134920030832,-0.4282738864421844,0.094206616282463,0.7757611274719238
1.8135834960937558,-0.1888528850778937,0.51632688986063,0.4603904831051826,-0.4198335409164428,0.1300721913576126,0.7558737397193909
1.82354736328125,-0.3493996765932068,0.4175353839799761,0.3923620720177889,-0.4148543775081634,0.2057887017726898,0.7156567573547363
1.8335126953124998,-0.4108922927036881,0.3119198772981763,0.248215466889739,-0.4050773680210113,0.2520752251148224,0.6838809847831726
1.8434775390624978,-0.4064490860918536,0.1493652165591716,0.0309223770081996,-0.3948222398757934,0.2493898272514343,0.66561359167099
1.8534416503906215,-0.3950101753737777,-0.0162257431358099,-0.0612865356117486,-0.3820257484912872,0.2411159127950668,0.6574291586875916
1.863406738281249,-0.5136928880952298,-0.1375619660407304,-0.1625561220437288,-0.3692249953746795,0.2396077662706375,0.645372748374939
1.8733713378906245,-0.6258098856255412,-0.2073188083559274,-0.2589864517509937,-0.3558380901813507,0.2333860993385315,0.6143040657043457
1.8833366699218743,-0.683796429843828,-0.2440940030455589,-0.4381330585896968,-0.3351496756076813,0.2215269207954406,0.5629018545150757
1.8933005371093756,-0.7781590864315628,-0.2007590114489197,-0.6837421423733234,-0.2800672650337219,0.204366847872734,0.4931168854236603
1.903265624999996,-0.8635372762486339,-0.1506301219284534,-0.8376736439347267,-0.1742769330739975,0.2141594141721725,0.4256369471549988
1.9132307128906234,-0.8766254520110786,-0.1635959864854812,-0.7607593310803175,-0.0428877584636211,0.2580496370792389,0.3761397004127502
1.9231943359374952,-0.7636741956137121,-0.1793234247103333,-0.6896142492771148,0.0912581384181976,0.2824999988079071,0.3400349617004394
1.9331594238281227,-0.663207303866744,-0.2457809332191944,-0.6033019934803248,0.2125779092311859,0.2812331318855285,0.3017174005508423
1.9431245117187501,-0.5776148502444848,-0.2894382886379957,-0.4732593170285225,0.3023159503936767,0.2435514628887176,0.2486229836940765
1.9530895996093705,-0.457935527701117,-0.3226417623206973,-0.3380599884659052,0.3499375283718109,0.1837563067674636,0.1827265322208404
1.9630537109375013,-0.331547866625525,-0.3891805193722248,-0.1749059005290269,0.3757071495056152,0.1403416395187378,0.1202375888824462
1.9730183105468697,-0.1770666222268715,-0.5083382291942835,-0.055086511927843,0.3955501019954681,0.1164288520812988,0.0693778693675994
1.9829833984374972,0.0561459578529,-0.682623951998353,0.0038718729972839,0.4263123273849487,0.105772741138935,0.0421614423394203
1.9929475097656209,0.2563875212989747,-0.7916177029415965,0.0453156440198421,0.4627720713615417,0.0862608253955841,0.0458198264241218
2.0029125976562483,0.4220976869268342,-0.9078995650663972,0.0604874941885471,0.481072723865509,0.046162661164999,0.0870010554790496
2.0128776855468757,0.5664572406858206,-1.064754260598123,0.024545243191719,0.5009987950325012,0.0209212191402912,0.1560506969690323
2.0228425292968737,0.7923061235971748,-1.3198185704693195,0.1080944640159606,0.5192698836326599,0.0653491616249084,0.2538180351257324
2.032806396484375,1.1856973925322294,-1.7617559897780417,0.0438286203324794,0.5598205327987671,0.1397986263036728,0.4069905579090118
2.0427714843749953,1.6533905998662113,-2.240945865899324,-0.1463748025715351,0.6161395907402039,0.2131669521331787,0.5777055621147156
2.052736572265623,1.9375510942317544,-2.343016247320175,-0.4791559738516807,0.6261978149414062,0.1727036833763122,0.7310836911201477
2.0627016601562502,1.9358458977490665,-2.135627296337485,-1.021225207734108,0.5401169657707214,-0.0233921166509389,0.8394346237182617
2.0726655273437515,1.7573314513340592,-1.784986058717966,-1.6099445491105318,0.3757344186306,-0.2883095145225525,0.872797429561615
2.0826303710937566,1.2508160536527633,-1.3262255149021744,-2.073388574567437,0.1989017128944397,-0.488818496465683,0.8140171766281128
2.09259545898437,0.5262487836118788,-0.7798395868644118,-2.2481980289846657,0.1016167104244232,-0.5087271928787231,0.6956026554107666
2.1025595703125006,-0.2827653867453336,-0.2801324078932404,-2.4402888730704784,0.1280644536018371,-0.3988584876060486,0.6089047789573669
2.112524658203121,-0.8810514517597854,0.1525394626811146,-2.570890352448821,0.2756304740905761,-0.1983048915863037,0.5758546590805054
2.1224897460937555,-1.1266738334164024,0.5686132496759295,-2.652854934430122,0.4849196076393127,0.0021698046475648,0.5577539205551147
2.132454345703124,-1.145151593262702,0.944521030499041,-2.744414443230629,0.7102187275886536,0.1184583306312561,0.5493271350860596
2.1424184570312477,-0.9101406219914556,1.2086661801874636,-2.682721664905548,0.914582133293152,0.159159779548645,0.5662115812301636
2.152383544921875,-0.6375809874400497,1.228179274430871,-2.3661212285757065,1.082464575767517,0.1476413458585739,0.6230551600456238
2.1623486328124955,-0.4827440614715218,1.2296651290744542,-1.9012796112805603,1.1979413032531738,0.0925654619932174,0.6569290161132812
2.1723124999999897,-0.3040666065145284,1.2457926725327968,-1.6141443388879295,1.25455641746521,-0.0340076573193073,0.637808084487915
2.1822773437499947,-0.1682674123626202,1.1937515196502209,-1.4448323128432037,1.2608022689819336,-0.2250207215547561,0.5976752638816833
2.192242431640622,-0.1712426287811249,1.1248556780785322,-1.264780281597376,1.2333117723464966,-0.423729807138443,0.523052453994751
2.2022075195312496,-0.3414188704397529,1.1378279723763465,-1.109434237062931,1.1925021409988403,-0.5978970527648926,0.4150263369083404
2.2121716308593733,-0.5436188014119864,1.1733008522957562,-0.8586293382018804,1.129114270210266,-0.7041558623313904,0.3126001060009002
2.2221367187500007,-0.8161705449178814,1.1695382848918436,-0.5654723213016987,1.0690653324127195,-0.7281120419502258,0.2094175517559051
2.2321013183593763,-1.0535147814422845,1.2491624412268398,-0.3220411660790443,1.0081205368041992,-0.6823168396949768,0.0857557877898216
2.2420654296875,-1.18558881759122,1.4125222808688878,-0.1396294199645519,0.9309906959533693,-0.5873088240623474,-0.0437300391495227
2.2520305175781203,-1.1991694530457258,1.6275567781686782,0.020582184779644,0.8534114956855774,-0.4212250411510467,-0.1190863028168678
2.261995605468755,-1.0215332507699728,1.5040274291336535,0.258838567712903,0.8054237961769104,-0.1879025250673294,-0.1062184646725654
2.2719606933593752,-0.8070642783984542,1.4547937348872422,0.5028250187307596,0.7476896643638611,0.0530720129609108,-0.0434661321341991
2.2819245605468765,-0.594925794801116,1.4975842443436382,0.6629653118044138,0.6666198968887329,0.2619173526763916,0.0329642333090305
2.2918894042968745,-0.4723023085646331,1.5011924979686735,0.7380465640127658,0.5946077704429626,0.4092713892459869,0.0899894386529922
2.301854492187495,-0.3066623951613902,1.492176247820258,0.7989344556957483,0.5475886464118958,0.494145929813385,0.126717060804367
2.3118186035156256,-0.0379534446887671,1.4528940387457607,0.7693979800879955,0.5208859443664551,0.4930806756019592,0.1522735506296157
2.321783691406246,0.0942306277059018,1.3371131118804216,0.7925245886534452,0.5053352117538452,0.4549437165260315,0.1648404896259308
2.3317448730468726,0.1374281835932284,1.1963345218807455,0.9745826990246772,0.4942836165428161,0.4243059158325195,0.1608761101961136
2.3417097167968706,0.1693735469736158,1.0505950946033,1.0260615418493748,0.4786390364170074,0.374074786901474,0.1397079825401306
2.351673583984372,0.1528835268784314,0.8594529295444489,1.126875785729289,0.4582794308662414,0.3365322053432464,0.1094118654727935
2.3616386718749993,0.0965446037366986,0.6965232980132102,1.2687345721811056,0.4217707514762878,0.3123921155929565,0.0572525039315223
2.3716037597656197,0.0872187031172215,0.527507624566555,1.3689432513833044,0.371210902929306,0.3225765824317932,0.0143838673830032
2.3815678710937505,0.1099376076646149,0.3845172037363052,1.4636334594249725,0.3112481832504272,0.3542225956916809,-0.0179945733398199
2.391532958984371,0.1874841540079563,0.2953536501616239,1.470976223403215,0.2387233972549438,0.395232081413269,-0.0382396578788757
2.4014975585937464,0.2232476143717765,0.2133317850351333,1.4733675024539232,0.1616958081722259,0.4448490142822265,-0.0488976202905178
2.411462646484374,0.2727273923337459,0.1141705690592527,1.4390443770915269,0.0848987698554992,0.4884811639785766,-0.0402900166809558
2.4214267578124904,0.289927752655372,-0.0197790517032146,1.438184545391798,0.017833249643445,0.5545360445976257,-0.0331716649234294
2.431391845703125,0.2198503731489181,-0.0767348646342754,1.3708569760501383,-0.0225368104875087,0.62595134973526,-0.0228369999676942
2.4413569335937453,0.2372670796349644,-0.2089876183509826,1.1743261036902666,-0.0198501423001289,0.6740266680717468,-6.69644214212e-05
2.451321533203121,0.2876429296538234,-0.2777835066795349,1.0564145945370196,0.0248395651578903,0.7099699974060059,0.0155412899330258
2.4612856445312516,0.3000845511410385,-0.3468056049793958,0.9716320325255392,0.1044120863080024,0.7237727046012878,0.0378535315394401
2.471250732421872,0.2498793084487318,-0.4837088148504495,0.8473030575454235,0.2062319219112396,0.7074509859085083,0.0429510883986949
2.4812158203124994,0.2193144396413117,-0.5609633194446564,0.7849392480909824,0.3278113603591919,0.7065517902374268,0.0373366065323352
2.491179931640623,0.2870106961648911,-0.7536907078683376,0.7715408373355865,0.443642646074295,0.7026742100715637,0.0509805157780647
2.501144775390621,0.4356417897632345,-0.9793915606111288,0.7389052266687154,0.5361015796661377,0.6804644465446472,0.0915726646780967
2.511109619140626,0.6196600577589124,-1.1625298674345017,0.7205196751505136,0.6001561880111694,0.6163321137428284,0.1407806873321533
2.5210747070312465,0.7535721960552036,-1.3283476216226815,0.6522983718395233,0.6416749358177185,0.5310468077659607,0.1906768679618835
2.53103881835937,0.8013166746571659,-1.3800450756341218,0.6039274319022894,0.6664313673973083,0.4260716736316681,0.2349894791841507
2.5410039062499905,0.7989337250433862,-1.4207441657692192,0.5398790303617715,0.674751877784729,0.3140866160392761,0.2670007050037384
2.550968994140625,0.7843792761206626,-1.4081295988678932,0.4148240791946649,0.6727126836776733,0.1861520856618881,0.2810763120651245
2.560932617187497,0.6916818493314087,-1.2557634469270706,0.2651671862125396,0.6507241725921631,0.0529630482196807,0.267185240983963
2.5708977050781243,0.5118234409615398,-0.9973433968871832,0.1078267529904842,0.6148308515548706,-0.0557482503354549,0.2341572642326355
2.5808627929687447,0.2701013181464746,-0.6498235061585903,0.02292085686028,0.581676185131073,-0.0933498442173004,0.2053998857736587
2.590827880859372,0.0373565382415428,-0.2940145105123519,-0.0698228932887315,0.5583018660545349,-0.0758046731352806,0.1775405555963516
2.6007917480468734,-0.1711575443135574,0.0735778619080781,-0.1955553053259849,0.5494406223297119,-0.0084222769364714,0.1559018641710281
2.6107565917968714,-0.2733742754025384,0.4024877447128295,-0.3689852880835533,0.5811021327972412,0.0984562411904335,0.1477022469043731
2.620721679687506,-0.2615496533025056,0.4699351410418748,-0.5626151783049106,0.665946364402771,0.2441485524177551,0.1661451756954193
2.6306867675781263,-0.1726750727370381,0.4264028733074664,-0.6068009415119886,0.76241135597229,0.3971061408519745,0.195044994354248
2.64065087890625,-0.0259006033234298,0.433951388990879,-0.6394482426166535,0.8413853645324707,0.4954403638839721,0.2122226506471634
2.6506159667968703,0.0401735684236511,0.4724024079382419,-0.6286696589708328,0.8887746930122375,0.5362453460693359,0.2070531994104385
2.660580566406246,0.0968177215896546,0.4716933828860521,-0.5228606755435466,0.9217013716697692,0.5540966987609863,0.1955227851867675
2.6705446777343766,0.3415872492766008,0.1924427262634039,-0.4000409360826015,0.9612735509872437,0.5989019870758057,0.2080646753311157
2.680509765625004,0.8109474034421146,-0.3618962066054344,-0.1713888323187828,1.0014193058013916,0.6711975932121277,0.2394979596138
2.6904748535156244,1.2634671531721948,-0.8417039223641156,-0.0666734893471002,0.9999235272407532,0.7035272717475891,0.2816901504993438
2.7004399414062448,1.6760140812151132,-1.2611480625748634,-0.0180956286609172,0.9517089128494264,0.6806445121765137,0.3216114342212677
2.710403808593746,1.8195511761426924,-1.428207925778627,0.158717566794157,0.8525509238243103,0.622198224067688,0.3559510409832001
2.720368652343751,1.809266513493657,-1.452218331441283,0.3387164065480232,0.693777322769165,0.5232887268066406,0.3755095601081848
2.7303337402343715,1.72988668730855,-1.335795599541068,0.4413865074276923,0.4775963127613067,0.3908042013645172,0.3670172691345215
2.740297851562495,1.5472773727953433,-1.0558797570079563,0.4921802905976772,0.2238580286502838,0.2495168596506118,0.3407414555549621
2.7502629394531226,1.208261837170273,-0.6519447360962629,0.5028893161386251,-0.0351386480033397,0.1316781044006347,0.2904798984527588
2.7602277832031206,0.8391727964513004,-0.0390519074499607,0.3934218102037906,-0.2661780714988708,0.0273312777280807,0.2177279591560363
2.7701926269531256,0.5417773747963831,0.5532207424938679,0.2355155597925186,-0.4152245223522186,-0.0159608032554388,0.1681010127067566
2.7801567382812493,0.3219992631660774,1.0686714340418575,0.3030120559602975,-0.5005380511283875,0.0277747418731451,0.1530812829732895
2.7901218261718697,0.2345308230714872,1.5296756651312111,0.228740951091051,-0.5142426490783691,0.1234408095479011,0.1574382185935974
2.80008691406249,0.2401744915142655,1.7862854508787394,0.202854814684391,-0.4793869256973266,0.2622514963150024,0.1924241781234741
2.8100520019531245,0.3041599108211696,1.891774116310477,0.1802624591261148,-0.4276374578475952,0.4163161516189575,0.2416364699602127
2.8200156249999964,0.3722865946512669,1.8637801939696077,-0.0182119485169649,-0.3406275808811188,0.5734400153160095,0.3018324077129364
2.829980712890624,0.6532539920639246,1.6161135931342838,-0.111312841540575,-0.229962557554245,0.7145670652389526,0.3779982924461365
2.8399458007812513,1.0831753218211233,1.2037982818901538,-0.1673871954619884,-0.1372244954109192,0.8042619228363037,0.4635134935379028
2.8499096679687455,1.3578092784285545,0.7860258742839098,-0.1309621293842792,-0.0749059915542602,0.8593443632125854,0.5086039900779724
2.859874755859373,1.565772376037389,0.3889695069700479,-0.0428197355508804,-0.0336152091622352,0.8683395981788635,0.5161447525024414
2.869839599609371,1.719669829198718,-0.0675789137542247,-0.0661924278318882,-0.0211513489484787,0.82863450050354,0.5119606256484985
2.8798046874999983,1.7630504135027527,-0.3109668143570423,-0.0115799631565809,-0.0474917292594909,0.7510471343994141,0.5189228653907776
2.889768798828122,1.7623308670565483,-0.5307230794817209,0.0591594604551792,-0.1471501439809799,0.6279995441436768,0.536584734916687
2.89973364257812,1.7630607887662946,-0.6298129837870597,0.0268003286421298,-0.3020311594009399,0.4757043421268463,0.5232228636741638
2.9096989746093698,1.633666785481572,-0.5706628756821155,-0.0142436294078826,-0.4805968999862671,0.3332087099552154,0.4870582222938537
2.919662841796871,1.4260679911404848,-0.4406377348870038,0.0500853426396846,-0.6470096707344055,0.2536222040653229,0.4560595452785492
2.929627685546876,1.1820078903645277,-0.2543599609941244,0.1819762773066759,-0.8017510175704956,0.2346064448356628,0.4456106126308441
2.9395927734374965,0.9769071964494884,-0.0059784898877143,0.2450602177292108,-0.9355510473251344,0.2547259628772735,0.448601633310318
2.9495576171875015,0.7908028794273734,0.1924701987922191,0.2939794391989708,-1.0445356369018557,0.3147075176239013,0.4684184789657593
2.9595214843749957,0.605511815016903,0.2987456306874751,0.2928840451776981,-1.1239293813705444,0.3884943127632141,0.5084450244903564
2.9694868164062456,0.4590252226339653,0.3857680805802345,0.2657867794156074,-1.174252986907959,0.4529814422130584,0.546588659286499
2.9794516601562506,0.3023997692808509,0.454192212986946,0.1591249785512685,-1.198271870613098,0.480290949344635,0.5685626864433289
2.989416748046871,0.1009508393390104,0.5248533106654882,0.0943371568202972,-1.1830034255981443,0.4790123403072357,0.5557483434677124
2.9993808593749947,-0.0806441835651174,0.5850806926131248,0.0002934299886226,-1.1170506477355957,0.4557147026062011,0.5165098905563354
3.0093454589843702,-0.230971121295914,0.6340092664331197,0.0262935481637716,-1.014011025428772,0.4359838664531708,0.4701745808124542
3.01931079101562,-0.3074814929919317,0.6821978355407714,0.1115712002158164,-0.9128876328468324,0.3993887305259704,0.4173177778720855
3.029274902343751,-0.3587393500097096,0.7138637243926524,0.2322895834833383,-0.8195667266845703,0.3577390313148498,0.3533116281032562
3.039239746093756,-0.4353645437244325,0.8089549144506454,0.3995622126549482,-0.7320249080657959,0.3202321231365204,0.2774245738983154
3.0492048339843763,-0.4795660159572958,0.7742518498599529,0.4818021044462919,-0.6565207839012146,0.2849657535552978,0.2249959856271743
3.059169677734374,-0.3974801091512664,0.637276159274578,0.572299536973238,-0.5840174555778503,0.2563100457191467,0.1907048672437667
3.069133789062498,-0.345036074556224,0.513594834548235,0.6667746409595012,-0.5281451344490051,0.2388940453529358,0.1588811576366424
3.0790988769531253,-0.3445143157044425,0.4710124148845672,0.7494955942660569,-0.485911875963211,0.2263956815004348,0.1138923615217208
3.0890637207031233,-0.3243591606978326,0.3795972829908132,0.6485235294759273,-0.4354641437530517,0.1974138170480728,0.0696031972765922
3.09902783203124,-0.2334966942507773,0.1501712722450494,0.5160983418017625,-0.3805002868175506,0.1584367454051971,0.0401009544730186
3.108992675781245,-0.1393136685462668,0.0071866966336965,0.4056926782339811,-0.3390665650367737,0.1123488843441009,-0.0048026037402451
3.1189577636718724,-0.0934879195798188,-0.1296545539170503,0.1956044051647186,-0.3112566471099853,0.0492761991918087,-0.0726615265011787
3.1289228515625,-0.0606215688969939,-0.2839735934913158,-0.0493856699377298,-0.2993432581424713,-0.0259868633002042,-0.1494897305965423
3.138886718750001,-0.043718949412927,-0.4004097693949937,-0.2146902139067649,-0.300333172082901,-0.0889571607112884,-0.2209884226322174
3.1488518066406215,-0.0222009450878947,-0.4313029203087091,-0.3458136713325977,-0.3289371132850647,-0.1364735513925552,-0.2967362105846405
3.1588166503906265,-0.0483459150938317,-0.4060241021454334,-0.533238861694932,-0.3733587861061096,-0.1723098754882812,-0.3821911513805389
3.1687819824218764,-0.1041159888390451,-0.3081207772761583,-0.6820809311628341,-0.4180501103401184,-0.1883700788021087,-0.4760129749774933
3.1787458496093706,-0.2317959182148799,-0.1879401541471481,-0.8106324922740459,-0.4427055418491363,-0.1827755123376846,-0.5604405403137207
3.1887106933593756,-0.2761184960767626,0.0034206220984458,-0.928702406859398,-0.4545725882053375,-0.1542687714099884,-0.6287151575088501
3.198675781249996,-0.2846769377213902,0.1623515393823385,-0.9899281521946192,-0.4455021321773529,-0.1072491407394409,-0.6922608613967896
3.208640625000001,-0.3449427702495828,0.3359428501814603,-1.020799675798416,-0.4233520925045013,-0.0506676211953163,-0.7514967322349548
3.2186044921874952,-0.379536894573085,0.5173305139452219,-1.0479787746250628,-0.3833881318569183,-0.0018237198237329,-0.7805742025375366
3.228569824218745,-0.296652969257161,0.5982856266230344,-0.9445984796494244,-0.3254127204418182,0.0517809204757213,-0.773287832736969
3.23853466796875,-0.0963787730499636,0.5479208825200795,-0.897284355288744,-0.2602151036262512,0.1022012084722518,-0.7429847717285156
3.248498779296874,0.0680082176827359,0.4692535885185003,-0.8423737844496965,-0.1904272437095642,0.1299356371164322,-0.7115650773048401
3.2584638671875013,0.1439629099910613,0.4392915809750556,-0.749868519231677,-0.1423664689064026,0.1349077522754669,-0.6827640533447266
3.2684284667968697,0.2024212090400979,0.4753875612288713,-0.651705666643381,-0.1113467589020729,0.1078825294971466,-0.6598650813102722
3.2783937988281266,0.3036807855347171,0.3966740899980068,-0.5280173276543617,-0.0879382342100143,0.0800322890281677,-0.6309348940849304
3.2883579101562503,0.5459482672728598,0.0446896210759878,-0.4252840984106064,-0.062789462506771,0.0763880163431167,-0.5969839096069336
3.2983227539062483,0.894852159705758,-0.5392623597681522,-0.3316372619420289,-0.0509148202836513,0.0877158716320991,-0.5596884489059448
3.3082878417968757,1.1212139605753124,-0.976192472308874,-0.2182207261204719,-0.0806407555937767,0.1025321036577224,-0.5160301923751831
3.31825170898437,1.240119010810554,-1.0954974816471337,-0.1014443584769964,-0.1768873631954193,0.0752622634172439,-0.4908188283443451
3.328216552734375,1.243430181185156,-0.9530717089623212,-0.1089911205947399,-0.3110867440700531,-0.0084877647459506,-0.498707115650177
3.338182128906247,1.1127158890821038,-0.74078037289083,-0.232163326755166,-0.4452564120292663,-0.1269220262765884,-0.5211466550827026
3.348146972656245,0.9406391475643964,-0.5764058032482862,-0.3135831343352794,-0.5711525082588196,-0.2437887191772461,-0.5362342596054077
3.358111083984376,0.7871789167765527,-0.3903834654211998,-0.4093430174350738,-0.6876007318496704,-0.3580444455146789,-0.5260516405105591
3.3680761718749963,0.6384615696668624,-0.2470037530124187,-0.5811620578646659,-0.7823882699012756,-0.454427421092987,-0.5021548271179199
3.3780410156250014,0.4517119039459153,-0.0698906978279352,-0.7447475229561329,-0.8531280755996704,-0.550314724445343,-0.4624532461166382
3.3880061035156217,0.1485974105244502,0.2291173831880092,-0.8669956000089645,-0.8874236941337585,-0.5942776203155518,-0.4023893773555755
3.397969970703123,-0.1959558489508926,0.5301625229895115,-0.9791787946432828,-0.8811478614807129,-0.58698570728302,-0.3111720979213714
3.407935302734373,-0.4851879474923014,0.6572066021472215,-1.113966035273671,-0.8197090029716492,-0.5202274322509766,-0.1977592706680297
3.417900146484371,-0.6673167850121855,0.7360293789714575,-1.089333113798499,-0.7121105790138245,-0.365943044424057,-0.0892905816435813
3.427864013671872,-0.7828895490195602,0.6674234602570533,-1.0288508803069591,-0.5756062269210815,-0.1788855344057083,0.0319759286940097
3.4378291015624995,-0.7621021239914,0.5929267299383878,-1.0430758050143718,-0.4395346939563751,-0.0354022718966007,0.1415975093841552
3.4477939453124904,-0.6811033183023333,0.5657394478052854,-1.142213640114665,-0.3084219396114349,0.0352279543876647,0.2250039726495742
3.4577592773437544,-0.6645922554191201,0.5680126534342765,-1.1101882703006267,-0.1883165836334228,0.0407990217208862,0.2869408428668976
3.467723388671871,-0.6389502299666404,0.570451278758049,-1.0230009852349755,-0.078636422753334,-0.011844215914607,0.3330601453781128
3.4776879882812466,-0.6111727999206632,0.5605804576069117,-0.932021906670928,0.0158804692327976,-0.10782440751791,0.3733990490436554
3.487653076171874,-0.6374110377006232,0.5855903957009315,-0.7878425683170557,0.1083161309361457,-0.2325996309518814,0.3870136439800262
3.497617919921872,-0.7281707744255661,0.6067500881075859,-0.6818395236223935,0.1921807527542114,-0.3661322891712188,0.3725502789020538
3.5075820312499957,-0.8474770989380777,0.6363304028570652,-0.5417033231794833,0.2592330276966095,-0.4969384968280792,0.3321485519409179
3.5175473632812455,-0.9773879657037556,0.6616103900641203,-0.2550859371811151,0.3144589066505432,-0.583172619342804,0.2888269126415252
3.5275122070312506,-1.10430045437105,0.6748322752088308,0.1013560956716537,0.3512528836727142,-0.617616593837738,0.2419012039899826
3.5374760742187448,-1.239303456643969,0.7460247032850981,0.3574982639074325,0.3676765263080597,-0.6244196891784668,0.18082295358181
3.547441162109372,-1.3461737856924534,0.8679226517260075,0.6194201845884323,0.3721314668655395,-0.5965265035629272,0.1107759475708007
3.55740600585937,-1.346734049923718,0.9747387663692236,0.9257213452219962,0.3761565685272217,-0.53935706615448,0.0455881431698799
3.56737133789062,-1.2568791530840098,1.017517585387826,1.1835042664021254,0.3738428056240082,-0.476362407207489,-0.0112620908766984
3.577335449218751,-1.0940306239649653,1.0465636471301316,1.435560042107105,0.3780936896800995,-0.4145956337451935,-0.0621340237557888
3.5873000488281264,-0.8635908330667763,1.0491542481452223,1.7364450229108332,0.3667944371700287,-0.3480432629585266,-0.1026758551597595
3.5972651367187467,-0.6109423886982723,1.029653428861499,2.033015647646785,0.3416595458984375,-0.2808788418769836,-0.1351166516542434
3.6072299804687447,-0.3662535980973392,0.9682207627773284,2.2953946644455194,0.302055686712265,-0.2198951244354248,-0.1625993996858596
3.6171940917968755,-0.1205383870581165,0.8670797711610794,2.527564420941472,0.2438486814498901,-0.1708114892244339,-0.1915295869112014
3.6271594238281253,0.1052088255770504,0.7536106283694505,2.698691387453675,0.158004343509674,-0.1497858315706253,-0.2231975048780441
3.637124023437501,0.3181260749945417,0.6862947494655847,2.747706470513344,0.0387513190507888,-0.1764873266220092,-0.272835910320282
3.6470881347656245,0.5088363514421508,0.6453343780457973,2.757655617597699,-0.0972089096903801,-0.2287225574254989,-0.3275494873523712
3.6570529785156225,0.6219068137723952,0.5159621482014656,2.805200043582916,-0.2345166653394699,-0.2729573547840118,-0.3682646751403808
3.66701806640625,0.7205047698423266,0.4419575853139161,2.853796608969569,-0.3777055144309997,-0.3020630478858948,-0.4087585806846618
3.6769833984374998,0.8384696166180073,0.3964601549863815,2.802738621905446,-0.5158149003982544,-0.3291206061840057,-0.4470207393169403
3.6869470214843716,0.9339099854398518,0.3284568783402443,2.6655940044939515,-0.6175364851951599,-0.3438399136066437,-0.4741820693016052
3.696912109374999,1.0439541952840985,0.1737888791978359,2.577054135775566,-0.6900912523269653,-0.3278470039367676,-0.4793009161949157
3.706876953125004,1.2100694711141289,-0.0488555085837841,2.445437341874838,-0.732400119304657,-0.286196768283844,-0.4764601290225982
3.7168420410156244,1.39710829250738,-0.351995574837923,2.282961299329996,-0.757260262966156,-0.2391013205051422,-0.4503273367881775
3.7268061523437552,1.6007114413410424,-0.6442851612538099,2.1369529919832946,-0.7918331623077393,-0.1935751140117645,-0.4190154671669006
3.736770996093746,1.787408609689772,-0.898891790485382,1.9104928453058003,-0.8412834405899048,-0.1735958307981491,-0.3888311982154846
3.7467360839843735,1.947436528430134,-1.1561539026618004,1.6192793636888263,-0.9003316164016724,-0.172666385769844,-0.3570639491081238
3.75670019531249,2.084086055801064,-1.3486635566815732,1.290368896362185,-0.952041506767273,-0.1905770599842071,-0.3247462213039398
3.766665039062495,2.1451034190826115,-1.5330793360948562,0.8957897328168153,-0.986550509929657,-0.2105092257261276,-0.2815068960189819
3.7766301269531226,2.1531679214641453,-1.614811570625007,0.4380483029156923,-0.9952375292778016,-0.2501102685928345,-0.2331505566835403
3.78659521484375,2.141172363243997,-1.6136115471854806,-0.2770581150144338,-0.9608784914016724,-0.311193585395813,-0.1744044125080108
3.7965590820312514,2.043836316868662,-1.620164037568867,-0.8895733425199985,-0.8614392280578613,-0.3436277210712433,-0.0832076370716095
3.8065241699218717,1.924558049406856,-1.6236974723920226,-1.402118960276246,-0.7124601006507874,-0.3417637646198272,0.0337733067572116
3.8164890136718697,1.81700996722728,-1.555301397036016,-1.930549544906616,-0.5367781519889832,-0.3250309824943542,0.1519390940666198
3.82645410156249,1.6855951256394386,-1.4466039986908434,-2.42607388523519,-0.3324087858200073,-0.2747496962547302,0.2592516839504242
3.836418212890621,1.5875181977689266,-1.4176201885297894,-2.9443045628905296,-0.0989932268857956,-0.1890374720096588,0.3569758534431457
3.846383056640626,1.4429196110896765,-1.3358788939103483,-3.5502100168675184,0.1616934835910797,-0.089774265885353,0.4340717196464538
3.856348144531246,1.2623586074084043,-1.1614636995077132,-3.9505069735378022,0.4314381778240204,0.0356215871870517,0.5076998472213745
3.86631225585937,1.1508496587738395,-1.1222536788865922,-4.206066373449564,0.6823926568031311,0.1531591415405273,0.5646854043006897
3.876277099609375,1.2671515407733618,-1.254194882436097,-4.453320886352658,0.8815107941627502,0.234209805727005,0.6004958152770996
3.8862421874999953,1.5197133663043378,-1.5518810671985148,-4.595091409999132,1.0226062536239624,0.3062693476676941,0.6164638996124268
3.8962070312500003,1.7761679614901542,-1.8356088692352173,-4.733323238125443,1.1104919910430908,0.3289667665958404,0.6242994666099548
3.906171142578124,1.9746921996243296,-1.90954299723506,-4.858626611095667,1.1368777751922607,0.2913645207881927,0.6073702573776245
3.9161362304687515,2.0078440892502663,-1.6293676269829271,-4.844359016290307,1.109651803970337,0.2227759957313537,0.5624472498893738
3.9261010742187565,2.0359087387397885,-1.209021569496393,-4.602876657047868,1.0536494255065918,0.1660474687814712,0.5155234336853027
3.9360661621093698,2.0771791990220545,-0.7900953156799078,-4.29016679841578,0.983964741230011,0.1230859383940696,0.4964528083801269
3.946030029296871,2.002337600788474,-0.2164490402728319,-3.955477163165808,0.9251986742019652,0.0988498404622078,0.4882531762123108
3.9559951171875056,1.8439781997822224,0.4715250405818224,-3.580934825477004,0.8748547434806824,0.1202479302883148,0.4810147583484649
3.965960205078126,1.7400675973221658,1.1065922916352748,-3.1518630252212283,0.8384400606155396,0.190256580710411,0.4756543338298797
3.97592407226562,1.7143895507082345,1.6506003846257924,-2.6908541179567576,0.8212703466415405,0.3071532547473907,0.49263596534729
3.9858891601562476,1.7435767744868993,2.1007161419540643,-2.232872449558973,0.8152462840080261,0.4552441835403442,0.5263845920562744
3.9958540039062456,1.8206643980816009,2.502214875629544,-1.7489514532625674,0.8149411082267761,0.619402289390564,0.5773364901542664
4.005819091796873,1.9950234783828256,2.81739083211422,-1.3031465448707342,0.7909314036369324,0.7788590788841248,0.6536874175071716
4.015783203125004,2.17954856338948,3.0369267324864864,-0.8205524132639169,0.7443591952323914,0.9693986773490906,0.7571746706962585
4.025748046874995,2.35224789378494,3.100499917730689,-0.3430500518381595,0.6786890625953674,1.1768798828125,0.8924738764762878
4.035713134765622,2.5270067870587107,3.0614731447219845,0.0256014742463827,0.5739588141441345,1.379326105117798,1.041462779045105
4.0456782226562495,2.7139783884346484,2.9850007304161785,0.2376362052083015,0.4424186050891876,1.550934076309204,1.1971032619476318
4.055642089843751,2.862164916603267,2.774694430682063,0.2295920149624347,0.3058856129646301,1.644528865814209,1.3480730056762695
4.065607177734371,2.963428365555405,2.5190163728266954,0.1813777268916368,0.1675639450550079,1.700403332710266,1.4900124073028564
4.075572021484376,2.986717471206188,2.26525496224761,0.1357692374050617,0.0242549087852239,1.7056039571762085,1.6282377243041992
4.0855361328125,2.887432044328749,2.0163760630130767,0.0313882409542798,-0.1143791377544403,1.6616942882537842,1.7553192377090454
4.09550122070312,2.6239018116682766,1.9338538471490143,-0.1609720677226781,-0.259128600358963,1.5553538799285889,1.8508362770080569
4.105466064453125,2.187400738194585,1.917258101657033,-0.3818102828651666,-0.3744410574436188,1.4055415391921997,1.8940144777297971
4.115431152343746,1.656207410852611,1.985367761287093,-0.572044100907445,-0.4481922388076782,1.237360954284668,1.8925226926803589
4.1253952636718765,1.090723545243591,2.1256711349904536,-0.7739221795141696,-0.4707854092121124,1.0684412717819214,1.834102153778076
4.135360107421874,0.4975584765046835,2.226002563789487,-0.8906874412417412,-0.4317092597484588,0.928932249546051,1.7440379858016968
4.145325195312495,-0.0308117927731946,2.308959663939476,-0.8493716805130243,-0.3629411160945892,0.8460560441017151,1.6442067623138428
4.1552900390625,-0.4288851185772567,2.351709841385484,-0.6672364132523536,-0.2889595329761505,0.8186606168746948,1.5602364540100098
4.1652541503906235,-0.6585580167561769,2.3216537258178,-0.5091138897418975,-0.2246335446834564,0.8343753814697266,1.5023419857025146
4.175219238281251,-0.8242541173260659,2.224031555977464,-0.3325724969655275,-0.1629196107387542,0.8844277262687683,1.468232274055481
4.185184082031249,-0.9795553728707134,2.133591406595707,-0.0520703789770603,-0.108880341053009,0.9783912301063538,1.4488667249679563
4.195148193359373,-1.1150912399113178,1.989555276104808,0.1667249321609735,-0.070829376578331,1.0774089097976685,1.4350333213806152
4.205113037109371,-1.191019902729243,1.8386147730529308,0.313315423309803,-0.0441490337252616,1.1568318605422974,1.4203979969024658
4.215078124999998,-1.2308924789123237,1.6870312959223983,0.4135772940039634,-0.0168380104005336,1.1977647542953491,1.392478585243225
4.2250432128906255,-1.2347532459937036,1.531363764348626,0.4762093990057706,0.0120620820671319,1.191060185432434,1.3602380752563477
4.235007324218756,-1.2346627912312744,1.3178630524873731,0.5661889451384544,0.0333517752587795,1.1556241512298584,1.318032145500183
4.244972167968747,-1.2812028624795375,1.2286854703873396,0.7129261512815952,0.05235555768013,1.103028655052185,1.2515013217926023
4.254937011718745,-1.310432464095205,1.1505267104297876,0.8041507290393114,0.07428989559412,1.0265395641326904,1.169697403907776
4.2649020996093725,-1.349188165077567,1.061024134159088,0.8773422219783067,0.0990996435284614,0.9355229139328004,1.0729166269302368
4.274866210937496,-1.414537566214055,0.9899830972522496,0.9572299976855516,0.1157391741871833,0.8361282348632812,0.965440273284912
4.284831298828124,-1.4676688524208965,0.8962672872006893,1.0182610972315072,0.1326718181371688,0.7302619814872742,0.8631895184516907
4.294796142578122,-1.5028959408856928,0.7961176447093486,1.0235463441580532,0.1376512348651886,0.6231703758239746,0.7679210305213928
4.304760009765623,-1.596568057925999,0.6574135228961706,1.0246493369638918,0.1368876993656158,0.5426273345947266,0.6858245730400085
4.314724853515621,-1.679445663098991,0.5184224008351564,1.0447434459656475,0.1339340806007385,0.4898380041122436,0.6051353216171265
4.324690185546871,-1.729301727027446,0.3263157746583223,0.9295330124646424,0.1288783252239227,0.4354274868965149,0.5336433053016663
4.334655273437505,-1.8472320870116352,0.1848825201421976,0.8029495365560054,0.1079533100128173,0.3868630528450012,0.4586641490459442
4.344619140624999,-1.9756506693929432,0.1481663621634245,0.7129425178945065,0.0707872956991195,0.3446849584579468,0.3665232956409454
4.35458422851562,-2.0449799339458345,0.0800754072338342,0.6060135905265808,0.0280847232788801,0.2999228537082672,0.2755688726902008
4.364549072265625,-2.084374371223152,0.0362532166421413,0.4447521844685077,-0.0157897882163524,0.2568656802177429,0.1887439787387848
4.374514160156245,-2.1557596915230155,0.0397305373638868,0.3562409573227167,-0.0374680198729038,0.2473592013120651,0.1080091744661331
4.384478271484376,-2.175632851250469,0.0336269597917795,0.3071715137273073,-0.0427147112786769,0.2337922602891922,0.0320297181606292
4.394443115234374,-2.096624342595786,0.0513689527094364,0.2071475434422492,-0.0340310111641883,0.2128883898258209,-0.0314981117844581
4.404408203125001,-1.9965698310419917,0.0544908841222524,0.1394815359264612,-0.012570459395647,0.1647954434156417,-0.0902405232191085
4.414372070312496,-1.9041881922036408,0.0678173986852169,0.0743231273174285,0.0048311278223991,0.0736103430390358,-0.1459666341543197
4.424337158203123,-1.816645225568116,0.0994341876983642,0.0277221196621656,0.0259979292750358,-0.0315775983035564,-0.1978743076324463
4.4343022460937505,-1.7442200408264994,0.1351917297780513,0.0751163235217332,0.0519412793219089,-0.1355346590280532,-0.2381498366594314
4.4442670898437555,-1.643669854710251,0.114032037371397,0.1105716677844524,0.082816369831562,-0.2282435595989227,-0.2671527564525604
4.454231201171872,-1.481320945676416,0.0133797060549259,0.1658434731513261,0.100259281694889,-0.3114798665046692,-0.289050281047821
4.46419604492187,-1.3853769381813703,0.0254763865619897,0.2423877836495638,0.1044444367289543,-0.3889757096767425,-0.3077344894409179
4.47416113281249,-1.302762075597793,0.0819821176379919,0.3277835091233253,0.0952922701835632,-0.4612956643104553,-0.3228090107440948
4.484126220703125,-1.044723499156162,-0.1500935308337211,0.3714753513336181,0.0752469226717948,-0.494078665971756,-0.3199075162410736
4.494090332031249,-0.7538559083674102,-0.4706336447000503,0.4677139578610658,0.0541181787848472,-0.5069043040275574,-0.3138456344604492
4.504055175781247,-0.448497325813584,-0.69210372800529,0.5821253499388694,0.0088175404816865,-0.5156432390213013,-0.3106359839439392
4.514020019531252,-0.2215153837516904,-0.7936018624961376,0.5986152969688177,-0.084804743528366,-0.561493992805481,-0.3238527774810791
4.523984130859375,-0.0783318149695172,-0.5817793129801749,0.6143295834511519,-0.226995438337326,-0.6736916303634644,-0.3550666272640228
4.533949218749996,0.0736830575819127,-0.4182943856537341,0.4942313779085874,-0.379608154296875,-0.8225917816162109,-0.3876942992210388
4.543914306640623,0.152617569418624,-0.3146393653899431,0.3529308098614215,-0.5089674592018127,-0.969188153743744,-0.411918967962265
4.553879150390621,0.119708877431415,-0.2199374669104814,0.2792962493300437,-0.6406548023223877,-1.0907657146453855,-0.4228621423244476
4.563843017578122,0.0215765661118552,-0.1283691902816295,0.0573965424358844,-0.7747420072555542,-1.181537389755249,-0.4121338725090027
4.57380810546875,-0.2276634945852682,-0.0274684371620416,-0.0740711983829736,-0.8968613743782043,-1.2164640426635742,-0.3949232101440429
4.58377319335937,-0.4384042767465114,0.1936275521337986,-0.2556003164440393,-1.0082942247390747,-1.1968096494674685,-0.3823370933532715
4.5937382812499905,-0.6394665819909423,0.3124848177045583,-0.4086445137768983,-1.0782248973846436,-1.119067668914795,-0.3547076284885406
4.603702148437506,-0.6903332842666655,0.3378834628552198,-0.5894342116475105,-1.1171108484268188,-1.008242964744568,-0.3108496367931366
4.613667236328126,-0.6167223238065839,0.3580260871738195,-0.9731816000550984,-1.1051368713378906,-0.893197774887085,-0.2668376564979553
4.623632080078124,-0.5423842911809682,0.3848524270400404,-1.2752549138605591,-1.024386286735535,-0.7623867392539978,-0.2157462388277053
4.633596191406248,-0.4408996006935834,0.3283855666697025,-1.552759019076824,-0.8910505175590515,-0.6590062379837036,-0.1490582972764969
4.6435612792968755,-0.3239438578952103,0.2440887423485517,-1.796032353389263,-0.755858302116394,-0.5915704965591431,-0.0969130620360374
4.653526123046873,-0.2017955148898065,0.2213523021444678,-1.918355833765864,-0.6376405954360962,-0.5620954036712646,-0.0560692548751831
4.663491210937501,-0.1623605994716286,0.2169172423064708,-1.9721137274384497,-0.5267007350921631,-0.5878305435180664,-0.0301958508789539
4.673455078124995,-0.2176436568848788,0.2002522309705615,-2.031396522012353,-0.4233594834804535,-0.6552520990371704,-0.0185812450945377
4.6834201660156225,-0.3306039003062993,0.2414931728973984,-2.011626822659373,-0.3373068869113922,-0.745917558670044,-0.0366302877664566
4.69338525390625,-0.4233559068270027,0.2518888947054744,-1.9392875626355408,-0.247194156050682,-0.8313130736351013,-0.0852079689502716
4.703350097656248,-0.5057004280366003,0.2086743146181106,-1.8315163392245768,-0.1500881165266037,-0.897541344165802,-0.1408698856830597
4.713314208984372,-0.6203679868325591,0.1896098409250378,-1.6588251921355723,-0.0554981939494609,-0.9067219495773317,-0.2013974040746688
4.723279052734377,-0.666467182445526,0.2004404470190405,-1.342310096001625,0.0339893437922,-0.8780831098556519,-0.2527077198028564
4.733244140625004,-0.6531229860953986,0.1868652183920145,-0.9861801978379487,0.1074272841215133,-0.8259401917457581,-0.2902849614620209
4.743208251953121,-0.6128985277347266,0.2589431971311569,-0.6130804601728915,0.1687923669815063,-0.7632368803024292,-0.3282808065414428
4.753173339843755,-0.4627693410657346,0.300721022413671,-0.1837175680160522,0.2124070227146148,-0.6970456838607788,-0.3537124097347259
4.763138183593746,-0.2764398369856178,0.3628285190194845,0.2064127994269132,0.2524833381175995,-0.6286914348602295,-0.3793314695358276
4.773103027343751,-0.0479481844805181,0.3959031056255102,0.5719640214085578,0.3036941587924957,-0.5793015956878662,-0.4062709212303161
4.783067138671875,0.1687589222066104,0.4245400020450353,0.9335638754159212,0.3438136279582977,-0.5455273985862732,-0.4340822994709015
4.793032226562495,0.4008519602045416,0.4748597379624843,1.260138008749485,0.3697547018527984,-0.5283554196357727,-0.4704373776912689
4.802997314453123,0.6783569422036408,0.4961106157839298,1.6199094782859087,0.3855171501636505,-0.518154501914978,-0.4998022317886352
4.812962158203121,0.9527179270885884,0.5167696651920676,1.9106588495224712,0.3874216675758362,-0.5192242860794067,-0.5288745760917664
4.822926025390622,1.2159531223252416,0.5024082546234131,2.1508470773011443,0.3764116168022156,-0.5362626910209656,-0.5515524744987488
4.832891113281249,1.426437408974767,0.5071352831453084,2.38144446991384,0.3410190343856811,-0.5599217414855957,-0.5716111660003662
4.84285620117187,1.5999255516603588,0.5562009273484348,2.4888123732209206,0.2934437990188598,-0.5904359817504883,-0.5929628014564514
4.8528203125000005,1.7363335253603756,0.5415823271483182,2.537491940715909,0.2464380860328674,-0.6071030497550964,-0.6072487831115723
4.862785400390621,1.883981270477176,0.5018050280332566,2.646801625740528,0.2068624347448349,-0.6046702265739441,-0.5987322330474854
4.872750244140626,2.052110078086704,0.5244514518663287,2.635266670769453,0.1515944153070449,-0.6104246377944946,-0.6003850102424622
4.882715087890624,2.150776496282965,0.5364852962702512,2.5511674148470163,0.1099843829870224,-0.5881878137588501,-0.6047176718711853
4.892678955078125,2.203792193286121,0.4080541466683149,2.517098556506633,0.0785896852612495,-0.5476892590522766,-0.5951350927352905
4.902644287109375,2.389960369324684,0.2370779868036508,2.447217795550823,0.0415224730968475,-0.4830870926380157,-0.5774189829826355
4.912609374999995,2.6251374909430742,0.0063560910284519,2.361978137421608,-0.0167836807668209,-0.4009550511837005,-0.5549421310424805
4.92257421875,2.832747975721955,-0.2332107899814844,2.1703286073625088,-0.0911692306399345,-0.3095223307609558,-0.5207607746124268
4.932538085937502,3.058832274824381,-0.5395978753328323,1.962572576633096,-0.1836228370666504,-0.218605026602745,-0.4689324498176574
4.9425029296875,3.2823926084071395,-0.782323512634635,1.6861153501212596,-0.2806202173233032,-0.1351886987686157,-0.404187798500061
4.9524682617187565,3.481333464518189,-0.8919768965303897,1.2141121706336735,-0.383270651102066,-0.0728053823113441,-0.3382281959056854
4.962432373046873,3.6806279563724993,-0.9486568151295184,0.6121048931390046,-0.4431603550910949,-0.0174475852400064,-0.262606143951416
4.972397216796871,3.8022996948421,-1.1199661524713038,0.0686754768192768,-0.4582671225070953,0.0397111922502517,-0.1644785404205322
4.982362060546876,3.933043213039636,-1.2130804894983769,-0.4986667300075292,-0.4438828527927398,0.0928865298628807,-0.051425214856863
4.992326904296874,3.997611839061975,-1.2488444613188503,-1.1428875938534735,-0.4251569211483001,0.1043633073568344,0.0681555047631263
