time,ax,ay,az,gx,gy,gz
0.0,0.3291756576014682,-0.2886085598155856,0.9397662371873856,-0.0634934604167938,0.0098849972710013,0.1591578722000122
0.009965820312500373,0.3588014189278706,-0.38828473957628,0.8626017489641904,-0.023314356803894,-0.0253324639052152,0.1797223091125488
0.019931152343750203,0.3919991569895297,-0.4900426940470934,0.8628092542350292,0.0138790849596261,-0.0464476011693477,0.2039008885622024
0.029895751953125327,0.4298359164960682,-0.6120400112092494,0.8552297588914632,0.03646245226264,-0.0557075217366218,0.231931522488594
0.03986083984375011,0.3941524625658988,-0.7287216863065957,0.8287000638842582,0.0372656621038913,-0.057726465165615,0.2664921581745147
0.049826904296875085,0.2858047179086134,-0.8069871215090155,0.8312304591447115,0.0259750336408615,-0.0370999760925769,0.304192304611206
0.05979199218750031,0.1826379926184192,-0.8818576535761355,0.824008106675744,0.0160646121948957,-0.0029904753901064,0.3397636115550995
0.06975683593750004,0.1321481608310714,-0.9596458266556264,0.8179653193801641,0.01023387350142,0.0415350124239921,0.3724510669708252
0.07972192382812526,0.0558410566221922,-1.015359822832048,0.7533627910882235,-0.0071890586987137,0.0811639130115509,0.3933526277542114
0.08968701171875004,-0.0120100616695359,-1.041462232337892,0.6977244904965162,-0.0118434205651283,0.1337835490703582,0.3983798325061798
0.09965307617187502,-0.0164476787908002,-1.069034422135353,0.6221376268535852,0.0064162770286202,0.1836560368537902,0.3921488225460052
0.1096179199218752,0.0333863925015553,-1.099292490015924,0.4620592931002378,0.0435569770634174,0.2127330601215362,0.3812840282917022
0.11958276367187537,0.0657353682467714,-1.069838139733672,0.2927086886107921,0.0921657904982566,0.2172537744045257,0.3571363389492035
0.12954785156250015,0.1206682239828631,-1.039934584379196,0.1713444086551666,0.1505310982465744,0.2020704299211502,0.3350822329521179
0.13951391601562513,0.1641019267136231,-1.0148919130593537,0.1285579908519983,0.2069096714258194,0.1993350982666015,0.316687524318695
0.1494787597656253,0.1779409939086064,-0.9546279984936118,0.1506944193363189,0.2516674399375915,0.2062101066112518,0.3039718866348266
0.15944409179687513,0.1769550516111776,-0.9033049307525156,0.1661135222643613,0.2689553499221802,0.2145431488752365,0.2935512065887451
0.1694089355468753,0.2084162116711959,-0.8767790351375937,0.1800099456697702,0.2674599587917328,0.2285184413194656,0.2813225984573364
0.17937402343750009,0.2101564064020291,-0.8160033716574311,0.2224140861570835,0.2425516992807388,0.250624269247055,0.2755059897899627
0.18934008789062506,0.2212805886151269,-0.7807166619598865,0.1868582041293382,0.1986948996782302,0.265855997800827,0.2630974352359772
0.19930493164062524,0.2538576009625569,-0.7403805599182843,0.0920966844171285,0.1545135974884033,0.2898534536361694,0.2556411325931549
0.20927001953125002,0.353731897111237,-0.7889025987640023,-0.0187251587361097,0.1326430588960647,0.3258498907089233,0.2616717517375946
0.2192348632812502,0.4537140740811825,-0.8743024158909917,-0.1244341889202594,0.1279481649398803,0.361918956041336,0.2746568024158478
0.22920092773437517,0.4864903718603774,-0.8471452366352081,-0.3333428968161344,0.1334545165300369,0.3546560704708099,0.2833808362483978
0.23916577148437534,0.4615582482429221,-0.7804270313635469,-0.5116565599620342,0.1572285592555999,0.3212578892707824,0.2823904156684875
0.24913085937500012,0.4089817829072475,-0.7218775195002556,-0.6490601205706596,0.1854576468467712,0.2815911769866943,0.2783624827861786
0.2590957031250003,0.4371057979011908,-0.8151333108246326,-0.7316144851386547,0.2023413032293319,0.2563992738723755,0.2768287658691406
0.26906103515625013,0.4930607997592538,-0.985454221650958,-0.750474668431282,0.1995922476053238,0.2564657628536224,0.2738449275493622
0.27902026367187505,0.5452352236326784,-1.1103943142667412,-0.7598965767711401,0.1797881871461868,0.2732892334461212,0.2638247609138489
0.28898535156250027,0.5599487355746329,-1.1854583230793476,-0.8076397401988505,0.1380138397216797,0.2787322998046875,0.2347998470067978
0.29894995117187495,0.5419916751341894,-1.111827561940253,-0.8793424558848142,0.0819697380065918,0.285009354352951,0.1866466999053955
0.3089150390625002,0.4261439301103353,-0.9401789096415042,-0.8291057220757007,0.0143899228423833,0.3048780858516693,0.1342413276433944
0.31888110351562515,0.3264202579461038,-0.6486325428083539,-0.8492840022295713,-0.0658583119511604,0.2943085432052612,0.0825288742780685
0.3288461914062504,0.3576602495361119,-0.3228708949014544,-0.8858253881633281,-0.1457000225782394,0.2642249763011932,0.0516189411282539
0.3388110351562501,0.3743643507733941,-0.0470619031652808,-0.9215577958017588,-0.2101264148950576,0.2197706699371338,0.0515065565705299
0.34877612304687533,0.386783723896183,0.2878162403941154,-0.9536673367679118,-0.2426261603832245,0.1926777809858322,0.0597308799624443
0.3587412109375001,0.4400524823449552,0.650476709370315,-0.918649799400568,-0.2284328490495681,0.1946698278188705,0.0743875876069068
0.36870703125000004,0.5099628347214311,0.9586202830001712,-0.8969014934509992,-0.1757575273513794,0.2056239545345306,0.0969408825039863
0.37867211914062526,0.6186647631112486,1.1900775073125958,-0.7865145345836877,-0.0689889937639236,0.2611641883850097,0.1442913562059402
0.3886374511718751,0.7774713964283466,1.2894713630005716,-0.5876765543252229,0.0523981563746929,0.3509210646152496,0.217129036784172
0.3986020507812502,0.9857936096731572,1.2761202985182405,-0.3894464768320322,0.1718044430017471,0.4468859434127807,0.3038348853588104
0.40856787109375015,1.1913264844603837,1.2246850025743246,-0.1643131948441266,0.2600643634796142,0.5325413346290588,0.4021744728088379
0.418533203125,1.3473524740830063,1.154742866820097,0.0459369907885789,0.3004679679870605,0.5842727422714233,0.4951968491077423
0.42849804687500015,1.4808305318109691,1.1038824481546878,0.0790852271527051,0.2981619834899902,0.5703870058059692,0.5772408246994019
0.4384631347656254,1.5792391758538782,1.061380400250852,0.0158574943453073,0.281139075756073,0.5112946629524231,0.6345563530921936
0.44842822265625015,1.6673789393387737,1.003821360729635,-0.0580728342622518,0.2742502689361572,0.4337990581989288,0.6738111972808838
0.45839428710937513,1.734188768416643,0.93268943066895,-0.2059445973932742,0.2872957587242126,0.3547900021076202,0.7028473615646362
0.4683591308593753,1.8045130353562533,0.831324567168951,-0.2966460280597209,0.3034377992153168,0.2948146760463714,0.7242870330810547
0.4783242187500001,1.9120004733897744,0.662726242351532,-0.3012204963684082,0.3249172568321228,0.2717391848564148,0.7438958883285522
0.4882888183593752,1.989782801250368,0.4837655134737491,-0.2717588395625352,0.3394036889076233,0.2622889280319214,0.7613798975944519
0.4982553710937503,2.0066658392511307,0.3912336525097489,-0.2612590728580951,0.3405214250087738,0.262875884771347,0.78236323595047
0.508219970703125,1.920534931370616,0.3697866675943136,-0.2485726097643375,0.3127982914447784,0.2555305659770965,0.7991675734519958
0.5181850585937502,1.7919946223057803,0.3986433442443609,-0.2232242334961891,0.265045702457428,0.2498697340488433,0.8015891909599304
0.528150146484375,1.5550312017925083,0.449320807558298,-0.16214344958961,0.1907597482204437,0.2534546256065368,0.7924965023994446
0.5381152343750002,1.3018471527099609,0.5822913541555405,-0.1853033759027719,0.0858924612402916,0.2380402237176895,0.771104633808136
0.5480810546875001,1.067808095210791,0.6999725616842508,-0.235538940668106,-0.0166425816714763,0.2336365878582,0.7436374425888062
0.5580461425781253,0.8915519491165876,0.809032071340084,-0.2364735911697149,-0.0951395183801651,0.2507873475551605,0.710252046585083
0.5680112304687501,0.7718763529002666,0.9500105678260324,-0.3731166887998581,-0.1441746950149536,0.245618849992752,0.6818576455116272
0.5779763183593754,0.7225744157232343,1.1167454368591307,-0.5693050313323735,-0.1730870455503463,0.2225614786148071,0.6557440161705017
0.5879421386718753,0.6837588012471795,1.244691433292627,-0.6193874513626099,-0.1701359897851944,0.2169260084629058,0.642211377620697
0.597906982421875,0.6000442337933928,1.3189829964280129,-0.6219488262832165,-0.1514850705862045,0.2288553714752197,0.6465648412704468
0.6078720703125002,0.5621674345374107,1.4099717196032404,-0.679787267267704,-0.1241441369056701,0.2521932423114776,0.6574159264564514
0.617837158203125,0.5473645638115704,1.436826993303001,-0.6342126800507306,-0.0770735591650009,0.3013584017753601,0.6749776601791382
0.6278020019531252,0.5005244867034256,1.440052969612181,-0.4682371049523353,-0.0173167493194341,0.3727061152458191,0.6879717111587524
0.6377680664062502,0.4963922092042863,1.4187208432480691,-0.2780354356139898,0.038323875516653,0.4571059644222259,0.7002848386764526
0.647733154296875,0.5037411837276071,1.3480939401000738,-0.0853589005947113,0.0779772698879242,0.5266821384429932,0.7039222717285156
0.6576979980468751,0.5444205827815458,1.285962770357728,0.0973392612457275,0.0995736420154571,0.57518070936203,0.7068155407905579
0.6676630859375003,0.6040901481833308,1.2496616229206323,0.301148015654087,0.1184884905815124,0.588638186454773,0.7061810493469238
0.6776291503906253,0.6818203805305063,1.230741818395257,0.4645569551348686,0.1304870843887329,0.5760230422019958,0.7180662155151367
0.6875942382812501,0.7533456938229501,1.1566612676620482,0.6182832895129918,0.1291284710168838,0.539709746837616,0.7408618927001953
0.6975588378906252,0.7933328362964093,1.0941647717386485,0.7920411890506744,0.1212646961212158,0.4949768781661987,0.7745628952980042
0.7075241699218751,0.7800650661833584,1.0346329708397388,0.8970645750582218,0.1041320487856864,0.4427585899829864,0.8083636164665222
0.717489990234375,0.7030412285398692,0.9267910202801228,0.9717004215866328,0.0776815339922905,0.4019083678722381,0.8292115926742554
0.7274550781250002,0.5820929089739918,0.8197931193292141,1.047960069924593,0.0477678403258323,0.379402756690979,0.8333478569984436
0.737420166015625,0.4314745505485683,0.7120470303595066,1.0469067614793777,0.0179849136620759,0.3773745000362396,0.8130667805671692
0.7473852539062502,0.3337078576710074,0.6074275489777327,1.0634452238261698,-0.0030014645308256,0.3978627920150757,0.7836175560951233
0.7573500976562504,0.2763048306954093,0.4796393734544515,1.0548287866503,-0.023783441632986,0.4157459139823913,0.747319757938385
0.7673161621093754,0.2506829164491966,0.3668693188428878,0.9937754752725362,-0.0520506501197814,0.4355114996433258,0.7146902680397034
0.7772812500000001,0.2058853780193254,0.2412900515407323,0.9379863680332898,-0.0996573120355606,0.4626520574092865,0.6855131983757019
0.7872463378906254,0.1430681805078871,0.1341343296796083,0.8836708404779434,-0.15353624522686,0.4978866577148437,0.6649879217147827
0.7972109375,0.0868230000642128,0.0543301406025886,0.6845137112677097,-0.2027402818202972,0.4952402710914612,0.6470544338226318
0.807177001953125,0.0504474174177274,0.0143681325703859,0.4516957199960947,-0.2365024089813232,0.4667457044124603,0.6245101690292358
0.8171420898437503,-0.017906663693767,-0.0080947513893246,0.2474123338133096,-0.2553112506866455,0.4114824533462524,0.6022490859031677
0.827107177734375,-0.1195135375224053,-0.0750619629859924,0.0365361252367496,-0.2558275759220123,0.3521684110164642,0.5765734910964966
0.8370720214843752,-0.2788730920145288,-0.1256979252457618,-0.163588972222805,-0.2568502426147461,0.2954196333885193,0.5419942140579224
0.847037353515625,-0.4759846503391862,-0.1960205847501754,-0.438136565721035,-0.2475434690713882,0.2430146187543869,0.4906652569770813
0.857003173828125,-0.7070107897579669,-0.2252358655795454,-0.5921159980773926,-0.2271564304828643,0.2360299378633499,0.418999582529068
0.8669680175781251,-0.8559476979024708,-0.2745584071531892,-0.6801321351826191,-0.204932227730751,0.2671447992324829,0.3359705209732055
0.8769331054687499,-0.9428456446327268,-0.3569941137775778,-0.7584732659697532,-0.1851665079593658,0.3090752065181732,0.2701062858104706
0.8868981933593756,-0.9301747444342822,-0.4002297366529703,-0.8640525322943925,-0.1755503267049789,0.3386117815971374,0.2243073880672454
0.8968630371093753,-0.902187324899435,-0.4594742450430989,-0.9060779025971888,-0.1574570834636688,0.3778446912765503,0.1930938065052032
0.9068288574218752,-0.8773732016384601,-0.4468178848266601,-0.9238415228247642,-0.1409697234630584,0.4029305577278137,0.1756477206945419
0.9167941894531251,-0.8586311648327857,-0.4640788162291049,-0.9660089319467544,-0.1109343245625495,0.4180285632610321,0.1709831953048706
0.9267590332031248,-0.7869249420154839,-0.558399606436491,-1.0020295088768003,-0.0709147304296493,0.4178906381130218,0.1791361719369888
0.9367241210937505,-0.6523314703915268,-0.6992395712345838,-1.064424297991395,-0.0252535007894039,0.4101179242134094,0.1831309199333191
0.9466901855468755,-0.5705487843157723,-0.83646456040591,-1.1270295149862766,0.0321157425642013,0.3904802501201629,0.1748090833425521
0.9566552734375002,-0.5720584947589784,-0.9225330705747008,-1.1617489461898802,0.0781633928418159,0.3682979941368103,0.1378747671842575
0.9666201171875,-0.5900502611866221,-1.0690174710005522,-1.1535410898149012,0.1111928671598434,0.3607757687568664,0.0945729687809944
0.9765852050781247,-0.4726075751215219,-1.340702368544042,-1.1417945379197596,0.1193024665117263,0.3604487180709839,0.0410900339484214
0.9865498046875003,-0.2896860528539866,-1.6601938501402735,-1.1470973205029964,0.097623273730278,0.3505935966968536,-0.0047891177237033
0.9965163574218754,-0.1879915190082043,-1.7599796277552842,-1.1709615956932309,0.047665037214756,0.3430147767066955,-0.0579575337469577
1.00648095703125,-0.2348009817823767,-1.6649951129421592,-1.1451783351391551,-0.0144285652786493,0.3065045177936554,-0.0968026369810104
1.0164460449218748,-0.3899699161842465,-1.5345128760293123,-1.3449480432897805,-0.1066019013524055,0.2034572213888168,-0.1379692554473877
1.0264111328125005,-0.5624955705132335,-1.2100696172446013,-1.5977426546633242,-0.1954398900270462,0.0414195880293846,-0.1892787814140319
1.0363769531250004,-0.7621504201125353,-0.7896727063536644,-1.872400722798705,-0.2636823356151581,-0.1572780609130859,-0.2652512788772583
1.0463420410156252,-1.012951884907484,-0.3507020278960466,-2.1421844628959894,-0.2883533835411072,-0.3436681926250458,-0.3590462505817413
1.056307373046875,-1.2912588309392332,0.0245467044964432,-2.2078116580605505,-0.2437163889408111,-0.443319171667099,-0.4470099210739136
1.0662722167968748,-1.48297821136415,0.3238897165551781,-2.1010785455256697,-0.1490080803632736,-0.4499309659004211,-0.5201317667961121
1.0762373046875005,-1.490244110713899,0.641280426479876,-1.8926643431484695,0.0073311850428581,-0.385387122631073,-0.5668997764587402
1.0862031250000004,-1.3828028499096632,0.8810062974438071,-1.62317052590847,0.2208626419305801,-0.2638264298439026,-0.5739515423774719
1.09616796875,-1.2337991601392626,1.0022928359881045,-1.3021972813218832,0.4555715322494507,-0.1209257468581199,-0.5397506952285767
1.106133056640625,-1.0286159025073052,1.050958667218685,-0.961390039974451,0.6492489576339722,-0.0008879099041223,-0.4705593585968017
1.1160981445312506,-0.7528723772227763,0.998348774537444,-0.5832154832631349,0.7931443452835083,0.0974849984049797,-0.3844449818134308
1.1260642089843755,-0.5553108831735327,0.9462012386709452,-0.1727735646754503,0.8754560351371765,0.1723970174789428,-0.3073253929615021
1.1360290527343753,-0.3906136209152638,0.9296540084958076,0.2319435465246438,0.9010756611824036,0.2179961800575256,-0.243970900774002
1.145994140625,-0.1877884524504654,0.898058262270689,0.508051813468337,0.8805049657821655,0.1992844343185424,-0.2015708535909652
1.1559589843749998,0.0160331797057762,0.8365449321657419,0.6363040993720293,0.8268178105354309,0.1258038282394409,-0.1650298833847046
1.1659243164062505,0.2209326519602909,0.7549497680187225,0.6933657107651233,0.7602258324623108,0.0016226096777245,-0.1433470994234085
1.1758901367187504,0.3253092644969001,0.670340809008479,0.7320774264752864,0.6909458637237549,-0.1280789375305175,-0.1310502290725708
1.1858552246093752,0.2998538476577028,0.6032160687625407,0.8189303650200367,0.6220380663871765,-0.2348111271858215,-0.1299929320812225
1.1958198242187499,0.217925816560816,0.5759750106155872,0.8100982392668724,0.5430319309234619,-0.3209143280982971,-0.1371347308158874
1.2057851562500006,0.0510323594325222,0.5297171173095703,0.8170154713094234,0.4709454476833343,-0.3532885611057281,-0.1460380554199218
1.2157500000000003,-0.0876365266704931,0.5149883347332477,0.7853045742720365,0.3950405418872833,-0.3833045363426208,-0.161402091383934
1.2257160644531253,-0.1819775011493824,0.5232002827614546,0.7465279766321182,0.3129973411560058,-0.3964385986328125,-0.1777825802564621
1.23568115234375,-0.223839369719848,0.5054080209612846,0.7430477333009242,0.2305053919553756,-0.4101315140724182,-0.1759543120861053
1.2456462402343749,-0.2014488020776771,0.4219657676428556,0.7925228350877761,0.1287365406751632,-0.4170406758785248,-0.1719759702682495
1.2556110839843755,-0.1772175019396469,0.3423649921834468,0.7845218994617462,0.0187706276774406,-0.4154049754142761,-0.1568209826946258
1.2655771484375005,-0.1682460042484104,0.2493289810895919,0.7462345466434955,-0.0854725241661071,-0.3955806195735931,-0.144326165318489
1.2755422363281252,-0.1530272918638307,0.2069721868753433,0.6615232963025569,-0.1738524436950683,-0.3728074133396148,-0.1369076669216156
1.2855104980468748,-0.1188785001550335,0.1732563797563314,0.5432300943553448,-0.2313778102397918,-0.3456665277481079,-0.1404479742050171
1.2954753417968754,-0.0748231812274781,0.1356412271112203,0.4482026171833276,-0.2537992298603058,-0.3231015801429748,-0.158066913485527
1.3054406738281252,-0.0011390368001768,0.0894844560921192,0.2874854010045528,-0.2664271593093872,-0.3136664032936096,-0.1831012517213821
1.3154064941406252,0.1146592658916488,0.0016039280652999,0.2252829195916652,-0.2591599225997925,-0.318114161491394,-0.206237718462944
1.325371337890625,0.1803378259172663,-0.1028524717092514,0.1481459038972854,-0.2547979354858398,-0.3337390422821045,-0.2298435121774673
1.3353366699218756,0.1949396211130544,-0.1762158140838146,0.1407230604201555,-0.249442845582962,-0.3435908854007721,-0.2568146586418152
1.3453017578125004,0.2448479266854002,-0.2387111409634351,0.1058113215148448,-0.2525776624679565,-0.3571670353412628,-0.297521024942398
1.355266357421875,0.2581288668072782,-0.2916910360008478,0.0772644414663314,-0.2574387490749359,-0.3448213934898376,-0.3465812504291534
1.365232177734375,0.2508368831682018,-0.3006108400374651,0.0758504830151796,-0.2664182484149933,-0.3092691898345947,-0.3971551954746246
1.3751975097656248,0.2190445366587489,-0.2720662980765104,0.1095189438611269,-0.2729882895946502,-0.2518370449542999,-0.4381907880306244
1.3851623535156254,0.2218883452499285,-0.2398439443856477,0.1550771644651889,-0.2744686901569366,-0.1947309523820877,-0.4695810973644256
1.3951274414062502,0.2787099921409972,-0.2365139231801032,0.1444149006754159,-0.2642219066619873,-0.1572490930557251,-0.492558866739273
1.405092529296875,0.3187403709679842,-0.1954080058097839,0.1240320378601551,-0.2506018280982971,-0.1339152157306671,-0.5128816962242126
1.41505859375,0.2850726042417809,-0.175935243576765,0.1412362706393003,-0.2331059426069259,-0.0965574607253074,-0.5357265472412109
1.4250234375000006,0.2065334666645154,-0.1730330923944711,0.1668161175757646,-0.2083708047866821,-0.0497763007879257,-0.5607478022575378
1.4349885253906254,0.2165619991280138,-0.1239963820248842,0.1129039101243019,-0.1722178608179092,-0.0092488480731844,-0.609529972076416
1.4449536132812502,0.263011286820285,-0.075109309259057,0.0843909323453903,-0.1187989264726638,0.0104223536327481,-0.6618353128433228
1.45491845703125,0.3076238971373066,-0.0412871191561222,-0.0581038139224052,-0.0654222518205642,0.0153036611154675,-0.7219359278678894
1.4648842773437498,0.3683947383118793,0.0466986228108406,-0.2566249833166599,-0.0017280057072639,0.0178035553544759,-0.7708366513252258
1.4748496093750005,0.3783767282199114,0.1526332784444093,-0.4336597125679254,0.0790509954094886,0.0477952770888805,-0.7985300421714783
1.4848144531250003,0.2910314213146455,0.3181505883812904,-0.510370027282834,0.1768923550844192,0.1374364644289016,-0.8196317553520203
1.494779541015625,0.1681654132928699,0.5021890589147806,-0.6302870310395956,0.2797268629074096,0.2463549673557281,-0.8353108167648315
1.504745361328125,0.1228042496308684,0.6524456713557243,-0.8007932353049516,0.372651606798172,0.3687500059604645,-0.8528927564620972
1.5147106933593748,0.1231793300209566,0.7998305277526379,-0.8660685482919216,0.4732245504856109,0.5051866769790649,-0.8788202404975891
1.5246755371093754,0.2103398001449182,0.9719196172952652,-0.8406851007103919,0.5876356959342957,0.6519625782966614,-0.8896260261535645
1.5346406250000002,0.2726402985721826,1.0804460429877043,-0.7853402301073074,0.6988894939422607,0.7928805947303772,-0.873374342918396
1.5446052246093749,0.3744113317202776,1.215270108497143,-0.6135790573447942,0.8017555475234985,0.8987237811088562,-0.8578715324401855
1.554571533203125,0.494503618978709,1.339965578702092,-0.4613175348222255,0.8699119687080383,0.9310079216957092,-0.8458319306373596
1.5645363769531255,0.5562385559450834,1.3048784832298754,-0.3981698815137147,0.8939434885978699,0.9564422369003296,-0.8451334834098816
1.5745014648437503,0.7256437401659787,1.1871037521988153,-0.118299047166109,0.8868144750595093,1.011589288711548,-0.8438679575920105
1.584466552734375,1.0431433172926303,0.9662193598270415,0.1045721351087093,0.861527681350708,1.0230677127838137,-0.8322237133979797
1.5944316406249999,1.389728703650087,0.6567489215075969,0.1822919191271066,0.8086251020431519,0.9602600336074828,-0.8006111979484558
1.6043974609374998,1.660062332715094,0.4513374080777168,0.2964671643614768,0.7129718661308289,0.8168022036552429,-0.7358594536781311
1.6143623046875004,1.9079684413947164,0.2732511239469051,0.4150006048053503,0.5597578287124634,0.6079230308532715,-0.6625780463218689
1.6243276367187502,2.0746905970767138,0.0552834958046674,0.4397440009176731,0.3379585146903991,0.3868995308876037,-0.6079712510108948
1.634292724609375,2.085130450287461,-0.0713800596028566,0.5552046097874641,0.0690082535147667,0.2682794034481048,-0.5472256541252136
1.6442573242187506,1.8093518536895512,-0.1231739597260952,0.6098597445607185,-0.2048800736665725,0.2096066027879715,-0.4714400172233581
1.6542236328124997,1.4570692786037922,-0.0629851562231779,0.3771832075864076,-0.4749925136566162,0.1724536418914795,-0.4001208245754242
1.6641884765625004,1.1325118919201194,0.1751040534496307,0.1226093115806579,-0.7061351537704468,0.2121196836233139,-0.3490439653396606
1.6741533203125,0.7598734881564975,0.4714513908237218,0.063682490837574,-0.8650853633880615,0.3122683763504028,-0.304413378238678
1.6841184082031249,0.5499545803047716,0.7554863591134547,-0.0581365471482276,-0.9690623879432678,0.3761148154735565,-0.2659740447998047
1.6940834960937505,0.5574065037459135,0.9760878428906202,-0.341323958697915,-1.0177620649337769,0.4213736355304718,-0.221286728978157
1.7040495605468755,0.5986192424915731,1.1455921766370534,-0.3525228135824203,-1.009122371673584,0.4909306764602661,-0.1718185245990753
1.7140144042968752,0.5591799431592226,1.3138497251927852,-0.3758405608057975,-0.947673499584198,0.5159217715263367,-0.1106515675783157
1.7239794921875,0.4265213851206004,1.476439749506116,-0.5660287861406803,-0.8497865200042725,0.4632737636566162,-0.0371984951198101
1.7339445800781248,0.2978904751628637,1.6628046171605586,-0.6240168647289276,-0.7257356643676758,0.3986369669437408,0.044466808438301
1.7439094238281254,0.2414148469641804,1.887656159597635,-0.3212503079622983,-0.5667422413825989,0.4092462360858917,0.1367829293012619
1.7538752441406253,0.1100993740975856,1.9730787730783224,0.141921330294013,-0.3550736606121063,0.4805057644844055,0.2623943984508514
1.7638405761718752,-0.0319971666328608,1.9164456162303685,0.4485299494415521,-0.1045841947197914,0.5763148665428162,0.4238852858543396
1.773805419921875,-0.094133304811269,1.8067285194486375,0.6776701289832592,0.150382325053215,0.6997920274734497,0.5954998731613159
1.7837705078125006,-0.0691527389422059,1.6309037505090236,0.8246399748384952,0.3767497837543487,0.8230655789375305,0.756757378578186
1.7937365722656256,-0.0726247989669442,1.3458867854446173,0.6832067203223705,0.5450639724731445,0.9190195202827454,0.8862775564193726
1.8037016601562503,-0.0973899685196578,1.0159013823628424,0.4227127866178751,0.6250465512275696,0.9825193285942078,0.9859862327575684
1.81366650390625,-0.0031133097149431,0.7003145069897174,-0.0161737206876277,0.6291211843490601,0.9794564247131348,1.0473283529281616
1.8236315917968748,0.3404278866410255,0.4716472056567669,-0.614523060196638,0.5817245244979858,0.8691895008087158,1.0563929080963137
1.8335961914062504,0.7976048145271837,0.271947640132904,-1.2065192312866448,0.5044947266578674,0.6931145787239075,1.0271700620651243
1.8435615234375002,1.29204369770661,0.1437707575529813,-1.62009360268116,0.4168219566345215,0.4973621964454651,1.0074033737182615
1.8535273437500002,1.7140502357512712,0.0615448942869901,-2.1891946358740326,0.3378951847553253,0.2646953761577606,1.0562918186187744
1.863492431640625,1.736014084147662,-0.2633171744316816,-2.4552555560559037,0.3326750099658966,0.1395303159952163,1.22761070728302
1.8734575195312497,1.5389713167428969,-0.524055438286066,-1.9687141481280328,0.4731375575065613,0.239955186843872,1.4972299337387085
1.8834226074218754,1.5689179805867373,-0.3437894720286131,-1.5549907236516474,0.4143613278865814,0.641486406326294,1.779609441757202
1.8933874511718751,1.5104799662739037,-0.4192857347786426,-1.5361352165341375,0.1165187209844589,1.22733473777771,2.065541982650757
1.903353515625,1.4607970669552683,-0.3848889596581459,-1.4660966346681117,-0.1463760137557983,1.74577796459198,2.244433879852295
1.9133186035156249,1.4446893972411752,-0.3522223693311214,-1.7340274403750895,-0.2560681700706482,2.020559549331665,2.226886987686157
1.9232836914062506,1.444366010505706,-0.2821083841413259,-2.5427041224062443,-0.3025189042091369,2.014417886734009,2.025912046432495
1.9332482910156252,1.179742868041992,-0.1935083096683025,-2.8720260931432247,-0.309769868850708,1.8902829885482788,1.7468281984329224
1.9432145996093753,0.784329153368622,-0.1183539922237396,-2.806095531117916,-0.2679751515388489,1.6657835245132446,1.459408402442932
1.953179443359375,0.5086081321768462,-0.1080178916484117,-2.964883825060725,-0.1714190244674682,1.380656123161316,1.196930766105652
1.9631442871093756,0.3151801942683756,-0.061923664471507,-2.7144495130777355,-0.0077161123044788,1.1377404928207395,0.9819728136062622
1.9731093750000004,0.1909605248816311,-0.0372018956691026,-2.241599945893884,0.193758949637413,0.9444729089736938,0.8463321924209595
1.9830744628906252,0.0989649627514183,-0.1195890869766473,-1.9056506659716368,0.4133649468421936,0.7878777384757996,0.8167815208435059
1.9930405273437501,-0.0447416435241699,-0.3183563400864601,-1.3910866941303015,0.5976409912109375,0.7154959440231323,0.8351829051971436
2.00300537109375,-0.0349152460366487,-0.2652384978830814,-0.9063082042217254,0.7230377793312073,0.6291093230247498,0.8336814045906067
2.0129707031250006,0.20567279471457,-0.0931558380812406,-0.4361749102592468,0.7682614922523499,0.5719914436340332,0.7772461175918579
2.0229355468750003,0.3157490801975131,-0.0312765972733497,0.1827256343692541,0.7493675947189331,0.5631852149963379,0.7025080323219299
2.032900390625,0.4031348104447126,-0.0328834479480981,0.6943745955467223,0.6930233836174011,0.5568282604217529,0.6525284647941589
2.0428662109375,0.4833374973200261,-0.1098421844661235,1.138136599934101,0.6036372184753418,0.5651547908782959,0.6403005719184875
2.05283154296875,0.46698345162943,-0.1027566101193428,1.5137258163273333,0.4985958039760589,0.5672219395637512,0.6636199951171875
2.0627963867187504,0.3502465392135083,-0.0212070386797189,1.642079809039831,0.4003482162952423,0.541469395160675,0.6981914639472961
2.072761474609375,0.1036874612286686,0.1658387969762086,1.7515747875034808,0.3246957957744598,0.5074949264526367,0.7376325726509094
2.082726318359375,-0.1026174939095973,0.38325872810781,1.843071752461791,0.2785249352455139,0.4548158347606659,0.7767617106437683
2.092692626953125,-0.3081727997243404,0.5653413883984089,1.847506520038843,0.2613211870193481,0.3968886137008667,0.7894769906997681
2.1026574707031256,-0.5411110563747584,0.7486077055156231,1.835178953385353,0.2871928513050079,0.3604951500892639,0.7709797024726868
2.1126225585937504,-0.8375076397180556,0.876722628775239,1.958817608013749,0.3457347154617309,0.3865706920623779,0.7306421399116516
2.122587646484375,-1.1202684964187442,1.015374728140235,2.040698603364825,0.430226981639862,0.4275635480880737,0.6814237833023071
2.132552490234375,-1.2028561787344514,1.1890244911283254,1.9976666863679884,0.537440299987793,0.455598384141922,0.6170194745063782
2.142518310546875,-1.046751278656721,1.3221914370805024,2.0000351690649985,0.65558922290802,0.4619451761245727,0.5394424200057983
2.1524836425781255,-0.804491943692416,1.373386786788702,2.05859374101758,0.7726719379425049,0.4383665919303894,0.4568055868148803
2.1624484863281253,-0.589125584089756,1.4143120868951082,2.181394775778055,0.8529361486434937,0.3950853049755096,0.3618991076946258
2.17241357421875,-0.4177237461589276,1.4801502944618463,2.266045235842466,0.896699070930481,0.3225248157978058,0.2632047533988952
2.1823784179687498,-0.1899371731832623,1.4922078120023012,2.3028245221853254,0.9001932144165039,0.2434987872838974,0.183733657002449
2.1923435058593754,0.0506951451011002,1.4861545033127068,2.3793881219059227,0.8742403984069824,0.1920148283243179,0.1270224452018737
2.2023095703125004,0.3185157684318721,1.4450415716797114,2.469246087485552,0.8256999850273132,0.1745350360870361,0.0945649519562721
2.212274658203125,0.5411367753379046,1.351892163339257,2.443441784143448,0.7517970204353333,0.1658816337585449,0.0864969044923782
2.222239501953125,0.7259275255434214,1.3118822245121002,2.377137712630629,0.6633385419845581,0.1910653412342071,0.0791682377457618
2.2322045898437506,0.8681677125282585,1.2313824543863534,2.2806302260339257,0.56105637550354,0.2284116446971893,0.0764350369572639
2.2421694335937503,0.9791726571634412,1.1301531999647616,2.132007936796546,0.451566070318222,0.2667130529880523,0.068370521068573
2.2521352539062502,1.1662504953928292,1.0048194318562746,2.0169079779326915,0.3390219509601593,0.3112733364105224,0.0719796419143676
2.2621005859375,1.375531105341017,0.8194967667311429,1.901944212669134,0.2120939940214157,0.3271090686321258,0.0843784436583519
2.2720654296875,1.4926951571278273,0.7028782199978828,1.6447446443349123,0.07951170951128,0.2996066212654114,0.0784941837191581
2.28202734375,1.4934711099363862,0.6390566129505634,1.3995587543994188,-0.0595607161521911,0.2297559231519699,0.0580071248114109
2.2919921875000004,1.512495690010488,0.4766624034702778,1.1379776099801062,-0.1887152343988418,0.1182091459631919,0.0475768558681011
2.3019582519531254,1.484024505546689,0.2746843716204166,0.8353092528909445,-0.2985664904117584,-0.0089842975139617,0.0378480330109596
2.311923095703125,1.2770616710215803,0.1348573832571506,0.629240152335167,-0.402489960193634,-0.0881171971559524,0.0151951871812343
2.321888427734375,1.109101497977227,-0.0619341858655214,0.5269482371181249,-0.5073508620262146,-0.0853102877736091,0.0005716825835406
2.3318532714843756,1.0367397338606417,-0.3521908051490783,0.3370914356946945,-0.6268929839134216,-0.0383017621934413,-0.0070015480741858
2.3418183593750004,0.895199073447287,-0.566596356895566,0.0791138687252998,-0.7557181715965271,0.0158985536545515,-0.0157093126326799
2.3517844238281254,0.6807315623804926,-0.7283662969976663,-0.184456403684616,-0.8738322854042053,0.07481699436903,-0.0390109047293663
2.36174951171875,0.4669045411743223,-0.928724618691206,-0.4518646468222141,-0.9843898415565492,0.1414698809385299,-0.0532576218247413
2.371714111328125,0.2626069803357124,-1.232574879041314,-0.7271469843357801,-1.0778290033340454,0.212315559387207,-0.0640285089612007
2.3816791992187505,0.2418785189531743,-1.4892191515803337,-0.9717512749910354,-1.1310101747512815,0.3177075982093811,-0.0824985280632972
2.3916442871093753,0.2645636673614382,-1.5991612892895937,-1.1310580398499963,-1.1510225534439087,0.4151928722858429,-0.1162519678473472
2.4016103515625002,0.2007683637991547,-1.5889502763986587,-1.3329109840154647,-1.1522948741912842,0.4509246051311493,-0.1641076356172561
2.4115751953125,0.1073418920829892,-1.4681711028546094,-1.4927648613631723,-1.154019474983215,0.4441806674003601,-0.2152533829212188
2.4215402832031248,-0.0098740360215306,-1.252448623290658,-1.6861211953401565,-1.1494301557540894,0.361765593290329,-0.2633908987045288
2.4315053710937504,-0.3188850401356816,-0.9688251584112644,-1.869642948523164,-1.1188576221466064,0.2245763093233108,-0.3106686472892761
2.441470458984375,-0.7403288297310471,-0.6135264503747224,-2.0479063427865505,-1.0566943883895874,0.0856914967298507,-0.3645766675472259
2.45143505859375,-1.169735561029613,-0.308650938630104,-2.11211957949996,-0.9535908102989196,-0.0031773864757269,-0.4183834195137024
2.461401611328125,-1.6178674510642883,-0.1009112745136022,-2.115754136610031,-0.8141307234764099,-0.0213910788297653,-0.4471379518508911
2.4713662109375005,-1.9829574852749705,0.115559393069148,-2.1573966450750826,-0.6528542041778564,0.0137538593262434,-0.4644351899623871
2.4813312988281253,-2.122546280968189,0.3320639629215002,-2.099441299712658,-0.480803519487381,0.0845794081687927,-0.4802673161029815
2.491296142578125,-2.22794522228986,0.4776134205847978,-2.0289152265906334,-0.322165697813034,0.1670788079500198,-0.49443319439888
2.501261474609375,-2.194545349252224,0.600306318795681,-1.9356758018791675,-0.1807616204023361,0.2451785951852798,-0.5112996101379395
2.511227294921875,-1.989310361433029,0.6125210727244615,-1.88589441062212,-0.0546132661402225,0.2917309105396271,-0.5236307978630066
2.5211923828125005,-1.6729352582916617,0.5639221692502498,-1.860267217412591,0.0542999505996704,0.2946264743804931,-0.5288571715354919
2.5311574707031252,-1.365360424460471,0.5353343726694584,-1.8419138145983216,0.1284458041191101,0.2544471025466919,-0.5337983965873718
2.54112255859375,-1.0124331217303872,0.4729606263428926,-1.84523682154119,0.171337604522705,0.198106437921524,-0.5320569276809692
2.5510871582031256,-0.7145800559684634,0.3528752802819013,-1.7493009973526,0.2023615688085556,0.1569555401802063,-0.5077281594276428
2.5610529785156255,-0.4193444792285561,0.2197135950267315,-1.693610089790821,0.2138052284717559,0.1155345737934112,-0.4541216194629669
2.5710183105468754,-0.1852709349378943,0.1676104828238487,-1.5973112775087357,0.2063001692295074,0.0867937430739402,-0.3845446705818176
2.580983154296875,-0.0318871303871274,0.1451379542529582,-1.521803908842802,0.1913860142230987,0.068803958594799,-0.3190796673297882
2.5909482421875,-0.0434700161531567,0.1828571517944335,-1.4341530979186297,0.1758408844470977,0.0321146547794342,-0.2513528168201446
2.6009133300781255,-0.0482207178115844,0.2463976038128137,-1.3657424095153807,0.1561536341905594,-0.0130158476531505,-0.1778001934289932
2.6108793945312505,-0.0249389186844229,0.2582733350455761,-1.2328250544100998,0.1321428269147873,-0.0703188180923461,-0.1034609749913215
2.6208442382812502,-0.0239572141706943,0.3301157514631748,-1.1842343342423438,0.1139596477150917,-0.1572578400373459,-0.0536356829106807
2.630809326171875,-0.0819789027675986,0.3017261078029871,-1.048110876572132,0.1152467504143714,-0.2242286056280136,0.001039545983076
2.6407744140625,-0.1825844723328948,0.3081289605826139,-0.8351245439738034,0.1158242747187614,-0.2812715768814087,0.0548795349895954
2.6507392578125004,-0.2713213249281048,0.4012508963942527,-0.6659878744959831,0.1146599426865577,-0.3357215225696563,0.0923534035682678
2.660704345703125,-0.3337169908255338,0.4979208800762891,-0.4703647646307945,0.1040853410959243,-0.3782513737678528,0.1137478947639465
2.670670166015625,-0.3397060021072626,0.6079980423420668,-0.300424377554655,0.1011792942881584,-0.4164909124374389,0.1288157999515533
2.68063525390625,-0.2759431395098566,0.7001175231128931,-0.1578542279630899,0.1059733852744102,-0.447700023651123,0.1293878108263015
2.6906003417968756,-0.1995446672230958,0.7577648254394531,0.0405202264368534,0.1163461357355117,-0.4716061353683471,0.1130011230707168
2.7005651855468753,-0.0593529372006654,0.7959861272841692,0.1788900017291307,0.1197689548134803,-0.5033233165740967,0.0900380536913871
2.7105302734375,0.1306657767862081,0.8127981458753347,0.2501712771326303,0.1214866861701011,-0.5770441293716431,0.0720377415418624
2.720496337890625,0.2754699690401554,0.8258049269646406,0.3956768956542015,0.1026452258229255,-0.6456766128540039,0.0526968166232109
2.73046142578125,0.3507797693073749,0.82381053827703,0.6152642339527606,0.0666275694966316,-0.6819278597831726,0.0443081259727478
2.7404260253906254,0.4176905745416879,0.7793295915156603,0.8236135544002056,0.0172821730375289,-0.702899158000946,0.0593451894819736
2.7503913574218752,0.491710627259314,0.7071031442165374,1.0318658442139623,-0.0397728532552719,-0.671742856502533,0.0920639932155609
2.760356201171875,0.5520648504570126,0.6390595355600118,1.189278758150339,-0.0942518338561058,-0.6243100762367249,0.1346549540758133
2.770322265625,0.6456085188120603,0.5957721824973822,1.2803928612709046,-0.1413580924272537,-0.5702438950538635,0.1774644702672958
2.7802871093750006,0.7970055334597825,0.5426315439403057,1.3608581446051595,-0.1807999014854431,-0.5324703454971313,0.2207011729478836
2.7902524414062504,0.8673723243668675,0.4749824875593185,1.4728542922347785,-0.2107048034667968,-0.4821331202983856,0.2567896544933319
2.80021728515625,0.8402909868262708,0.4352694858521223,1.6702128475904463,-0.2338867038488388,-0.4137265980243683,0.2752211987972259
2.810182373046875,0.8183569490462541,0.3719821318119764,1.7461574386298655,-0.2666425108909607,-0.3636149764060974,0.2742613852024078
2.8201484375,0.8091764482468367,0.3166197255522012,1.8054817342579363,-0.2945596575736999,-0.3167729675769806,0.2669145464897156
2.8301135253906256,0.8623040811918675,0.2117477307140827,1.9007938735902308,-0.321678102016449,-0.2477046847343444,0.2657051980495453
2.8400781250000002,0.9552363396503032,0.0899877294391393,1.99234870621562,-0.3538241684436798,-0.1801604777574539,0.2755229771137237
2.850043212890625,1.0355718591250478,-0.0134784902542829,1.961495887312293,-0.3885009288787842,-0.139096662402153,0.299710601568222
2.86000830078125,1.0063096704140304,-0.06620762540102,1.876130556976795,-0.4268536269664764,-0.0982145741581916,0.3259786367416382
2.8699733886718755,0.968500602632016,-0.0279886616438627,1.8035697631567715,-0.460539698600769,-0.0595886185765266,0.3176402747631073
2.8799392089843754,1.006057156957686,-0.0582224718660116,1.5588848084807394,-0.4779845774173736,-0.0357198826968669,0.3099740743637085
2.889904296875,0.9646046181067824,-0.163178637856245,1.2868565043270588,-0.461408257484436,-0.007200357504189,0.3240858912467956
2.899869384765625,0.8613666542112827,-0.261110019776225,1.1149088690817357,-0.4190167188644409,0.0424834489822387,0.3455418348312378
2.9098344726562497,0.804236215365678,-0.337761882302165,0.7689227637916803,-0.3773917555809021,0.0568583905696868,0.3750328719615936
2.9197990722656253,0.741313018462807,-0.4294949941039085,0.3552490236759185,-0.328553169965744,0.0693865865468978,0.4006281495094299
2.9297653808593753,0.5789345910735428,-0.4809919571071863,0.1307744978576898,-0.2633461952209472,0.0919025540351867,0.41818767786026
2.939730224609375,0.3433727079212665,-0.5115051687926053,-0.2157481985270977,-0.1954673081636428,0.1193569600582122,0.4334644079208374
2.9496953125,0.1426106277324259,-0.5356143586546183,-0.4532458720475435,-0.1206761449575424,0.179115891456604,0.4515712559223175
2.9596601562500005,0.0467367628641426,-0.6161164668679237,-0.6985013200879097,-0.0411276519298553,0.2297004759311676,0.4701323807239532
2.9696254882812503,-0.0068337915427982,-0.7170639817386866,-0.9926853419482708,0.0419957302510738,0.2639117240905761,0.4736099243164062
2.97959130859375,-0.1053204692579805,-0.8093406988978386,-1.2604559886574744,0.13273486495018,0.2760738134384155,0.4762207567691803
2.98955615234375,-0.3240665344268083,-0.8500637544304132,-1.480730724698305,0.2204095870256424,0.2665229439735412,0.4728150963783264
2.9995214843749998,-0.5708541604705154,-0.8290449317991733,-1.6860557288885116,0.2986329793930053,0.252126008272171,0.4477136135101318
3.0094863281250004,-0.8482413613088429,-0.8487351361751556,-1.807667846125364,0.3695833086967468,0.2533545196056366,0.3930061757564544
3.019451171875,-1.112173891159892,-0.8928788138061762,-1.92349261213243,0.4372897744178772,0.2490728944540023,0.3192313611507416
3.029416259765625,-1.333225456792116,-0.9021902475088834,-2.0180998180657626,0.4872205853462219,0.2356612235307693,0.2365769743919372
3.03938232421875,-1.5550070902645587,-0.9607155017137526,-2.004552938750386,0.5418872833251953,0.2282232642173767,0.1762253195047378
3.0493471679687505,-1.6937668877877294,-1.0787485914200543,-1.9886229636907573,0.6000323295593262,0.234136015176773,0.1394947320222854
3.0593122558593753,-1.7561986479118463,-1.0511159036070108,-1.9872394003778693,0.639738142490387,0.2461430728435516,0.0882052183151245
3.069277099609375,-1.7586464794553816,-0.9362649510681628,-2.0351865619450806,0.6602135896682739,0.2430221140384674,0.0138433668762445
3.079242431640625,-1.677396475484222,-0.8716144919812678,-1.9486229617357251,0.6842426061630249,0.2469832897186279,-0.0526130944490432
3.0892082519531248,-1.639801488844305,-0.8154805168271064,-1.8485107286453248,0.6864463686943054,0.2227852791547775,-0.0978367701172828
3.0991733398437504,-1.681704986333102,-0.7326333067923784,-1.7984896834135051,0.6787527799606323,0.1607597768306732,-0.1485096663236618
3.109138427734375,-1.755519141215086,-0.6082821199804544,-1.707812218144536,0.6563854217529297,0.0973171591758728,-0.207785502076149
3.119103271484375,-1.8728975664049383,-0.4915501760005951,-1.5796908651441337,0.6390022039413452,0.0342544689774513,-0.2691457867622375
3.1290681152343756,-1.995259625226259,-0.3639759354889392,-1.471282512873411,0.6480026245117188,-0.0257529392838478,-0.3164014220237732
3.1390341796875005,-1.9485624637201424,-0.4101572564274072,-1.3234049045234917,0.7037882804870605,-0.0727309212088584,-0.3395841121673584
3.1489992675781253,-1.7375221506230532,-0.527388382101059,-1.1641712049007416,0.7721231579780579,-0.1261520683765411,-0.3322268426418304
3.15896435546875,-1.5139049722865223,-0.610317425200343,-0.9914058235317468,0.832701563835144,-0.2070754170417785,-0.3170268535614013
3.16892919921875,-1.3589501190267503,-0.6008399872809648,-0.7363666481018066,0.8659191727638245,-0.3042722642421722,-0.2951023876667022
3.1788942871093755,-1.318854840003699,-0.6235206056445837,-0.524857402318716,0.8892528414726257,-0.4031926989555359,-0.2565737068653106
3.1888593750000003,-1.2985482572950422,-0.5912210950642823,-0.3110159141957759,0.8931708931922913,-0.473565399646759,-0.2199168652296066
3.1988254394531253,-1.291402915585041,-0.4917056588232517,-0.1420171918839216,0.9086302518844604,-0.5057517886161804,-0.1928465664386749
3.208790283203125,-1.3989387228049337,-0.3579138589709997,0.0091699794054031,0.9110808968544006,-0.5169325470924377,-0.1734478324651718
3.2187553710937498,-1.5665256786227226,-0.1075309849143028,0.1788642827659845,0.8942378759384155,-0.5142324566841125,-0.1680429428815841
3.2287202148437504,-1.802909399551898,0.2290221061199903,0.313276260343194,0.8660184741020203,-0.4940462410449981,-0.1825454533100128
3.238685302734375,-1.9540031934693451,0.562207766547799,0.4237625879317522,0.8424766659736633,-0.4591963291168213,-0.2166740596294403
3.248650146484375,-1.9731354717016216,0.8056757466495037,0.4760720363616943,0.8288887143135071,-0.4348363876342773,-0.262875348329544
3.258616455078125,-1.897631464036554,1.027741457760334,0.469716529855132,0.829778254032135,-0.4212556481361389,-0.3240244090557098
3.2685812988281255,-1.7429495824992656,1.2046230422765016,0.4608861576676368,0.8403747081756592,-0.4306291937828064,-0.3837644457817077
3.2785463867187503,-1.4923948590070009,1.33256553157866,0.406257910901308,0.8616672158241272,-0.4513202607631683,-0.4474947154521942
3.28851171875,-1.2517365294985472,1.460066706854105,0.4114852901607752,0.8863845467567444,-0.4818246364593506,-0.5061684250831604
3.298476806640625,-0.9939499550566075,1.582901643884182,0.4372118520915508,0.897462785243988,-0.5078332424163818,-0.5638937950134277
3.308442626953125,-0.7908227531716228,1.6634592816770075,0.4419967482805252,0.887151300907135,-0.5513218641281128,-0.620428740978241
3.3184074707031255,-0.506674533765763,1.6723931142389774,0.3900543795973062,0.8533511161804199,-0.5982463359832764,-0.6750072836875916
3.3283725585937503,-0.1425726338095962,1.601031174814701,0.3486602929353714,0.8067492842674255,-0.6367892026901245,-0.7142580151557922
3.338337646484375,0.283943490613997,1.4076052827328442,0.2740922509461641,0.7604413628578186,-0.6720991730690002,-0.729641318321228
3.3483024902343748,0.5275910650663077,1.166893323341012,0.2742880657792091,0.6955534815788269,-0.6669443249702454,-0.758407711982727
3.3582678222656255,0.5678342281274498,1.094866782528162,0.2358177576094865,0.6226177215576172,-0.6390062570571899,-0.781692624092102
3.3682336425781254,0.6315137963555753,0.9857400528550148,0.2440180151998996,0.5378820896148682,-0.6025795340538025,-0.7881475687026978
3.378198486328125,0.6607773002408445,0.9174439307421444,0.3051660191237926,0.4203968644142151,-0.588070809841156,-0.7838915586471558
3.388163818359375,0.6794454680927098,0.903368059116602,0.3234989636719226,0.2811811864376068,-0.5992416739463806,-0.7782323360443115
3.3981284179687505,0.7052962409250437,0.8884434617072343,0.3666068685144186,0.1207983270287513,-0.6189068555831909,-0.7733156085014343
3.4080935058593753,0.695211777023226,0.8897995524913072,0.4501467369884252,-0.0516797043383121,-0.6261327862739563,-0.7636978626251221
3.41805859375,0.7141463407263159,0.9136994835168124,0.5673655877023935,-0.2290828675031662,-0.596869707107544,-0.7446554899215698
3.428024658203125,0.7533822264410555,0.914938085401058,0.6456248854249715,-0.3789847493171692,-0.549933135509491,-0.7172393202781677
3.437989501953125,0.7660675204910338,0.951009515735507,0.7026683766394853,-0.507652997970581,-0.4776827991008758,-0.6614977717399597
3.4479545898437505,0.7865836542971432,0.98144089435637,0.8118529739797115,-0.623177170753479,-0.3650268316268921,-0.5857353210449219
3.45791943359375,0.8190785413190722,0.9365297394841908,0.9628419923484324,-0.7220005393028259,-0.2218137085437774,-0.5213845372200012
3.467884765625,0.8920229276292025,0.8857955775469541,0.9535860882252454,-0.796635091304779,-0.1208921447396278,-0.4575041234493255
3.477849853515625,1.0267594609856605,0.7913520377427339,0.8116887233287096,-0.8234071135520935,-0.0686895996332168,-0.3680076897144317
3.4878156738281247,1.2661509854286908,0.6295785905092954,0.7252128014028072,-0.8153326511383057,-0.0501782409846782,-0.2626647651195526
3.4977805175781254,1.4073548151031137,0.531325137028098,0.594317892035842,-0.7697272300720215,-0.0868154540657997,-0.1563276797533035
3.50774560546875,1.429280815707147,0.4247404930531978,0.423512997084856,-0.695945143699646,-0.153932973742485,-0.044179581105709
3.51771044921875,1.3062497715830803,0.361855874595046,0.3545499354958534,-0.6125158071517944,-0.2407199591398239,0.0538807325065135
3.5276755371093755,1.0809712359055876,0.3226566676288843,0.3240069131940603,-0.5181610584259033,-0.3129228055477142,0.1326061785221099
3.5376416015625005,0.7752500671170651,0.3113426619321107,0.3859633108913898,-0.4439210295677185,-0.3643817901611328,0.1855025440454483
3.5476066894531253,0.461596351763606,0.350106400090456,0.4402729932278394,-0.4049150347709656,-0.3993861079216003,0.2110920548439026
3.557571533203125,0.2298363451123237,0.418359852105379,0.5110170930147171,-0.4057185053825378,-0.4271245896816253,0.2086619585752487
3.56753662109375,0.0277079450063407,0.4870961192011833,0.5565437494367361,-0.4121830761432647,-0.4269498884677887,0.1963957101106643
3.5775017089843755,-0.0777554398536682,0.5272364064097405,0.5722293943464756,-0.4203454852104187,-0.4076493978500366,0.1887379884719848
3.587466552734375,-0.1546931335836648,0.6045394263207912,0.522099043521285,-0.4348594546318054,-0.3914387226104736,0.1834678649902343
3.597431396484375,-0.2512745621994137,0.7043687508165836,0.425088868099451,-0.4376969933509826,-0.3645122349262237,0.1803689450025558
3.607397705078125,-0.3584579027198254,0.7467202843338251,0.3259019331604242,-0.4231862425804138,-0.3232633173465729,0.1822885572910308
3.6173625488281256,-0.4333513772711158,0.7529770066410303,0.1919137339532375,-0.3837635517120361,-0.2788143157958984,0.1717844605445861
3.6273276367187504,-0.529530216435343,0.7296645201146602,0.0667278498828411,-0.325744479894638,-0.2443412840366363,0.1471550166606903
3.63729248046875,-0.6995024599544704,0.7381804195255041,-0.0330044439792633,-0.2611832916736603,-0.2249780893325805,0.1072323024272918
3.6472578125,-0.8156495897836983,0.7299398299247026,-0.0611725538432598,-0.1994445621967315,-0.2178011387586593,0.0567691251635551
3.6572226562500005,-0.819387607268244,0.6739192520171403,-0.1487684197098016,-0.147916704416275,-0.2417521476745605,-0.0088933650404214
3.6671887207031255,-0.8382613806948065,0.5754296516925096,-0.192407070428133,-0.1001297533512115,-0.2656116783618927,-0.0646823272109031
3.6771538085937503,-0.8452480247117579,0.4164484655261039,-0.1671218225240707,-0.0679537206888198,-0.282264769077301,-0.1151838228106498
3.68711865234375,-0.8023246826559305,0.2793324896872043,-0.23258476703763,-0.0476694889366626,-0.3237568140029907,-0.165894940495491
3.6970834960937498,-0.8287925644733011,0.1231979251235723,-0.3376934932410717,-0.0390242896974086,-0.3669601380825043,-0.2154953628778457
3.7070485839843754,-0.9260270501703024,0.0324900647163391,-0.4064847053945064,-0.0373787209391593,-0.3992035686969757,-0.2722177505493164
3.717013427734375,-0.9964090386465192,-0.0696118808865547,-0.5346382070988417,-0.0396385490894317,-0.4127482771873474,-0.3331498205661773
3.726979736328125,-1.1632095202617347,-0.1875368340432643,-0.5953647707402706,-0.0452468991279602,-0.3989757597446441,-0.4099820256233215
3.736944580078125,-1.3031735790081322,-0.1822714608609676,-0.7122013441383839,-0.0597097389400005,-0.3784937262535095,-0.5042605400085449
3.7469096679687506,-1.364987645625323,-0.2068494372785091,-0.8397516192525625,-0.0603291913866996,-0.3574065566062927,-0.5912596583366394
3.7568747558593754,-1.369415837331116,-0.2607207281976938,-0.9503741404414175,-0.0463606789708137,-0.3341318368911743,-0.6673263907432556
3.766839599609375,-1.3729149314932525,-0.272378432765603,-0.9603472529232502,-0.0241419225931167,-0.3000947535037994,-0.7298116087913513
3.776804443359375,-1.320210346265882,-0.278393163010478,-0.9630933367609976,-0.011699641123414,-0.2850732207298279,-0.7978028655052185
3.7867695312500005,-1.1309598401725292,-0.3639221594750881,-0.984383962070942,0.0041000950150191,-0.293057382106781,-0.8580912947654724
3.7967355957031255,-0.8965548719704151,-0.3935451443225145,-0.9034557374000548,0.025793183594942,-0.3333211541175842,-0.9113401770591736
3.8067006835937502,-0.6405507970310748,-0.3369645944446325,-0.7945657390922307,0.0339248776435852,-0.3988527655601501,-0.951439380645752
3.81666552734375,-0.3761956578537822,-0.3813841664075851,-0.6493120495051146,0.0291750915348529,-0.4703311920166015,-0.9716782569885254
3.8266306152343748,-0.0679931936435401,-0.4899520931541919,-0.5350771830379962,0.0110392337664961,-0.5527903437614441,-0.9717230200767516
3.8365957031250004,0.2039901023246347,-0.6030559097647666,-0.4159808480143547,-0.0446276776492595,-0.6288526058197021,-0.9549561738967896
3.846560546875,0.3778554077595472,-0.8279729186534881,-0.3905810338199138,-0.114797443151474,-0.6805980801582336,-0.9280542731285096
3.8565263671875,0.5029026140116155,-1.0702665942788123,-0.3614677520602941,-0.2105021029710769,-0.7045778036117554,-0.8942702412605286
3.86649169921875,0.5640452111080289,-1.0251870971024035,-0.3557096269249916,-0.3424247205257416,-0.7151114344596863,-0.8828426003456116
3.8764565429687505,0.4776972994759678,-0.8177367713212966,-0.4456424113065004,-0.4700091183185577,-0.7158901691436768,-0.8758237361907959
3.8864216308593753,0.2832119614690542,-0.4900298345655202,-0.5749228712141513,-0.6033024191856384,-0.7125095725059509,-0.8709110021591187
3.896386474609375,0.0520487516671419,-0.0575567014336586,-0.7097744092524051,-0.7346048951148987,-0.7059199213981628,-0.8583109378814697
3.906351806640625,-0.1736193678498268,0.3394809611797332,-0.8319763090759515,-0.8454198241233826,-0.6764035820960999,-0.8289695382118225
3.9163166503906255,-0.4369423875004052,0.7506669761329889,-1.0146610269129277,-0.915666937828064,-0.6282022595405579,-0.7818173170089722
3.9262827148437505,-0.7316162387043237,1.1845873854637146,-1.1169488504767418,-0.9331481456756592,-0.5403027534484863,-0.720557451248169
3.9362478027343752,-0.9678855394735932,1.5411977606207132,-1.1431786857545374,-0.9072700142860411,-0.4222197830677032,-0.6568392515182495
3.946212646484375,-1.0701089194990694,1.83234986743927,-1.2240391058862208,-0.8249322772026062,-0.3044121861457824,-0.5869134664535522
3.9561774902343756,-1.0612082585543394,1.929018682077527,-1.314706049761176,-0.6881272196769714,-0.1989561319351196,-0.5012785792350769
3.9661425781250004,-0.9457327443763612,1.8904267933547496,-1.3656407027065751,-0.5191099643707275,-0.1463562995195388,-0.409851461648941
3.976107421875,-0.848856570597738,1.7616572055786848,-1.4025170196831225,-0.3287526369094848,-0.1685125529766082,-0.3152437806129455
3.98607275390625,-0.8442888242907821,1.4746113650351762,-1.4802303739607334,-0.1207613497972488,-0.2849132120609283,-0.2294900119304657
3.99603857421875,-0.9632838908970356,1.2180851659178733,-1.4971756635427471,0.0836450606584549,-0.4743208885192871,-0.1871636062860489
4.006003662109375,-1.166320784150064,0.9953490081995724,-1.4928957942664622,0.2697525918483734,-0.7195813059806824,-0.1888432651758194
4.015968750000001,-1.4340131049260496,0.733570295381546,-1.3786480683177709,0.4123710393905639,-0.9265263676643372,-0.2188555300235748
4.025933837890625,-1.724004497402161,0.4726420619130134,-0.984935750734806,0.5135151743888855,-1.0509765148162842,-0.2861421406269073
4.0358984375,-1.9704078003033996,0.2706079159617424,-0.744896576038003,0.5614786148071289,-1.1397515535354614,-0.3924981355667114
4.045863525390626,-2.137773660716414,0.0638648616671562,-0.4560761270374059,0.5470597743988037,-1.1841610670089722,-0.5090013146400452
4.05582861328125,-2.174041928797215,-0.1730278316974639,-0.1186006604611873,0.4772637188434601,-1.1908527612686155,-0.6012992262840271
4.065794677734376,-2.023480926582217,-0.4537976607114076,0.1553448754906654,0.3489342331886291,-1.18208110332489,-0.63873291015625
4.075759521484375,-1.8887281727433205,-0.7057435463011265,0.3298760974884033,0.2121491134166717,-1.1647098064422607,-0.6134800910949707
4.085724609375001,-1.7804627360746264,-0.8951829990953206,0.4178419657111167,0.0804131925106048,-1.147794485092163,-0.5461337566375732
4.095689697265625,-1.8608533467374744,-1.067863040268421,0.4117833963245153,-0.0351661965250968,-1.118916392326355,-0.4669698774814605
4.105654785156251,-2.187099563290924,-1.0665437743633983,0.459550525149703,-0.1207207813858985,-1.0714023113250732,-0.4239707291126251
4.115619384765624,-2.4963000986278057,-0.9975462259829044,0.4063981961548328,-0.1863409280776977,-1.0389567613601685,-0.4304507672786712
4.12558447265625,-2.781059581799805,-0.9049760788351296,0.3324123379677534,-0.2345241606235504,-1.0295292139053345,-0.4694535732269287
4.135549560546876,-3.0055548581451177,-0.8184417047202587,0.3127823393464088,-0.2580610513687134,-1.0443137884140017,-0.5346691012382507
4.145515625,-3.150615070986748,-0.7360334706246853,0.1535053851038217,-0.251026839017868,-1.110995173454285,-0.6216194033622742
4.1554804687499995,-3.2188518641278145,-0.6481646330356597,0.0078805241167545,-0.2057872712612152,-1.2039300203323364,-0.7230672836303711
4.165445800781249,-3.238277280087769,-0.5427542935371399,0.0055272389888763,-0.137453481554985,-1.298669934272766,-0.831125020980835
4.175410644531251,-3.16907368774116,-0.4262649261415004,-0.0089689038753509,-0.0510875582695007,-1.3865529298782349,-0.9399541020393372
4.185375732421875,-3.0222040873900053,-0.3193628867805004,-0.0022042320460081,0.0363062061369419,-1.458354949951172,-1.055767297744751
4.19534033203125,-2.830866984280944,-0.1896867055535316,0.1080272439986467,0.1230686083436012,-1.4911601543426514,-1.1620140075683594
4.2053056640625,-2.563048406776786,-0.081107088369131,0.1844318537652492,0.1978573650121688,-1.5175219774246216,-1.246770977973938
4.215271484375,-2.2487357891231774,0.0212047005921602,0.2505734281927347,0.257664680480957,-1.5346581935882568,-1.307778000831604
4.225236572265626,-1.8622051997378468,0.1137906298309564,0.3509820138812065,0.2995913624763489,-1.5456197261810305,-1.3491281270980835
4.2352014160156255,-1.463703017529845,0.0619195728182792,0.3936053500771522,0.3301565647125244,-1.554399490356445,-1.3695772886276243
4.245166748046875,-1.112706536731869,0.0066658876299858,0.4560767115592956,0.3373531997203827,-1.5687360763549805,-1.3812371492385864
4.255131591796875,-0.7583307887591421,-0.0753758512407541,0.5020458510518073,0.3207026720046997,-1.5870280265808103,-1.3758845329284668
4.265096679687501,-0.4879063396055251,-0.2197393139898777,0.5720154593348503,0.2874999642372131,-1.5847973823547363,-1.358752965927124
4.2750612792968745,-0.3087505265470594,-0.2790302918702363,0.6711649848729372,0.2273668795824051,-1.5816407203674316,-1.3436278104782104
4.285029296875001,-0.1851342298809438,-0.3143441818356514,0.7053577618539333,0.1352087259292602,-1.5758118629455566,-1.3368644714355469
4.294995117187501,-0.0887616217102855,-0.3359861048012971,0.6726794810891151,0.0352844856679439,-1.5708181858062744,-1.340362548828125
4.304960205078125,-0.0786607181303203,-0.3657411915957927,0.6183195298701525,-0.0593440160155296,-1.563655972480774,-1.3396350145339966
4.314925537109374,-0.0895380129102617,-0.3429220415443181,0.4700818560361862,-0.1507311314344406,-1.5644153356552124,-1.3430343866348269
4.324890380859376,-0.1852286301661282,-0.2484089436352252,0.2969505639642477,-0.2176795303821563,-1.5678033828735352,-1.3648626804351809
4.334855224609376,-0.309993877671659,-0.1270078388005495,0.1000882676929235,-0.2581757307052612,-1.5593276023864746,-1.39580500125885
4.344820068359375,-0.4181999488359317,-0.0540723664492368,-0.1489566357582807,-0.2652623951435089,-1.52351713180542,-1.418148636817932
4.354785400390625,-0.5058927722709253,-0.0680061992555856,-0.2646726806938648,-0.2462288737297058,-1.459699034690857,-1.4330310821533203
4.364751220703125,-0.5773986136779189,-0.0620160189300775,-0.419689639404416,-0.2156179696321487,-1.369523048400879,-1.4526492357254028
4.374716308593751,-0.6497580397069453,-0.0456096585303544,-0.5212731140911578,-0.1633160561323166,-1.2578283548355105,-1.4850952625274658
4.3846811523437506,-0.5867545075768604,-0.0322696999639272,-0.6361059464514255,-0.1033874750137329,-1.163939118385315,-1.520898461341858
4.394646484375,-0.3771182160587981,-0.0565098227292299,-0.7242524319380521,-0.034814316779375,-1.0744487047195437,-1.537999987602234
4.404611328125,-0.022725407353416,-0.1747194380462169,-0.7124573647260666,0.0305260755121707,-0.990739405155182,-1.537981629371643
4.414576171875,0.4652901282476261,-0.4403519036829471,-0.770812523061037,0.0830866396427154,-0.9067606329917908,-1.528587818145752
4.424541015625,0.898414893688634,-0.7172177109956741,-0.7826958530783653,0.114334836602211,-0.83358234167099,-1.5183037519454956
4.434506347656249,1.274062927597016,-0.8942033404082059,-0.8526888422369956,0.1063777208328247,-0.7838371992111206,-1.510963797569275
4.444471191406251,1.566050462326407,-0.9590613047659396,-0.8235410736858845,0.0727100372314453,-0.7399152517318726,-1.507583498954773
4.454437255859375,1.758284075883776,-0.9768407070845364,-0.9053945965081452,0.006531748920679,-0.7374109625816345,-1.4920212030410769
4.464402343750001,1.815037205849588,-0.9233604613095522,-1.0825088207364082,-0.1081527546048164,-0.7965272665023804,-1.471827268600464
4.474367431640625,1.6912718561016022,-0.7159475449293852,-1.2603852615088225,-0.2762624621391296,-0.8841791749000549,-1.4736356735229492
4.484332275390624,1.3401521873153746,-0.2597019065439701,-1.5332611224025487,-0.4565427601337433,-0.977792501449585,-1.512958288192749
4.494297119140626,0.7747350302670151,0.2295832471340894,-1.8797089999854564,-0.5867162346839905,-1.0177589654922483,-1.566556096076965
4.50426220703125,0.1497528641698882,0.7575099738955497,-2.077372091245651,-0.641140341758728,-0.9578431248664856,-1.6194363832473757
4.514227294921875,-0.326040501380898,1.2658294983893632,-2.2207325144320724,-0.5976527333259583,-0.7737906575202942,-1.652004957199097
4.524192138671875,-0.5739299877192825,1.590147377228737,-2.2553397174328564,-0.4508656561374664,-0.4827582538127899,-1.635236382484436
4.534158203125001,-0.5442136254999786,1.7754302948653695,-2.190339714255929,-0.2398618757724762,-0.1597536653280258,-1.5580456256866455
4.544123291015625,-0.270220670209825,1.8503326833754776,-2.142161666542292,-0.0043779839761555,0.1036002114415168,-1.437109351158142
4.5540883789062505,0.1256479486241936,1.8618384122520684,-2.056408798193932,0.2447056472301483,0.2524105906486511,-1.303442120552063
4.56405322265625,0.4824884062100201,1.764004645487666,-1.815587533208728,0.4753865003585815,0.3191683292388916,-1.1766388416290283
4.574018310546876,0.734820733834058,1.6014812566697596,-1.4877163458019491,0.68213951587677,0.3024893701076507,-1.0639196634292605
4.583983154296876,0.8938356030743568,1.4092255774110556,-1.1869663895547389,0.8452115058898926,0.2052877247333526,-0.9881131052970886
4.5939482421874995,0.974180255703628,1.2168798817813395,-0.9252887990236282,0.9501798152923584,0.0574475340545177,-0.9552905559539796
4.603913085937501,0.9416111344017088,1.001193058052659,-0.6896224325835705,0.9905730485916138,-0.0891195386648178,-0.94246906042099
4.613878173828125,0.8567970812734216,0.7132675120651721,-0.4022223717749119,0.9811779856681824,-0.1862493455410003,-0.9334577918052672
4.623844238281251,0.7254970982369036,0.4729904369592666,-0.1826706893116235,0.9254337549209596,-0.2796610295772552,-0.9280193448066713
4.633809326171875,0.4813549452006816,0.3216688256353139,-0.2117167510539293,0.8393830060958862,-0.3740487992763519,-0.934828758239746
4.643774169921874,0.2480402564533054,0.2384650572478771,-0.3035281887888908,0.731041669845581,-0.4709633588790893,-0.9515315890312196
4.653739501953126,-0.0678331807762384,0.1875613839626312,-0.4372638745397329,0.616481363773346,-0.5468910336494446,-0.9816692471504213
4.6637041015625,-0.4486535758212208,0.2489537180364131,-0.5439034635722637,0.4852983355522156,-0.5861388444900513,-1.0193804502487185
4.6736691894531255,-0.83308412418738,0.4038572795003652,-0.6660235303312539,0.3406829535961151,-0.5748406052589417,-1.0588032007217407
4.683634033203125,-1.1752639690622686,0.5809855322539806,-0.7643377740889787,0.218334674835205,-0.5064892172813416,-1.073271870613098
4.693599121093751,-1.5101089410044253,0.7107540679395199,-0.7855711162537335,0.0997480899095535,-0.3868366777896881,-1.058190107345581
4.703564453125001,-1.762179622017592,0.8788345063626766,-0.79520111438632,0.011303449049592,-0.2283362448215484,-1.019045352935791
4.713530273437501,-1.9228626436658205,0.9816472305834292,-0.7758902647167444,-0.0463083907961845,-0.0598252899944782,-0.9573960304260254
4.7234951171875,-2.0274090598113834,1.0989157656580208,-0.8096049027919768,-0.0704880282282829,0.0784452408552169,-0.8775275349617004
4.73346044921875,-2.064233938861638,1.2287509368389844,-0.8554173904180526,-0.0597261227667331,0.1502367556095123,-0.8158616423606873
4.74342529296875,-2.0490937990054485,1.2853805865556,-0.9582523264706134,-0.008319123648107,0.1370282769203186,-0.7864747047424316
4.75339013671875,-1.9876726772286,1.2121066760301589,-1.023822823011875,0.0777812525629997,0.0691179111599922,-0.7805600166320801
4.763355224609375,-1.9343724641956388,1.1316074904263018,-0.9915653980076312,0.1795086711645126,-0.056503128260374,-0.7938151359558105
4.773320312500001,-1.882150840179622,1.0360825851261617,-0.964051368138194,0.2811712622642517,-0.2291234880685806,-0.820831835269928
4.783285400390625,-1.8100958039246495,0.9212228647589684,-0.8763204777151345,0.3878625631332397,-0.4379459321498871,-0.8647971749305725
4.793250244140625,-1.7478535750232636,0.7895803518950939,-0.7886918786227702,0.4804935753345489,-0.657290518283844,-0.9063451886177064
4.8032160644531245,-1.721082472475618,0.6175275027096271,-0.5739578255742788,0.5520529747009277,-0.8443568348884583,-0.9368868470191956
4.813181396484374,-1.7147345647536216,0.4550216495484113,-0.2759434317708015,0.5846138000488281,-1.0029746294021606,-0.9674937129020692
4.823146240234376,-1.7467375766053794,0.3796230019539594,-0.0801730223894119,0.5724956393241882,-1.1525851488113403,-1.007951736450195
4.833111083984376,-1.8655388742052017,0.330376448225975,0.0363104997873306,0.5306209921836853,-1.2748621702194214,-1.0543407201766968
4.8430761718749995,-2.0387461541228,0.3569429681122302,0.2444453007012605,0.4771721959114074,-1.3476375341415403,-1.1101911067962646
4.853041259765625,-2.179434727751464,0.3590238660395145,0.261001883226633,0.4073611497879028,-1.3990622758865356,-1.170933723449707
4.863006347656251,-2.291798539649695,0.3126332862645387,0.2370709725409746,0.3420839011669159,-1.411346435546875,-1.2261545658111572
4.872971191406251,-2.4252082083165645,0.2600076114922762,0.298641585791111,0.2860483825206756,-1.3877084255218506,-1.281344294548035
4.882936279296876,-2.480828680990636,0.2515542559236288,0.3015232787072658,0.2340421825647354,-1.3699930906295776,-1.3533830642700195
4.89290234375,-2.452033671399951,0.2447434068650007,0.2226999173611402,0.1741039305925369,-1.3752784729003906,-1.4463891983032229
4.902867431640626,-2.4134455820694565,0.2430821956545114,0.184777306202054,0.1112618520855903,-1.4047561883926392,-1.5735608339309692
4.91283203125,-2.3410149905003608,0.3101806324154138,0.0776993257522583,0.0651168599724769,-1.4604039192199707,-1.7204523086547852
4.922797363281251,-2.197064784727245,0.3154571115136146,0.0288397255152463,0.0307165421545505,-1.5187280178070068,-1.8691091537475584
4.932762207031251,-2.027203454236686,0.3343061888903379,0.0762280841559171,0.0020717321895062,-1.5673354864120483,-2.01936411857605
4.942727294921875,-1.8073175713829692,0.3559697391659021,0.093412443190813,-0.0319669283926487,-1.6294766664505005,-2.150027275085449
4.952692138671875,-1.6084484653338789,0.3340583516091108,0.1164051962435245,-0.0645411983132362,-1.6932575702667236,-2.256089687347412
4.962657470703126,-1.4002467366635798,0.3235369575947523,0.1608130777686834,-0.0919730886816978,-1.7215139865875244,-2.3554513454437256
4.972622314453126,-1.17728495349586,0.3029039194107055,0.1491091959714889,-0.121309220790863,-1.7598072290420532,-2.4639570713043213
4.98258740234375,-0.9344358359448612,0.392052275416255,0.0772854842543602,-0.1496958583593368,-1.7830712795257568,-2.5704450607299805
4.99255322265625,-0.7235622577168047,0.3574550092875957,0.2260603337049484,-0.1898194998502731,-1.775970697402954,-2.653376340866089
