time,ax,ay,az,gx,gy,gz
0.0,0.5582049606472254,-1.515861659312248,-0.2981500028818845,0.4086350202560425,-0.2246679663658142,0.1845715343952179
0.009964843749997954,0.6577013999268412,-1.5816691794797777,0.1620475879997014,0.5313050150871277,-0.3527479171752929,0.0709996968507766
0.019930175781247783,0.9363593513533472,-1.613177831943333,0.6360644453972578,0.6150254607200623,-0.4670945405960083,-0.044382806867361
0.029895019531252842,1.1322932076681405,-1.6464859350442886,1.2161118200182914,0.6350367069244385,-0.5464527606964111,-0.1191641017794609
0.039859130859376535,1.2954003146581352,-1.6923153738051653,1.6829326284319162,0.6023011207580566,-0.5763028860092163,-0.1214347183704376
0.04982421875000398,1.4233669154882431,-1.605401060461998,2.099526639908552,0.5576516389846802,-0.5097011923789978,-0.0972508192062377
0.05978881835937244,1.569067618190497,-1.4624889655649662,2.288534715548157,0.4994872808456421,-0.4109350442886352,-0.0813309773802757
0.06975415039062938,1.5896034796103835,-1.2869143719941376,2.337943766361475,0.44514200091362,-0.3047422766685486,-0.0654260441660881
0.07971899414062733,1.5360808559983967,-1.1614748054236173,2.275615028220415,0.4020386040210724,-0.2243362963199615,-0.044931698590517
0.08968310546875102,1.443348942417651,-1.1171353129595518,2.0912784515231846,0.4037949740886688,-0.2501716315746307,-0.0108560174703598
0.09964819335937847,1.4048331876710056,-0.9793711023449896,1.7296242369800805,0.4595510363578796,-0.4753695726394653,0.0262876376509666
0.10961279296875404,1.725683244269341,-0.8802461267262697,2.094863908794522,0.4955157041549682,-0.2339145839214325,0.0216329656541347
0.11957812500000387,1.8452371138021348,-0.9069295509904622,1.7501526457458734,0.5601126551628113,-0.1104694157838821,0.0282394625246524
0.12954296875000182,1.7992092298597095,-0.8628075006693601,2.000993200442194,0.639472484588623,-0.0529531277716159,0.0703549608588218
0.13950805664062926,2.032709504307061,-0.9503794011384248,2.0675877793341875,0.6779299974441528,0.0445945337414741,0.1508601903915405
0.14947216796875296,2.277547603718191,-0.9818763631641864,2.0849264521479607,0.6625813841819763,0.166191816329956,0.2610372900962829
0.1594370117187509,2.4420519372202456,-0.911352043607831,2.204431367972493,0.5964416861534119,0.2776894271373749,0.3835426867008209
0.16940234375000074,2.613186648647487,-0.8825818761974573,2.078616538348794,0.5232750177383423,0.3832533955574035,0.5187604427337646
0.1793669433593763,2.696259191870689,-0.7953940066099167,1.9669494765430688,0.461835652589798,0.4731403291225433,0.6665714383125305
0.18933203125000375,2.659142344136536,-0.6033581075817346,1.806722674229741,0.423395037651062,0.512060821056366,0.8101301789283752
0.19929614257812744,2.5906153358772395,-0.4615799851506948,1.5290741921067237,0.4069115221500397,0.5101647973060608,0.946103572845459
0.2092609863281254,2.6360540217548607,-0.4375730866193771,1.310431441181898,0.4220702350139618,0.506263256072998,1.0645595788955688
0.21922631835937523,2.7353935169070955,-0.5643050310879946,1.0967033503055572,0.4659856557846069,0.5085282921791077,1.174907088279724
0.2291909179687508,2.8718679799720643,-0.857414117193222,0.8529875329226255,0.5252732634544373,0.5571986436843872,1.290431261062622
0.23915600585937824,2.922186546845734,-1.0833774202644824,0.645277094900608,0.586870014667511,0.6718453764915466,1.3929630517959597
0.24912109374999858,3.0051471541270613,-1.332203712528944,0.3833610194385051,0.6231989860534668,0.8189914226531982,1.483692646026611
0.2590849609374999,3.1859830292269584,-1.7946458674669266,-0.1991559601664543,0.5398992896080017,0.8654874563217163,1.5286779403686523
0.2690502929687497,3.2309488368958235,-1.816127631434798,-0.7659025391876697,0.3034206926822662,0.8349971771240234,1.427238702774048
0.27901513671874767,3.235421598395705,-1.3957652073353528,-1.0769821662694214,-0.048452228307724,0.816062331199646,1.218559741973877
0.28897998046875273,3.099560006532073,-1.0670961475491525,-1.2034949150294063,-0.4310251474380493,0.8294790983200073,1.0612449645996094
0.29894506835937307,2.871594423727691,-0.7677426140964031,-1.2312848392307758,-0.7884528040885925,0.9324652552604676,1.024140477180481
0.30890405273437693,2.3916489069335163,-0.2186713924974203,-1.1943477319777012,-1.089566946029663,1.0951719284057615,1.0581398010253906
0.3188691406250044,1.7941016775876282,0.5714654242366553,-1.36829910826087,-1.3177683353424072,1.267425537109375,1.0831494331359863
0.3288342285156247,1.196577536856383,1.4216969364494083,-1.6275754828691482,-1.4580754041671753,1.4470826387405396,1.0822136402130127
0.33879907226562267,0.7071848311506211,2.110845321780443,-1.836337475770712,-1.4846923351287842,1.654309868812561,1.0631829500198364
0.34876391601562773,0.4561211717555299,2.482590137705207,-2.0880039598971605,-1.411335587501526,1.8251577615737915,1.0619629621505735
0.35872924804687756,0.440831869219616,2.6343285131365057,-2.202229474014044,-1.2464284896850586,1.9805747270584104,1.0761301517486572
0.36869311523437887,0.5958489740606397,2.518418991455436,-2.23026782001853,-1.0579190254211426,2.060612678527832,1.0990967750549316
0.3786582031249992,0.7674600708279758,2.271144020286202,-2.2791332654744387,-0.8820316791534424,2.042466640472412,1.087261199951172
0.38862304687500426,0.8662995805688202,2.089531315594912,-2.081339825832844,-0.7589848637580872,1.9569971561431885,1.0246286392211914
0.3985881347656246,0.9470959224883466,1.8980156410485505,-1.7914450255990026,-0.683658242225647,1.8424067497253416,0.9331278204917908
0.40855322265625205,1.0591316714759915,1.6852666243374346,-1.4340771100729703,-0.652418315410614,1.7047793865203855,0.8221174478530884
0.41851708984375335,1.073379319471866,1.4528794256985187,-1.1010358265519142,-0.6424136161804199,1.5952260494232178,0.7279666662216187
0.4284821777343737,1.1050634746327996,1.1927630931347608,-0.7130939090639352,-0.6486994624137878,1.5253214836120603,0.6462540030479431
0.43844702148437875,1.0838386080354452,1.027022203575075,-0.3212725197941065,-0.6921804547309875,1.4939508438110352,0.5806275010108948
0.4484121093749991,1.0135374297104776,0.950688613218069,0.0426490551590919,-0.7842118740081787,1.472480535507202,0.508428156375885
0.4583774414062489,0.8367575520031154,0.900256941358745,0.2392214285731315,-0.9011841416358948,1.4510841369628906,0.4377798438072204
0.4683420410156245,0.734766665559262,0.8622133341684937,0.431239791944623,-0.9971711039543152,1.4186385869979858,0.3829160630702972
0.4783061523437482,0.5929654545135796,0.8686009893789887,0.5908545998394489,-1.059296488761902,1.333021640777588,0.3601350784301758
0.48827099609375324,0.4429536106139421,0.8559782391712069,0.7015542779177427,-1.0911574363708496,1.2015235424041748,0.3680209815502167
0.4982360839843736,0.3481061661839485,0.8789248149946332,0.8254267413020133,-1.1014480590820312,1.056593418121338,0.3789556324481964
0.508201171875001,0.0863162013195455,0.9617284781485796,0.953058849480748,-1.1167945861816406,0.923561155796051,0.3725078701972961
0.518166015624999,-0.2512387602336705,1.106829023000598,1.0781798516213894,-1.1188393831253052,0.7978762984275818,0.3396828472614288
0.5281301269531227,-0.5546916918292641,1.1703335269227624,1.219689678505063,-1.101234793663025,0.7466434240341187,0.2881991267204284
0.5380949707031277,-0.8669234115555882,1.261463704395294,1.3776134645730256,-1.0817519426345823,0.755524218082428,0.2354538887739181
0.5480600585937481,-1.1168882063306866,1.2845385827735063,1.38898183080554,-1.0491732358932495,0.7960074543952942,0.1877731829881668
0.5580251464843755,-1.2734829357519746,1.2329802449718117,1.4042583103924988,-1.002661943435669,0.8332077264785767,0.1605239510536193
0.567990234375003,-1.382307321477681,1.1540367643773557,1.416962309142947,-0.936785101890564,0.8610904812812805,0.1327993869781494
0.5779550781250009,-1.504035174048692,1.0633894019857049,1.3295669342845675,-0.8686529994010925,0.803437352180481,0.1293479651212692
0.5879189453125022,-1.7196821041584014,0.9475520687580108,0.9798831435203552,-0.7998555302619934,0.6703237891197205,0.1325629204511642
0.5978840332031226,-1.8972619000718,0.8754512936651706,0.8542501002043486,-0.713324248790741,0.5659759640693665,0.125885859131813
0.60784912109375,-1.9814391896665096,0.8002671656042337,0.6598012948155403,-0.6713360548019409,0.4670411050319671,0.0969210639595985
0.6178142089843774,-1.9377888485103845,0.9127452515318988,0.4189759381771087,-0.694946825504303,0.4019674360752105,0.0433025583624839
0.6277792968749978,-1.8632316201761363,0.9292787454426288,0.0545598577052354,-0.7184399366378784,0.3629372119903564,0.004131187684834
0.6377429199218838,-1.8241159998402,0.8313087850779295,-0.3852162919163703,-0.7067051529884338,0.3100208044052124,-0.0114091746509075
0.6477080078125041,-1.721626223963499,0.7597308648154139,-0.7366711840063334,-0.6843245029449463,0.2678184807300567,-0.0161043293774127
0.6576730957031245,-1.5796329974770544,0.7279425186276436,-0.9685843353927136,-0.6647774577140808,0.2311841994524002,-0.0055645853281021
0.6676381835937519,-1.447030115148425,0.6210664904907346,-1.2375094128340485,-0.6526001691818237,0.2039262056350708,0.0279454383999109
0.6776032714843794,-1.3567439872846003,0.476376572266221,-1.3737486058384178,-0.6218068599700928,0.2163517475128173,0.0960741713643074
0.6875668945312512,-1.2782371445417404,0.4278983725622296,-1.4684072496980427,-0.5969829559326172,0.2486580163240432,0.1855411976575851
0.6975319824218786,-1.2442419359594583,0.3846998668268322,-1.5667811146885156,-0.5645066499710083,0.2878050506114959,0.2675883769989013
0.707497070312499,-1.2839584447979926,0.3618301556318998,-1.63853819091022,-0.5277188420295715,0.304648220539093,0.3271592855453491
0.7174621582031264,-1.2881816154509782,0.3894271876096725,-1.7557073572635649,-0.4690850675106048,0.2682605385780334,0.3405874669551849
0.7274272460937539,-1.2354530648261308,0.3925140477091073,-1.867249331384897,-0.3819997012615204,0.1887966096401214,0.3239935934543609
0.7373920898437518,-1.168897941161692,0.3749447810098528,-1.9737135638505217,-0.2805557548999786,0.059115182608366,0.2822892963886261
0.7473559570312531,-1.0694181607559323,0.3477145365178585,-2.1490847438037397,-0.1492571234703064,-0.0980802997946739,0.2295211404561996
0.7573210449218735,-0.9329179787278176,0.2334843462258577,-2.1584388476043936,-0.0011687520891427,-0.2353086620569229,0.1684162765741348
0.7672861328125009,-0.7689090275272726,0.1027957730859518,-2.1946441334515807,0.1191480681300163,-0.4009522199630737,0.1103297993540763
0.7772512207031284,-0.4742503738924861,0.0066416299715638,-2.224135600873828,0.1957727074623108,-0.5892589688301086,0.0615132339298725
0.7872160644531263,-0.198727505621314,-0.1410004160568118,-2.087318315720558,0.2450888603925705,-0.715520977973938,0.0457630306482315
0.7971799316406276,-0.0577618686169385,-0.3990662458315491,-1.861483022943139,0.2931913733482361,-0.7550961375236511,0.0656960159540176
0.807145019531248,0.0378711732327938,-0.7407783270642161,-1.665938823533058,0.3394336998462677,-0.7137974500656128,0.0963724330067634
0.8171101074218754,0.0889797214403748,-0.8277297575473785,-1.4455243867605925,0.3683075904846191,-0.7100749611854553,0.1034361869096756
0.8270751953125028,0.1211066519327461,-0.765497173257172,-1.2744991270571946,0.4012346565723419,-0.7644167542457581,0.0725379288196563
0.8370400390625008,0.2387618482373654,-0.7586746337607503,-1.125616725578904,0.4336297214031219,-0.8989117741584778,0.0266820192337036
0.8470053710937506,0.3058471332557499,-0.6982645887225866,-0.858137755292654,0.4420224130153656,-1.0733872652053833,-0.0257502943277359
0.8569689941406224,0.3273062470003962,-0.7460515912920236,-0.7029682363688945,0.4001026451587677,-1.284841537475586,-0.092484563589096
0.8669340820312499,0.2981988104596734,-0.70294865488559,-0.6316881300091743,0.2890384495258331,-1.49276864528656,-0.1783624589443206
0.8768991699218773,0.1892081282563507,-0.6026414837449788,-0.5200795203924179,0.1160229966044426,-1.6388520002365112,-0.2861989438533783
0.8868640136718753,0.0931172596365213,-0.4915343939095735,-0.5949748946398496,-0.0843047723174095,-1.7283719778060913,-0.3834621012210846
0.8968293457031251,0.0042960897587239,-0.4084574667721986,-0.8264514081746339,-0.2624240219593048,-1.709816575050354,-0.4348049163818359
0.906792968750004,-0.1820066724449396,-0.3820005447402596,-0.8821125051200389,-0.4068067669868469,-1.587246656417847,-0.4050483405590057
0.9167580566406244,-0.4844815527886152,-0.3528057221770286,-1.1003642109006642,-0.5117223858833313,-1.3323862552642822,-0.3293988704681396
0.9267231445312518,-0.6438583141438663,-0.111407826347649,-1.1507675334483385,-0.5905727744102478,-1.0122056007385254,-0.2585947215557098
0.9366879882812498,-0.6472421844284981,0.100583357733488,-1.2923019102513789,-0.6456815600395203,-0.6995385885238647,-0.1691548526287078
0.9466533203124996,-0.5324845361962914,0.2753510188356042,-1.478604818585515,-0.6470522880554199,-0.4309476017951965,-0.0675597861409187
0.9566171875000009,-0.4761022853694855,0.3957961381196975,-1.5950813264995811,-0.5847702622413635,-0.2410760372877121,0.028064202517271
0.9665820312499989,-0.40717283378914,0.5747235492497682,-1.7674831352531908,-0.4581369459629059,-0.1784358322620391,0.0917273387312889
0.9765471191406263,-0.3218644943378865,0.692810414969921,-1.8787053759008645,-0.2917995154857635,-0.2298200577497482,0.1189413890242576
0.9865119628906243,-0.2866398900911212,0.7860767276883125,-1.7974340368807316,-0.0955977737903595,-0.3465855717658996,0.1155485212802887
0.9964772949218741,-0.2953347262654453,0.8531228497400879,-1.6480951238065955,0.1101437956094741,-0.5137013792991638,0.0883589833974838
1.0064421386718791,-0.2928567187793552,0.8872919535845517,-1.452843185341358,0.3258451819419861,-0.7119444012641907,0.0538422875106334
1.0164060058593734,-0.3729920395068824,0.8667752352565526,-1.102024253067374,0.5457121729850769,-0.875961184501648,0.0228081922978162
1.0263710937500008,-0.5066979146413505,0.8608174958959222,-0.5368529605388641,0.7361188530921936,-0.9850671291351318,-0.009367587044835
1.0363359374999987,-0.6407919853758066,0.8670745104640721,-0.0412941334187984,0.8814572095870972,-1.0497461557388306,-0.0481528379023075
1.0463012695312486,-0.7659164215825498,0.8745867857903241,0.407039416667819,0.984805703163147,-1.0787724256515503,-0.0924614444375038
1.0562661132812536,-0.8779718981839716,0.8495715869992971,0.8663508723646401,1.062188744544983,-1.0636930465698242,-0.1462937444448471
1.0662302246093773,-0.887628199801594,0.8238760047286748,1.2182418177843093,1.117684245109558,-1.023772358894348,-0.210276186466217
1.0761950683593753,-0.828706566690281,0.8774491894841193,1.6311615246623754,1.1556411981582642,-0.9629971385002136,-0.2715267837047577
1.0861599121093732,-0.6744494864363223,0.835569365131855,1.8726614195615048,1.1749259233474731,-0.9256691932678224,-0.334343284368515
1.096125244140623,-0.4034549092445522,0.8324380813688039,2.053953806257248,1.1845260858535769,-0.9111602306365968,-0.4007540047168731
1.1060900878906281,-0.0798588601400144,0.7486150120392441,2.1970395041555166,1.200782299041748,-0.9294891357421876,-0.4646999537944793
1.1160551757812485,0.2611496576668694,0.5913534892722964,2.19625039960444,1.2260656356811523,-1.0035792589187622,-0.513411819934845
1.1260192871093793,0.6397307128198444,0.4208800182327628,2.159354793405533,1.2616885900497437,-1.1179524660110474,-0.5596714615821838
1.1359838867187477,0.9714452047165484,0.2985682282939553,2.039977303352952,1.3070486783981323,-1.265935301780701,-0.6128981709480286
1.1459492187499976,1.2096534376591443,0.1529965587988495,1.941780548495054,1.3524539470672607,-1.4466465711593628,-0.6746259927749634
1.1559140625000026,1.3906243373155591,-0.0300792041823267,1.7831465683311225,1.366807222366333,-1.623760461807251,-0.7430908679962158
1.165879150390623,1.4979185908645392,-0.1867532824501395,1.781345656388998,1.3549513816833496,-1.74525785446167,-0.8243817090988159
1.1758432617187538,1.6069278316378592,-0.3761331140115856,1.7074463074415922,1.322274923324585,-1.817444324493408,-0.8931415677070618
1.1858078613281293,1.7307041411712765,-0.622414105707407,1.6189450171679258,1.2763670682907104,-1.8187106847763064,-0.933465301990509
1.1957731933593791,1.8731582631677388,-0.8671256561294197,1.6085142240464687,1.2053592205047607,-1.7627036571502686,-0.935474932193756
1.205738037109377,2.0843631191767757,-1.1304533519551156,1.5004828883945942,1.103878140449524,-1.6628164052963257,-0.9067721962928772
1.2157031249999974,2.299286557317525,-1.3052309499293564,1.395418001332879,0.963534951210022,-1.5281522274017334,-0.8504396677017212
1.2256672363281282,2.452223056492209,-1.4031757758527994,1.2188549812465903,0.8103733658790588,-1.3741451501846311,-0.7633838653564453
1.2356320800781262,2.5956673585698007,-1.5037123718351124,0.8943249209612607,0.6606124043464661,-1.183441996574402,-0.6505446434020996
1.245597412109376,2.727133053562045,-1.6320359694093465,0.6579407616406678,0.514388918876648,-0.9385032057762146,-0.5172228217124939
1.2555620117187516,2.8101357464194296,-1.764569878154993,0.4259036916136741,0.3735435009002685,-0.6958187818527222,-0.3658892214298248
1.265527099609379,2.8398656987726687,-1.7898878592848777,0.0585322684675455,0.2169235199689865,-0.4344061017036438,-0.2200633138418197
1.275491943359377,2.6769167780190704,-1.732158139371872,-0.1420399882376194,0.0740669146180152,-0.1464546471834182,-0.0810130313038826
1.2854560546875007,2.420561259293556,-1.5989450161904095,-0.5071750306338072,-0.0532255209982395,0.1519871801137924,0.0511673763394355
1.2954213867187505,2.1930673856541514,-1.4843383938014507,-0.7790940291941165,-0.1525955200195312,0.4817117154598236,0.1699952334165573
1.305385986328126,2.030560655710101,-1.327501818448305,-1.1024036077737809,-0.2364384979009628,0.8184971809387207,0.2532267570495605
1.3153503417968793,2.0458079092025754,-1.1596820767879483,-1.5594044484406708,-0.2826777398586273,1.0783060789108276,0.3244036734104156
1.3253154296874996,2.164141150899231,-1.146253270894289,-1.8056226040333507,-0.2854620814323425,1.2861971855163574,0.4125801622867584
1.3352795410156233,2.2884636961385607,-1.025636009913683,-1.8346645741224288,-0.2900238633155823,1.4623510837554932,0.503125786781311
1.3452446289062507,2.493198333220184,-0.9541162495791912,-2.077316561666131,-0.299991250038147,1.5199472904205322,0.5937824845314026
1.3552092285156263,2.72280554575175,-0.9263321705967188,-2.104515534237027,-0.3010251820087433,1.5644795894622805,0.6561880707740784
1.3651743164062538,3.047497810861468,-1.0690011043876408,-1.9900947898089885,-0.304967999458313,1.6145262718200684,0.7266438603401184
1.375139404296874,3.4564182189702986,-1.369763335594535,-2.039015180322528,-0.3256962299346924,1.6022545099258425,0.8209887146949768
1.3851035156249978,3.7465368910878896,-1.6135907966583969,-2.1459972991824148,-0.3503355085849762,1.485421895980835,0.870213508605957
1.3950686035156252,3.883323488841951,-1.6234309304103254,-1.8628513886868956,-0.5080659985542297,1.410987138748169,0.8654672503471375
1.4050334472656232,4.009105292978883,-1.4726064549535511,-1.4879998389184474,-0.8077587485313416,1.3693100214004517,0.8635633587837219
1.4149982910156282,3.831000304147601,-1.0867585871353744,-1.5081997463822363,-1.2095305919647217,1.2491514682769775,0.8601579666137695
1.4249633789062486,3.3404777176290747,-0.1401180802643299,-1.8702122728437185,-1.5701619386672974,1.032349944114685,0.8116234540939331
1.4349274902343794,2.931059881392121,0.935821006692946,-2.169282313179969,-1.7719138860702517,0.8602081537246704,0.7215499877929688
1.4448925781249997,2.3342970804221927,1.944690882983804,-2.689689750352502,-1.7897688150405884,0.7371312379837036,0.6445050239562988
1.4548574218749977,1.5487188037753103,2.968789308066666,-3.317428265953064,-1.580796718597412,0.7500308156013489,0.6335029602050781
1.4648227539062475,1.1483417676061392,3.2973779960930347,-3.309160203823447,-1.3161280155181885,1.0866189002990725,0.8199567198753357
1.474787353515623,1.131494312375411,3.2954014353230594,-3.277179257673025,-0.951365053653717,1.3571361303329468,1.0655438899993896
1.4847514648437539,1.4952449877411127,3.7798888333305714,-3.790937758350372,-0.5464844107627869,1.383426070213318,1.2389806509017944
1.4947165527343742,1.6701625787079333,3.3655113288596272,-3.806368551716208,-0.2187989056110382,1.2980141639709473,1.3812382221221924
1.5046813964843793,1.9372749076388776,3.2684929701313377,-3.2115053007572887,0.0397133380174636,1.1650487184524536,1.4103449583053589
1.514646728515629,1.9016275479353963,3.164223032839596,-2.768817647603154,0.2613976597785949,0.9836176037788392,1.3659037351608276
1.5246113281249976,1.5904419762611388,2.9421961924344298,-2.1112468883186577,0.4601792097091675,0.8510769009590149,1.2979190349578855
1.534576416015625,1.2257576733071356,2.7060046330764886,-1.367810447961092,0.5690995454788208,0.8142290711402893,1.260035276412964
1.5445405273437487,1.0036039185866712,2.2336948718577623,-0.7172779167503118,0.5412601828575134,0.8410689234733582,1.297225832939148
1.5545053710937538,0.7868705814797431,2.4257398309752345,-0.2611655493557453,0.4736400246620178,0.9841588735580444,1.2855252027511597
1.5644707031250036,0.591817088196054,2.511618079268932,0.0415618444442749,0.3774405121803283,1.1593157052993774,1.346980333328247
1.5744355468750015,0.42493327567894,2.4814959127277136,-0.2310492280334234,0.260045439004898,1.3481683731079102,1.4655996561050415
1.5844003906249995,0.3162904570652172,2.7232383842110632,-0.3880839563071727,0.2334196865558624,1.5122230052947998,1.5996264219284058
1.5943645019531232,0.2305399268044158,2.8991297886461016,-0.6088128658562898,0.2841402590274811,1.6523984670639038,1.7239768505096436
1.6043293457031282,0.0852527368064969,3.030715018364787,-0.8643851252496242,0.40003702044487,1.695050597190857,1.8149211406707764
1.614294677734378,-0.0529870554305613,3.057757631330192,-0.9935907663553952,0.558773398399353,1.6612482070922852,1.841390609741211
1.624259521484376,-0.2525208359334617,2.99847249866873,-0.825179488542676,0.7329555749893188,1.585587739944458,1.808906435966492
1.6342246093750035,-0.5164295465175062,2.8103090571597216,-0.6499854187220334,0.8998481631278992,1.4658273458480835,1.745250225067139
1.6441884765624977,-0.6501865673173218,2.609645322778821,-0.3373509634137153,1.0419888496398926,1.3213971853256226,1.6807961463928225
1.6541533203125027,-0.596360942170769,2.3772099010840058,-0.0711783995509147,1.1372642517089844,1.1382650136947632,1.6068164110183716
1.6641186523437526,-0.4716523202233016,2.1933356812015177,0.3394669326543807,1.2022658586502075,0.9450637698173524,1.5526466369628906
1.6740834960937505,-0.4121664773579687,1.992363903784752,0.6065846684128046,1.245166301727295,0.760913074016571,1.5128121376037598
1.684048583984378,-0.4750027996949851,1.8635037151157852,0.7737099980682134,1.2882496118545532,0.627618134021759,1.4912656545639038
1.6940124511718793,-0.5590052441794425,1.7025158653020858,0.8892290591269731,1.320838212966919,0.5269474387168884,1.5094072818756104
1.7039772949218843,-0.7595038511265069,1.6866174544245005,0.8615151227712631,1.3203787803649902,0.4884932339191437,1.5166460275650024
1.713942626953127,-1.1421236968088897,1.5980290703892708,1.0519348187744617,1.3273621797561646,0.6225505471229553,1.4864284992218018
1.723907470703125,-1.6179631665237246,1.6150538549482822,1.1107383053988218,1.328099250793457,0.8482020497322083,1.4040873050689695
1.7338725585937524,-1.8339907665140929,1.5809353122472762,0.9136743490755558,1.3336280584335327,1.0624665021896362,1.3068827390670776
1.7438364257812538,-1.6913675715610383,1.419308580008149,0.546141013365984,1.3298323154449463,1.1587884426116943,1.221873760223389
1.7538012695312517,-1.4224591529935595,1.2789029149740934,0.2710819632142782,1.3534979820251465,1.1489428281784058,1.1547282934188845
1.7637666015625015,-1.1407402796264736,1.097811603808403,0.2808580918192863,1.3464558124542236,1.091463565826416,1.0386033058166504
1.7737314453124995,-0.9896621947348118,0.998774306473136,0.0576361964106559,1.3469094038009644,0.9445570707321168,0.9180870056152344
1.783696533203127,-0.8429846098244189,0.7871171766519546,0.0491413397878408,1.3338526487350464,0.771425187587738,0.8383208513259888
1.7936616210937544,-0.6540080983668566,0.6122621295273304,0.0816319890260696,1.3178646564483645,0.5882042050361633,0.7834258675575256
1.8036252441406262,-0.4879708562090992,0.5207236635148524,0.2232511215031146,1.2849442958831787,0.4195600748062134,0.7516136169433594
1.813590576171876,-0.3229582809239625,0.3747966047108173,0.3322352278351783,1.2236313819885254,0.2651848196983337,0.7439080476760864
1.823555419921874,-0.4227683892626315,0.3451075688898563,0.4722323120683431,1.1548759937286377,0.1374513655900955,0.7079923748970032
1.8335205078125014,-0.6310829306576401,0.3551367954730987,0.597531008863449,1.0778247117996216,0.0592859238386154,0.6372255682945251
1.8434855957031289,-0.8043812498595565,0.342625688946247,0.5188268899828196,0.9820886254310608,-0.0627774000167846,0.5703991055488586
1.8534492187500007,-0.9193502027548848,0.3466296638906002,0.3529752335250377,0.9064046144485474,-0.1890293210744857,0.505223274230957
1.8634145507812505,-0.9559016716912389,0.2468728201091289,0.2576671858459711,0.8630774021148682,-0.2977129220962524,0.45598304271698
1.8733793945312485,-1.0124148554213344,0.1376221717953681,0.1691109505146741,0.8418188095092773,-0.364966332912445,0.4331201016902923
1.883344482421876,-1.0552264807309957,0.0257885212510824,0.1883621789515018,0.8413322567939758,-0.3660368919372558,0.4263308942317962
1.8933095703125034,-1.131080763138458,-0.0436363126307725,0.0487204840272665,0.8377127647399902,-0.3765758574008941,0.4223428070545196
1.9032734374999976,-1.212800211252272,-0.043434068056941,-0.1605319227397441,0.8367276787757874,-0.4042697846889496,0.4130387902259826
1.913238525390625,-1.197672638616711,-0.1839209816336631,-0.2002110221773385,0.8365297913551331,-0.4102897644042969,0.4223822057247162
1.923203369140623,-1.097831769813597,-0.429665674495697,-0.1694131483316421,0.8233351707458496,-0.3719626069068908,0.4306958019733429
1.9331684570312504,-1.049379289072752,-0.5547410839289426,-0.0917184987545013,0.7760527729988098,-0.3153108358383178,0.4104160964488983
1.9431335449218778,-1.0677630139600485,-0.5914823763489723,0.0132101947069168,0.6977153420448303,-0.2496364712715149,0.377407819032669
1.9530974121093791,-1.033338254854083,-0.6931605435818433,0.0513017326921224,0.5890529155731201,-0.2047731578350067,0.3465082049369812
1.963062744140629,-0.943223099642992,-0.8067074277848005,0.076116440474987,0.4772922992706299,-0.1354769170284271,0.317561537027359
1.9730273437499974,-0.8518978379897773,-0.8602373579204082,0.1105360119491815,0.3897929489612579,-0.0650166049599647,0.2777448296546936
1.9829924316406249,-0.6800650612957775,-0.8764251071333885,0.0035468788266181,0.3403319418430328,-0.0019633374176919,0.2237979918718338
1.9929575195312523,-0.3883199935527518,-0.9692419225186109,-0.0329950916290283,0.3077991008758545,0.0468578338623046,0.1697797775268554
2.002921386718757,-0.1059986699136439,-0.9597703298181296,-0.0861246242702007,0.2763871252536773,0.0341452322900295,0.120455116033554
2.012886718750007,0.1072216358373407,-0.8759984061539172,-0.1219055472254753,0.2212079167366027,-0.0150065822526812,0.0900822803378105
2.0228513183593826,0.2641731336738914,-0.9120534698754548,-0.0178846162587404,0.131529152393341,-0.0743687078356742,0.0865485295653343
2.032816406250003,0.2705454634510912,-0.8142506827712058,0.0545405684828758,0.0170526280999183,-0.1496886759996414,0.0825924202799797
2.0427814941406304,0.1286573230406269,-0.6807225022912025,0.1116577094554901,-0.1176338121294975,-0.2320432066917419,0.0842853933572769
2.0527453613281317,-0.1023124100157991,-0.4680202473312616,0.0509147792011499,-0.2503580749034881,-0.337344080209732,0.0705528259277343
2.0627106933593815,-0.4994666847461834,-0.101510409450531,-0.1287514675974845,-0.345109611749649,-0.4316948056221008,0.0294045861810445
2.0726755371093795,-0.9530870526619256,0.3066881141245365,-0.3049614364624023,-0.3942752778530121,-0.5022896528244019,-0.0228325445204973
2.0826403808593774,-1.2895216318830849,0.597352145165205,-0.3953805430561304,-0.4043518602848053,-0.4841146469116211,-0.0648084878921508
2.092605468750005,-1.4986781770601867,0.7899988695681095,-0.3601099077105522,-0.3826647698879242,-0.3669398128986358,-0.0940316393971443
2.102569335937506,-1.465637492723763,0.866375422284007,-0.3341185573637485,-0.3360863626003265,-0.1927166134119033,-0.0990455746650695
2.112534667968756,-1.200749927170202,0.8559060507178307,-0.3519441369116306,-0.2828386127948761,-0.0165569745004177,-0.0586147718131542
2.122499511718754,-0.7552503584004938,0.7967261319965123,-0.2390484100937843,-0.2445149421691894,0.0935479551553726,-0.005145950242877
2.1324645996093814,-0.3686502109102904,0.7252315061032771,-0.0800152014791965,-0.228987231850624,0.1406075954437255,0.0425254255533218
2.1424294433593793,-0.0639619014339987,0.728543991652131,0.0333855522513389,-0.229808822274208,0.1034586355090141,0.0703077912330627
2.1523933105468878,0.1856897083392366,0.7057990758806466,0.1543055955708026,-0.2365676462650299,0.0161038432270288,0.0891219526529312
2.1623586425781305,0.336850758806616,0.721766460341215,0.3024363018989562,-0.2585735917091369,-0.1235139742493629,0.0929379910230636
2.1723234863281284,0.3971686320492997,0.7675771944016218,0.4050970504283905,-0.2901650965213775,-0.2898670732975006,0.0796046182513237
2.182288574218756,0.3456384608961642,0.8402344343334436,0.5765232921481133,-0.3222343623638153,-0.4270987212657928,0.0672970861196518
2.1922536621093762,0.1862476527492515,0.9421212758809328,0.6921545814096928,-0.3559030592441559,-0.5417096614837646,0.0652666687965393
2.202217285156255,-0.0212125368387438,1.0852584117054938,0.7074538573503494,-0.3670707643032074,-0.6111292243003845,0.0507412552833557
2.212182617187505,-0.2010382302490994,1.2242922038644553,0.635278847977519,-0.3411110043525696,-0.669559121131897,0.0273246355354785
2.222147460937503,-0.3179296391069889,1.2849509629666804,0.5646703572690487,-0.2662484645843506,-0.691534161567688,0.0115336887538433
2.2321125488281304,-0.3667280472086742,1.3515508025556802,0.5666220758587122,-0.181598275899887,-0.7139208316802979,-0.0105116972699761
2.242077636718758,-0.3592899696297943,1.4376274960309263,0.5395440993189812,-0.0976354628801345,-0.7354120016098022,-0.0451266653835773
2.2520422363281263,-0.3132830188775435,1.4061153364360333,0.6200310099631547,-0.0138745428994297,-0.7259526252746582,-0.0708091109991073
2.2620065917968795,-0.2323482914006337,1.3036030564665793,0.7135106731712818,0.0401727110147476,-0.7019141316413879,-0.0903809517621994
2.2719714355468774,-0.1069463534267619,1.1631430308967827,0.852124778613448,0.0556936673820018,-0.6567574143409729,-0.1032629534602165
2.281936523437505,-0.0277247500106692,1.005190018734336,1.0193214199393987,0.0515710972249507,-0.569570004940033,-0.1076356023550033
2.2919016113281323,0.1013266138488426,0.7909037094533443,1.1283949581205843,0.0347383059561252,-0.4662751257419586,-0.1019436195492744
2.301865234375004,0.2470247958004474,0.5950386075258255,1.1185749903738498,-0.0043052318505942,-0.389510840177536,-0.096630610525608
2.3118342285156324,0.3179602534409612,0.4693605560243129,1.099881395819783,-0.0521715395152568,-0.3345743119716644,-0.1099043563008308
2.3217990722656303,0.3015548428893089,0.3315069135606289,1.1849778460860252,-0.0968423336744308,-0.2847782671451568,-0.1359500735998153
2.3317641601562578,0.2389647503983229,0.1911982791602611,1.1354536444604395,-0.1444375813007354,-0.271683782339096,-0.178833857178688
2.3417287597656262,0.1102750959906727,0.1101537346333265,1.1562263833761215,-0.1905512809753418,-0.2666440308094024,-0.2282956838607788
2.351694091796876,0.0291731952533125,0.0859825854510068,1.1352280190110209,-0.2364165186882019,-0.2801728248596191,-0.2748099267482757
2.361658203125007,0.0191278212528675,0.0666594608217477,1.0896844114542006,-0.2701049745082855,-0.2868427038192749,-0.2921282052993774
2.371623046875005,-0.0168866181973367,0.0278092134237289,1.0942723237663508,-0.2896785140037536,-0.2714203596115112,-0.2835011780261993
2.3815881347656322,-0.038437209617719,-0.0495271242350339,1.059250694745779,-0.2889344096183777,-0.2284092307090759,-0.2654697000980377
2.39155297851563,-0.0416171548280864,-0.1348234809875488,0.9897633170217276,-0.2743578851222992,-0.1744439899921417,-0.2436509728431701
2.401518310546887,-0.0783685302507132,-0.2528080553770065,0.9226496826916932,-0.2599405944347381,-0.1236641779541969,-0.2255484014749527
2.4114821777343813,-0.1514442147903144,-0.3326408860266208,0.912675985687971,-0.2520539462566376,-0.0742851197719574,-0.2214907705783844
2.4214470214843793,-0.1927615098889917,-0.4208826485812664,0.9269774827629328,-0.2498685419559478,-0.0248006526380777,-0.2066401839256286
2.4314121093750067,-0.2087889905063435,-0.5628887345492839,0.8557868082523346,-0.2591023743152618,0.0176813080906867,-0.1853927075862884
2.4413769531250047,-0.2253299370711669,-0.6957400386810302,0.7655892354547977,-0.2698354423046112,0.0462524965405464,-0.1739522963762283
2.4513410644531284,-0.2555992935307323,-0.811915517821908,0.5721545755445957,-0.2784988284111023,0.0590459518134593,-0.1596812158823013
2.461306152343756,-0.2261134886642918,-0.967074515351653,0.370220382836461,-0.2588172554969787,0.0644737407565116,-0.1336458921432495
2.471270996093754,-0.1903978860301896,-1.159852757179737,0.1984492732018232,-0.2163232266902923,0.0621950700879097,-0.1030871719121933
2.4812360839843812,-0.1564399772509932,-1.2943325392961502,-0.1353437054693698,-0.1487923860549926,0.0268940702080726,-0.0781472027301788
2.491200927734379,-0.1136907496530562,-1.442195534598827,-0.4244289428859948,-0.0602113865315914,-0.0173615999519824,-0.044302687048912
2.501166259765629,-0.0569710835654288,-1.6560545583784578,-0.540411529803276,0.0351023487746715,-0.0398538596928119,-0.001446833834052
2.5111301269531303,0.0739082263736054,-1.89292562443316,-0.5820230586081743,0.1118874102830886,-0.041480578482151,0.044607475399971
2.5210949707031283,0.1283405487090349,-1.99568691072762,-0.6169038178533315,0.1354934126138687,-0.0652114748954773,0.0792003348469734
2.5310600585937557,0.0647885158507153,-1.9996943928033115,-0.7317454180419445,0.1171318665146827,-0.1097698137164115,0.0917840301990509
2.5410249023437537,0.0099249624911695,-2.009566382998228,-0.7913572984397411,0.0909239649772644,-0.1625392884016037,0.0738135501742363
2.5509902343750035,0.1159901491692289,-2.042339940831065,-0.948515945354104,0.0623057372868061,-0.2322193086147308,0.007801525760442
2.560954101562505,0.3242251955872401,-2.079235547029972,-1.1714467488616704,0.034719917923212,-0.2981756925582886,-0.0745628550648689
2.5709189453125028,0.6397388230610639,-2.2542338020175694,-1.2036796239465477,0.014124346897006,-0.3407426476478576,-0.1249746233224868
2.58088403320313,1.0620252740256488,-2.3608131852954624,-1.417102594396472,0.0017076255753636,-0.4480712115764618,-0.1549117416143417
2.590848876953128,1.3578686074003576,-2.251755429205298,-1.6861568511754272,0.0255374610424041,-0.598212480545044,-0.1785715371370315
2.600814208984378,1.446056593941152,-2.00490014475286,-1.8304893342643973,0.0582184456288814,-0.7767659425735474,-0.1851295679807663
2.6107783203125017,1.3960454855814577,-1.681052806034684,-1.963188078182936,0.0803685262799263,-0.975017786026001,-0.170286476612091
2.6207429199218772,1.1819679967455563,-1.2419365816265344,-2.0324024841845034,0.0877673178911209,-1.1536756753921509,-0.1521151959896087
2.6307080078125047,0.7918062112510204,-0.6059487085968256,-2.0282038634508845,0.1009641736745834,-1.2940638065338137,-0.1501550823450088
2.6406728515625026,0.3720196142781525,-0.0426946478664875,-2.0417858140796423,0.1521336138248443,-1.340295433998108,-0.1534861624240875
2.6506381835937525,0.0347222807478159,0.3588216214656829,-1.939479870337248,0.2325718700885772,-1.2785581350326538,-0.1614884436130523
2.660602294921876,-0.2235031235028058,0.6826315507829189,-1.8245120134204624,0.3165298998355865,-1.1393407583236694,-0.1665516346693039
2.6705671386718812,-0.3166507052123546,0.8494932610660791,-1.6260586485654114,0.3908790051937103,-0.9324289560317992,-0.1594391465187072
2.680531982421879,-0.3488794155787676,0.8667501008152961,-1.4685983883559703,0.4284380972385406,-0.687538743019104,-0.1399299055337906
2.690496826171877,-0.3197121386095881,0.8188403486490249,-1.3007003207623955,0.4215194284915924,-0.3979144692420959,-0.1154519692063331
2.7004611816406303,-0.1327991355530917,0.6503022295862436,-1.112695869207382,0.3809480369091034,-0.0898791626095771,-0.0939480140805244
2.7104262695312578,0.144571552541852,0.436564201837778,-0.9644798226833344,0.2968268990516662,0.1927778571844101,-0.0623818188905715
2.7203911132812557,0.4955509360745549,0.2741547947883606,-0.8887012358605861,0.1791750937700271,0.4259911179542541,-0.023529764264822
2.730356201171876,0.8753388462666422,0.1624152522683143,-0.917773016566038,0.0630210414528846,0.5929192900657654,0.0048331851139664
2.7403208007812516,1.1506333856746551,0.1240595103889703,-1.0436848768234253,-0.0346589162945747,0.7029544711112976,0.0303161740303039
2.750285156250005,1.34137266902104,0.1888683749079704,-1.0149719925582408,-0.1145064532756805,0.7860053181648254,0.0534337274730205
2.7602502441406322,1.4828129377998411,0.3786170397818088,-1.0693138235986233,-0.1807379424571991,0.8130390644073486,0.0672283694148063
2.77021508789063,1.507933788922429,0.6310375571459531,-1.0990198105543851,-0.2105952948331833,0.8163027763366699,0.0676209107041359
2.7801801757812576,1.5005476241938769,0.9164777160584926,-0.9707201783776284,-0.1997429132461547,0.809499204158783,0.0576119534671306
2.790144775390626,1.5136431064799427,1.1929109771728514,-0.9452776940852404,-0.1565521657466888,0.7676807045936584,0.0486506819725036
2.8001091308593793,1.5140690768070515,1.4800678768754003,-0.7286234866291285,-0.0917518585920333,0.7257705330848694,0.0571355149149894
2.8100742187500067,1.528679201439768,1.7001958979219198,-0.4594657694756984,-0.0154680348932743,0.6866041421890259,0.0714982226490974
2.8200390625000047,1.502959799902141,1.8881103331059217,-0.229921685308218,0.0604062229394912,0.636524498462677,0.090319313108921
2.830004150390632,1.4527476160123944,2.0011025060355663,0.0061480012357234,0.1325504779815673,0.5910268425941467,0.1256671845912933
2.83996899414063,1.4716650824502109,2.011682936760783,0.3172363961458206,0.1910042017698288,0.5794109106063843,0.1677235513925552
2.849933105468754,1.4463815881118178,2.028297971475124,0.5836141271919012,0.2196446359157562,0.574753999710083,0.2153107672929763
2.8598981933593812,1.3833107994318008,1.9634364999860523,0.7871241909146308,0.2298437356948852,0.5849653482437134,0.2592593431472778
2.869863037109379,1.3457184431403877,1.899866821873188,0.9878817410588264,0.2278531640768051,0.6077392101287842,0.2874622046947479
2.8798281250000066,1.3495116979435084,1.7895412378042934,1.1292308244228362,0.2135099172592163,0.6400476098060608,0.3123454451560974
2.8897929687500046,1.3921625066682697,1.6289789199262856,1.235226854854822,0.1870403587818145,0.6781520247459412,0.3444541096687317
2.899757080078121,1.4231222930774092,1.5132348179399966,1.3273492582350968,0.1444912850856781,0.7193623185157776,0.3707858622074127
2.9097221679687557,1.4037581057853996,1.413539933478832,1.3989660492032765,0.0876441523432731,0.7672224640846252,0.385529100894928
2.9196870117187537,1.3542837346509098,1.323438222271204,1.3789806612730025,0.028851680457592,0.8063336610794067,0.3857549130916595
2.929652099609381,1.35205466042459,1.1876070255458355,1.348705349996686,-0.0355680920183658,0.8382529616355896,0.3960731029510498
2.939616943359379,1.3863469522573053,1.0802928982526063,1.3077449785768984,-0.1035607233643531,0.8732423782348633,0.4161834418773651
2.9495810546875028,1.3752949584975838,1.0040437713086603,1.2754723560035228,-0.166389986872673,0.8939219117164612,0.4378498196601867
2.95954614257813,1.2919739934712648,0.9113865303993224,1.1185580392390488,-0.2188422828912735,0.8901790976524353,0.4626212120056152
2.969510986328121,1.1020761293850838,0.8742173679560422,1.0135551114976409,-0.2536081075668335,0.902618646621704,0.4758749604225158
2.9794760742187556,0.9374689200304448,0.7946049020588397,0.9170575617730616,-0.2741860747337341,0.9150934219360352,0.4909673631191253
2.9894409179687536,0.7614221789032221,0.6611749212563037,0.7814590047597885,-0.3030117452144623,0.9244647026062012,0.5034748911857605
2.9994052734375067,0.5633790753494948,0.5267465770661831,0.6967500925064086,-0.3218448460102081,0.9628735780715942,0.4933804869651794
3.0093701171875047,0.4328109502514824,0.3253273481428623,0.5692571005374193,-0.347855806350708,0.9797402620315552,0.4780784547328949
3.0193349609375026,0.3761309951197356,0.1154804826140403,0.3452203816145658,-0.3838231265544891,0.9750107526779176,0.468463659286499
3.02930004882813,0.3685330142714083,-0.077144029957056,0.2454886722743511,-0.4201339781284332,0.9400014877319336,0.4592736065387726
3.0392651367187575,0.3459332425916567,-0.1935468881130218,0.0960392845630645,-0.455455482006073,0.880050539970398,0.4355664253234863
3.0492292480468812,0.3047776773933321,-0.2232487834155559,-0.0983972458660602,-0.4832961857318878,0.7999379634857178,0.4124744236469269
3.0591943359375016,0.2543426810657605,-0.3159855193018913,-0.3284896115660667,-0.4977901875972748,0.6991444826126099,0.3913662135601043
3.069158935546877,0.1077536877542734,-0.3844342016279697,-0.563780130431056,-0.5010137557983398,0.5995431542396545,0.3550454974174499
3.0791240234375046,-0.0737115438908804,-0.3445890979737043,-0.7038444346815347,-0.4975383579730987,0.527333676815033,0.2962665855884552
3.089089111328132,-0.153903006119281,-0.3770060974538326,-0.8380126666307449,-0.4800039827823639,0.4553200006484985,0.2599016726016998
3.0990532226562557,-0.2235177182837389,-0.4149953441083431,-0.9340350000590084,-0.4674618244171142,0.3813813030719757,0.2366338819265365
3.109018310546876,-0.3336784854460507,-0.3699830669492483,-1.024788453173637,-0.4573011696338653,0.3131552338600158,0.2169414013624191
3.1189829101562516,-0.4276431556921452,-0.3223147223234176,-1.070284129935503,-0.4406265616416931,0.2468408942222595,0.2012426108121872
3.128947998046886,-0.5238588928006589,-0.3171048787206411,-1.148368071091175,-0.4251706898212433,0.1913803070783615,0.1904640048742294
3.1389130859375065,-0.5938168837111443,-0.3886760769814252,-1.1507295395255088,-0.4013242125511169,0.1748340874910354,0.1883230954408645
3.1488771972656373,-0.6854518689006567,-0.4697434178620576,-1.1385668080449105,-0.3708576261997223,0.1907668560743332,0.1749611794948578
3.1588422851562576,-0.7517256914056837,-0.4622966089874505,-1.15898941834867,-0.359637439250946,0.2076542228460312,0.1532087475061416
3.1688071289062556,-0.7873065617442131,-0.4600368473619222,-1.1677689371317623,-0.3538458943367004,0.2267785668373108,0.1316699236631393
3.1787719726562536,-0.7012998647652566,-0.556053335571289,-1.1343640956580638,-0.3518815636634826,0.2607229650020599,0.123753398656845
3.188737060546881,-0.6067527184560895,-0.6548281825780868,-1.2024766778975724,-0.3434095978736877,0.2626914381980896,0.1171455606818199
3.1987011718750047,-0.5359945901438593,-0.7250660864084959,-1.288107381170988,-0.3170339167118072,0.2372763305902481,0.0984733328223228
3.208666259765632,-0.4303997974565252,-0.859704273957014,-1.337021341943741,-0.2771106660366058,0.1941371262073516,0.0804751962423324
3.218631103515637,-0.2649962866250425,-1.1076946999192236,-1.361516316252947,-0.2377949655055999,0.1483485996723175,0.0658192932605743
3.2285961914062575,-0.1829249745999462,-1.2170634216547012,-1.3048545178323985,-0.2071523517370224,0.0604828335344791,0.0490919612348079
3.2385600585937517,-0.2144038895123638,-1.1142466057807203,-1.2127806297689676,-0.2115806490182876,-0.0689188316464424,0.0162160359323024
3.248525146484379,-0.3444658734528347,-0.8805547542840242,-1.1206091265499591,-0.2477716654539108,-0.2447243332862854,-0.031401552259922
3.2584902343750066,-0.5938441370442509,-0.5748819546818733,-1.057954225194454,-0.3088344633579254,-0.4292457103729248,-0.0963227674365043
3.2684550781250046,-0.9337465385064482,-0.2309977901071309,-0.9467273083716632,-0.3725146651268005,-0.5720194578170776,-0.1651098132133484
3.278420166015632,-1.334788176064193,0.1320019938260316,-0.9466688561826944,-0.4127411842346191,-0.6768732070922852,-0.2292986661195755
3.2883840332031262,-1.7101932680621743,0.4957026195049285,-0.923269275894761,-0.4169187545776367,-0.7198964953422546,-0.2944888472557068
3.2983491210937537,-2.012734783901274,0.8039864783883094,-0.8460287998259067,-0.4016790688037872,-0.6910629868507385,-0.35749152302742
3.308314208984381,-2.2092462209083137,1.025747653594613,-0.6153045659631491,-0.3618657290935516,-0.5534578561782837,-0.3854885399341583
3.3182792968750014,-2.227108040813357,1.0619815810143949,-0.3561877658307552,-0.3081095814704895,-0.3508298993110657,-0.3639933466911316
3.328244384765629,-1.994668527465313,0.9346844038784504,-0.2278296814650297,-0.2528666853904724,-0.129675880074501,-0.3091644644737243
3.33820825195313,-1.6278535691581666,0.7992565272569656,-0.1936930185854435,-0.1995243728160858,0.0237520262598991,-0.2465889751911163
3.3481730957031353,-1.2793860223159192,0.7142354803144931,-0.1906453214526176,-0.1423049569129943,0.0954382717609405,-0.2006867527961731
3.3581381835937556,-0.9784184047300368,0.6140653795570135,-0.0739408500015735,-0.0821827724575996,0.0990862697362899,-0.1655988097190857
3.368103271484376,-0.6915678675629198,0.5243003529578447,0.0364338339060544,-0.0423282496631145,0.0300094652920961,-0.1516395360231399
3.3780683593750034,-0.4960717816108837,0.4561012614786625,0.1183370410889387,-0.0263828374445438,-0.0971796438097953,-0.1581016927957534
3.388032470703127,-0.4158070623500272,0.4119207589685916,0.2453156537950038,-0.0291681755334138,-0.2471964955329895,-0.1723661571741104
3.3979970703125026,-0.3885146758746355,0.3743605513811111,0.3982949691981077,-0.0466004312038421,-0.3997836410999298,-0.1830347776412964
3.4079624023437525,-0.4357134302273392,0.3732768477976322,0.5228109911829233,-0.0889977514743805,-0.5404329895973206,-0.1979108899831771
3.4179272460937575,-0.5528345561878756,0.4110720331847667,0.672610507506132,-0.1340046525001526,-0.6366015672683716,-0.2098098993301391
3.427892333984378,-0.7487806509297341,0.4829056817740201,0.7897942869067192,-0.175999715924263,-0.6878027319908142,-0.2205435335636139
3.4378564453125016,-0.9681871527686716,0.6260019010663033,0.9250421307861804,-0.2040819376707077,-0.6577396392822266,-0.2403697073459625
3.4478212890625066,-1.144017182405293,0.7567483418732881,0.9954641590118408,-0.2279338836669922,-0.6041055917739868,-0.2564660906791687
3.457786376953127,-1.2409107457101345,0.8567664669394492,1.0322001907348632,-0.2383351176977157,-0.5248528718948364,-0.2728360295295715
3.467751220703132,-1.2497770659938454,0.9104986416488884,1.095327385777235,-0.2280262857675552,-0.4592252373695373,-0.2985472679138183
3.4777163085937524,-1.198119797862321,0.9673381347239016,1.1027402923822405,-0.2007587105035781,-0.410344511270523,-0.3394882977008819
3.487680419921876,-1.0578750224784017,0.9895137261748314,1.2542378447949885,-0.1675253063440323,-0.3695011436939239,-0.3847508430480957
3.497645263671881,-0.8474501378659158,0.9269383197963236,1.3754361205339432,-0.13444884121418,-0.3556694984436035,-0.4252300858497619
3.507610595703131,-0.5985960442790761,0.8801239616513252,1.523086934390664,-0.1137109994888305,-0.3610018491744995,-0.4628134369850158
3.5175751953125065,-0.3781325807331129,0.8711515506446361,1.627577236434817,-0.0974936783313751,-0.3891727924346924,-0.5008534789085388
3.527540283203127,-0.19775226738099,0.8188520390868187,1.708384465074539,-0.0743563249707222,-0.4437852501869201,-0.5401239395141602
3.5375043945312576,-0.0254967352302744,0.7497276494562626,1.755582269579172,-0.0506858825683593,-0.5240606069564819,-0.5718278288841248
3.5474692382812556,0.1376712351014837,0.6782762781828642,1.719770366963744,-0.0520168133080005,-0.6447625160217285,-0.5942236185073853
3.5574345703125054,0.2554722330849617,0.5549538498967885,1.7270745524972675,-0.0679403841495513,-0.7445527911186218,-0.6099367737770081
3.567399169921881,0.2326922094674781,0.4574532606095075,1.84475166837275,-0.1047123670578002,-0.8080928921699524,-0.6244001984596252
3.5773642578125013,0.1711586768247187,0.3639677521824837,1.9346803611010317,-0.1576557457447052,-0.8284903168678284,-0.634125292301178
3.587328369140632,0.0779064656969159,0.3036234658569097,1.9273112936377523,-0.2248521149158477,-0.8241927027702332,-0.6459986567497253
3.59729321289063,-0.078020520530641,0.2614765150010585,1.849533641952276,-0.2958429455757141,-0.7945926785469055,-0.6721588969230652
3.607258544921887,-0.1945124817421659,0.2063303818404674,1.7075532749474047,-0.3583633005619049,-0.7461910843849182,-0.7125044465065002
3.617223388671878,-0.2691168736863881,0.0690220982998609,1.4954045622169971,-0.4131024479866028,-0.6855785846710205,-0.7537258863449097
3.627187255859379,-0.2594996619701385,-0.058117257925868,1.378144210448861,-0.4643671214580536,-0.5970341563224792,-0.7988414764404297
3.6371523437500066,-0.2020125917065888,-0.2230371864914894,1.2596347354024648,-0.5176593661308289,-0.4959906041622162,-0.829228937625885
3.6471171875000046,-0.0138959119487553,-0.4702501983404159,1.1798895830363034,-0.5889089703559875,-0.3892942070960998,-0.8319352865219116
3.6570825195312544,0.2124663273122161,-0.7327858670055866,1.084094628623128,-0.6743291020393372,-0.2827086448669433,-0.8135360479354858
3.6670473632812524,0.3690505353394895,-0.975825392562151,0.8712333837091922,-0.7620275020599365,-0.1895809471607208,-0.7777857780456543
3.6770112304687537,0.5846632343860343,-1.2248293794810772,0.6202367616683244,-0.8387952446937561,-0.1033925414085388,-0.7107279300689697
3.686976318359381,0.7578254695855081,-1.4504647657722234,0.3346645008087158,-0.8933030366897583,-0.0359908901154994,-0.6248084306716919
3.696941162109379,0.8585223706960677,-1.6075906794607635,0.0351379488766193,-0.915380358695984,0.0147306118160486,-0.5326601266860962
3.706906494140622,0.9051907444991172,-1.7237421932041643,-0.2147135947823524,-0.9073411822319032,0.0464119166135787,-0.435057133436203
3.716871337890627,0.8689028949350118,-1.7626333571344612,-0.6515186196386814,-0.8641910552978516,0.0633293837308883,-0.3425732851028442
3.726835205078121,0.8030815654378384,-1.76108788125813,-1.0441910727798938,-0.7623181343078613,0.0990833938121795,-0.2503437995910644
3.7368002929687556,0.7759935058955103,-1.7713608534693717,-1.4966630378454924,-0.6126444935798645,0.1441704481840133,-0.1735206395387649
3.7467651367187536,0.8504353642217815,-1.8983119936466213,-1.933944448041916,-0.4219658374786377,0.1905099600553512,-0.0893729776144027
3.7567304687500034,0.949638811904192,-2.00042387612164,-2.136302419120073,-0.2496950030326843,0.2143260687589645,-0.0142798256129026
3.7666953125000013,0.9530541002403944,-1.957712277120352,-2.2800550564944744,-0.1278380453586578,0.195789635181427,0.0282591003924608
3.776659423828132,0.9368560488291084,-2.028346486791968,-2.367138881185651,-0.0520791038870811,0.1725863218307495,0.0363468527793884
3.78662426757813,1.0082552515238523,-2.1905226696074007,-2.2868431091994044,-0.0225084275007247,0.186537280678749,0.0213455334305763
3.796589111328121,1.1056876709457486,-2.39157131165266,-2.189961528593302,-0.0526793785393238,0.253437727689743,0.0110231218859553
3.806554443359378,1.2607263300314544,-2.595321613872051,-2.049317378628254,-0.1375758945941925,0.378860592842102,0.0071069407276809
3.816519287109383,1.4018869050860403,-2.8459529097318645,-2.0091350058436395,-0.2666997909545898,0.5407781600952148,0.0262252427637577
3.8264833984375066,1.52527655338943,-2.8603771564036604,-1.9889725077807905,-0.4341752231121063,0.7009636759757996,0.0485952608287334
3.836448486328127,1.4991919718012212,-2.611197228395939,-2.171651964920759,-0.629249095916748,0.8042181730270386,0.0586343146860599
3.8464130859375025,1.28706415572837,-1.9766572160869835,-2.425544892925024,-0.8044650554656982,0.863058865070343,0.0480384267866611
3.8563784179687524,1.0206822599638252,-1.1738511796548965,-2.57682324962914,-0.9182243943214417,0.9124122858047484,0.0275278240442276
3.8663422851562537,0.8288127304784954,-0.382393343450129,-2.6407114921718837,-0.9401819109916688,0.962537944316864,0.0138609800487756
3.876307373046881,0.7214842823989689,0.3477370406106114,-2.639638894504309,-0.8536337018013,1.011339545249939,0.007959415204823
3.8862724609375014,0.7417668997101485,0.9626032151564956,-2.665082547840476,-0.6799608469009399,1.0241913795471191,0.0199154131114482
3.896237060546877,0.8509880296684801,1.3896896868139506,-2.602574946001172,-0.4389743506908417,1.003118872642517,0.0582161992788314
3.906202392578127,1.0014577003382146,1.5939958693504332,-2.431491234108805,-0.1720232218503952,0.936478316783905,0.1322299838066101
3.916166259765628,1.1503371792070567,1.6947043147683143,-2.21700677190721,0.0865193828940391,0.8383238315582275,0.2026921659708023
3.9261313476562556,1.2190901782419532,1.6880340432241558,-1.9283347914665936,0.3049782216548919,0.7035107612609863,0.2562707066535949
3.936096435546876,1.259052259339392,1.5926336410865187,-1.5858979030907152,0.4728324711322784,0.5715974569320679,0.2846448123455047
3.946061279296881,1.2675621674008666,1.41556734765321,-1.2039151862680912,0.5774601697921753,0.4583092331886291,0.2872504591941833
3.9560263671875013,1.243848844988644,1.2413672573059795,-0.8363239828914404,0.6177442073822021,0.3766058385372162,0.2858994305133819
3.9659902343750026,1.2333631068095563,1.0587746016666293,-0.4781394902855158,0.6176983118057251,0.3256972134113312,0.2850115299224853
3.975955322265637,1.231110943968594,0.96789138469249,-0.1361760646402836,0.573999285697937,0.3138195276260376,0.2918204367160797
3.9859204101562575,1.1866460715591909,0.9601374095648526,0.1294616616934537,0.5030149817466736,0.330211341381073,0.3104774951934814
3.9958852539062555,1.1406949061147869,1.0026689758241176,0.3834972130388021,0.440321534872055,0.3680242300033569,0.3414428532123565
4.005850585937505,1.0980207165144382,1.1422177317678928,0.5592272894322872,0.3876842260360718,0.4212143719196319,0.3742314577102661
4.015814208984377,1.0277180038195102,1.2881003669083118,0.7117214516669511,0.3559598326683044,0.4744965136051178,0.4192029237747192
4.025779296875005,0.930046807205677,1.4214210421174764,0.8591647602528333,0.3543497920036316,0.5226404666900635,0.4662776887416839
4.035744384765632,0.8427446635887026,1.5596026013612747,0.9989572618246078,0.3642407655715942,0.5436839461326599,0.5105194449424744
4.045709228515637,0.760709938980639,1.6708207503557204,1.1606558902561663,0.3789254128932953,0.5435129404067993,0.5523737072944641
4.055674560546887,0.6939307242367416,1.7190367919921874,1.4034417333126068,0.3972362577915191,0.5273177027702332,0.5961475372314453
4.065638183593752,0.5900637417227029,1.786224660602212,1.590185955673456,0.4080572128295898,0.4881915152072906,0.6284192204475403
4.075603271484379,0.4881984544198959,1.8459166204988957,1.7272113306194543,0.4156493544578552,0.4352169930934906,0.6514531373977661
4.0855683593750065,0.3901940072637051,1.8451830455273388,1.8960440487146375,0.4203588664531708,0.3781734108924866,0.6709302067756653
4.0955332031250045,0.292126066417247,1.831501141655445,2.042278566032648,0.4187990427017212,0.3241647481918335,0.6808943748474121
4.105497314453135,0.2060873668648302,1.77479550409317,2.114754019656777,0.412768006324768,0.2674133479595184,0.6838750839233398
4.115462158203126,0.1103632857307791,1.666953553533554,2.1715391521960496,0.3941040635108948,0.2309810221195221,0.6828742623329163
4.1254272460937536,0.0031957273013889,1.5716957747370004,2.2762241000294683,0.3730813562870025,0.2285697907209396,0.6774858236312866
4.135392333984381,-0.0484592027425766,1.415005914378166,2.298031442689896,0.3380831778049469,0.2406256645917892,0.6727408766746521
4.145357177734379,-0.0418062476594001,1.275712594500184,2.269309206074476,0.3005818426609039,0.2637093663215637,0.6691306829452515
4.155321289062503,-0.0217914144389331,1.1108026028066873,2.2111381721347567,0.2607803642749786,0.277847021818161,0.6741227507591248
4.16528637695313,0.0370521119348704,0.9655570965260266,2.1597575289875266,0.2217766493558883,0.2795817852020263,0.6863424777984619
4.175251220703135,0.0929199834987521,0.8847568821489811,2.100487593895197,0.1684375256299972,0.2632736563682556,0.6897984743118286
4.1852163085937555,0.1014648167431354,0.7948796273469925,1.973714148372412,0.1168797761201858,0.2124863862991333,0.681772768497467
4.195181152343753,0.0667237582296133,0.7188631401151419,1.7895558508515357,0.0560425221920013,0.1537711471319198,0.6514889001846313
4.205145263671877,0.0314729235630482,0.6151473295748233,1.6173457652777432,-0.0025550727732479,0.0868058130145073,0.6087539196014404
4.215110351562505,-0.012161197110638,0.4291992260277271,1.370025785923004,-0.0642080530524253,0.0340094454586505,0.5542102456092834
4.2250751953125025,-0.0451308620374649,0.2361164482951164,1.0783014321744442,-0.1212903559207916,0.0134963672608137,0.4904075264930725
4.23504028320313,-0.0785118842441588,0.029847441253066,0.8166179964244366,-0.1977007091045379,-0.0078496681526303,0.4429337680339813
4.245005126953128,-0.1055987747427076,-0.1161965219289064,0.5164975702524185,-0.2975974082946777,-0.0258116275072097,0.4085806012153625
4.254969238281252,-0.1542903249364346,-0.1981599348664283,0.3335270212113857,-0.4156630635261535,-0.0208589471876621,0.3794786632061004
4.264934326171886,-0.2401173544995486,-0.1893885993897914,0.1051227547287941,-0.5309022665023804,-0.0181222204118967,0.3414564430713653
4.2748994140625065,-0.3613886589420959,-0.1841162119448184,-0.2565834822624921,-0.6212377548217773,-0.0071068536490201,0.3134967088699341
4.2848642578125045,-0.4355149485131725,-0.1640782170444726,-0.5002291570186614,-0.677518367767334,0.0145555641502141,0.284881055355072
4.294828125000006,-0.5137440337605774,-0.0781856479644775,-0.7694108395695686,-0.6941109299659729,0.0301600899547338,0.2624233961105346
4.304793212890626,-0.5930365835210308,0.0077238722503185,-1.039076506245136,-0.6744260191917419,0.0176358800381422,0.2344487458467483
4.314758789062505,-0.6676381259210408,0.1162888763874769,-1.3210130409508942,-0.6268473267555237,-0.0180893614888191,0.2028530091047287
4.324723876953133,-0.7718425967611372,0.2621896317064762,-1.4585007727116346,-0.5538461208343506,-0.0703567266464233,0.1693829447031021
4.334688720703131,-0.8875305846460163,0.3688929336249828,-1.602640948098898,-0.4854359030723572,-0.1486414223909378,0.1218452602624893
4.344652587890632,-0.9419295527011156,0.3835299462646245,-1.644116283303499,-0.4164321720600128,-0.1836101859807968,0.0602689683437347
4.3546176757812525,-0.926747765660286,0.3204571117579937,-1.5652420685529709,-0.352652907371521,-0.1861029118299484,0.001780358608812
4.364582763671887,-0.8739891121581196,0.3037228345781564,-1.524004633757472,-0.2956982851028442,-0.1768385767936706,-0.0318692103028297
4.374547851562507,-0.7218868718504905,0.2427741526186466,-1.4034931712388992,-0.2577887177467346,-0.1591013818979263,-0.0458936840295791
4.384512695312505,-0.505383872900717,0.1450391700536012,-1.265640113297105,-0.2311545759439468,-0.1505022644996643,-0.0427916422486305
4.394476562500007,-0.3404998558986932,0.0498147090047597,-1.2107219436734915,-0.1995204836130142,-0.1601775288581848,-0.0332766994833946
4.404441650390627,-0.2204129024025052,-0.0901221694737672,-1.11835053396821,-0.1584373414516449,-0.1673405021429062,-0.0349856615066528
4.414406738281254,-0.1193221796687692,-0.2941483660250902,-1.0175421353071927,-0.1063949093222618,-0.166119173169136,-0.0374741181731224
4.424371826171882,0.0523141246050596,-0.6123568220734595,-0.9594096798121928,-0.0386511981487274,-0.1789669394493103,-0.0358754023909568
4.434336669921887,0.1819462474945932,-0.8146715385317802,-0.8440823419332504,0.0055940272286534,-0.2332538813352584,-0.0534448064863681
4.444300537109381,0.1876630542388185,-0.7829056964367628,-0.7311918758124113,-0.0013071210123598,-0.3625652492046356,-0.0989886075258255
4.4542656250000014,0.0924355244500562,-0.7156108603209257,-0.6409381889134645,-0.0799281597137451,-0.5647929310798645,-0.1556446999311447
4.464230712890622,-0.1280119926081039,-0.6492465830534696,-0.5909855327427387,-0.2232902646064758,-0.7913752198219299,-0.2269473671913147
4.474195800781256,-0.4961645379282534,-0.4683662842899561,-0.5710322935163974,-0.4028626978397369,-0.9616340398788452,-0.3200892806053161
4.48415991210938,-1.0028862718366085,-0.1935807903826236,-0.5741051250904798,-0.5689372420310974,-1.0305097103118896,-0.3973856568336487
4.494124755859371,-1.5454840596377848,0.0521755929172039,-0.564503768530488,-0.6896040439605713,-0.9745633006095886,-0.4374675750732422
4.504089599609376,-1.9170815760463475,0.3349704980179667,-0.3972679642379284,-0.7803617715835571,-0.7662101984024048,-0.442303866147995
4.514054687500003,-2.174412369544804,0.5727203927338123,-0.2270996136248111,-0.8249965906143188,-0.4402720332145691,-0.4036305248737335
4.524019775390631,-2.166002414726466,0.5839923128545284,-0.2061176158726215,-0.838076114654541,-0.0730072483420372,-0.3070304691791534
4.5339838867187545,-1.936159639873356,0.5593652365982532,-0.2290232751637697,-0.8234729170799255,0.2573200762271881,-0.2069523483514785
4.5439487304687525,-1.569741718059778,0.5507192810669541,-0.3227753255724906,-0.7865949869155884,0.4740123450756073,-0.1196273267269134
4.55391381835938,-1.202633183633536,0.4396969469055533,-0.3960562503606081,-0.7380895018577576,0.572998583316803,-0.0374549515545368
4.563878662109378,-0.922686653701216,0.3264382319942117,-0.3628904783397912,-0.7007426619529724,0.5569554567337036,0.0199223328381776
4.573843750000005,-0.7746273321088403,0.2697089212954044,-0.3599216916620731,-0.6727398037910461,0.4391928911209106,0.0393604785203933
4.583807861328129,-0.7681403812423347,0.2165133376806974,-0.3618231413692235,-0.6356256008148193,0.258491575717926,0.022522646933794
4.593772705078127,-0.9417459397625176,0.2945803277015686,-0.2834896093666553,-0.620705783367157,0.0558918602764606,-0.0391817279160022
4.603737792968754,-1.178614375468716,0.2975631429046392,-0.2696235810995102,-0.5981754660606384,-0.118444874882698,-0.1086303070187568
4.613702880859382,-1.464521932697296,0.2891819757893681,-0.1285720193773508,-0.5700242519378662,-0.2419963777065277,-0.1859892755746841
4.62366772460938,-1.643853394583613,0.2614218622043728,-0.0354956762731075,-0.5373977422714233,-0.3152095675468445,-0.2593617439270019
4.6336318359375035,-1.7365344547599553,0.2228130223467946,0.1565033978760242,-0.5024634599685669,-0.333025574684143,-0.3091199994087219
4.6435966796875014,-1.7849939497634768,0.1975119923517108,0.3679097678065299,-0.4705240130424499,-0.3050482273101806,-0.3283578753471374
4.653561767578122,-1.8359031760066744,0.1903179891943931,0.549881953459978,-0.4348219633102417,-0.2482533901929855,-0.3416267931461334
4.663526855468756,-1.8624460227563977,0.2315153842404484,0.6758394064247608,-0.3927391767501831,-0.1808934360742569,-0.3649433255195617
4.673491943359377,-1.862133157414943,0.2641746680438518,0.7845487874686717,-0.3278976082801819,-0.1071784719824791,-0.3999223709106445
4.683455810546878,-1.8006855860225854,0.2802972430661321,0.8584306007593869,-0.2461080700159073,-0.0613245889544487,-0.4504161477088928
4.693420654296876,-1.65735628862679,0.27877164093405,0.88522508418262,-0.1549238264560699,-0.058587659150362,-0.5191813707351685
4.703385742187503,-1.4210450484119357,0.262449159425497,0.9695312608540058,-0.0650189742445945,-0.0954397469758987,-0.5953893065452576
4.713350830078131,-1.1222530212994664,0.2373541733965277,1.0678455046117306,0.0232640206813812,-0.1807352006435394,-0.6728814840316772
4.723314697265632,-0.8463764442197979,0.1960793292000889,1.160082474282384,0.1024855971336364,-0.2971271872520447,-0.7390468716621399
4.7332797851562525,-0.5938958672314882,0.1662467932552099,1.269869713690877,0.1814059764146804,-0.4253077805042267,-0.8055590987205505
4.7432446289062575,-0.4132091182786971,0.1722615235000848,1.3388526490241288,0.2423655986785888,-0.5770527720451355,-0.8676466941833496
4.753209716796878,-0.2932608973997644,0.1529141412124037,1.417842599108815,0.285917580127716,-0.6991598010063171,-0.921278476715088
4.763174804687505,-0.2265008257477544,0.1135243801102042,1.5901105523496866,0.3102392852306366,-0.7762153148651123,-0.9656158685684204
4.773138916015636,-0.2055471773072145,0.1061325162932276,1.6542495547831058,0.296198308467865,-0.8179190754890442,-1.0000038146972656
4.783103759765627,-0.1572245882900431,0.0843216665014624,1.6911042444497346,0.2770512104034424,-0.8223960995674133,-1.0296622514724731
4.793068603515632,-0.0838667258081957,0.0621384762659668,1.6720166821420193,0.2510882914066314,-0.8087956309318542,-1.057561278343201
4.803033691406252,0.0291597489665611,-0.0220417359381914,1.582959511551261,0.2164844572544098,-0.7768447399139404,-1.063687443733215
4.812998779296887,0.1643016688031144,-0.1874886109873652,1.5887544615656135,0.1695931106805801,-0.7107765078544617,-1.0508934259414673
4.8229628906250035,0.3096455391580239,-0.318403101837635,1.5447165823966265,0.1059814319014549,-0.6131690144538879,-1.0306148529052734
4.8329277343750014,0.4421147851696237,-0.436286261679232,1.4609125100284814,0.0321346372365951,-0.5099592804908752,-0.99525386095047
4.8428925781250065,0.5988630611848086,-0.5881088082626461,1.3457564370632171,-0.0644562914967536,-0.3999879062175751,-0.943237841129303
4.852857666015627,0.8435442895337939,-0.7500038360491394,1.2891367242187262,-0.1657725274562835,-0.279058039188385,-0.8783478140830994
4.86282202148438,1.0783730361059307,-0.9568111877515912,1.1140963836550712,-0.2711400687694549,-0.1874435544013977,-0.7972604036331177
4.872786865234378,1.3284800158306955,-1.1216302862912415,0.9228168559521436,-0.3747855126857757,-0.1145464554429054,-0.7013400197029114
4.882751953125005,1.5408666289702058,-1.2604592035278677,0.7176192775338888,-0.4562927782535553,-0.07110246270895,-0.597840428352356
4.892716552734381,1.6962950910910963,-1.3446891000926493,0.4368015177249908,-0.5096641182899475,-0.0631004646420478,-0.4870822727680206
4.902681640625001,1.719566807215661,-1.3671885166704654,0.0835246709048748,-0.5266340970993042,-0.0744752362370491,-0.3779664635658264
4.9126459960937545,1.6869608610346911,-1.3019509053453802,-0.2852016739815473,-0.4947824776172638,-0.0916757956147193,-0.2881920933723449
4.9226108398437525,1.6840211543209849,-1.2158704124778508,-0.7853706252455711,-0.4115055501461029,-0.122046910226345,-0.2070903182029724
4.93257592773438,1.752756690764427,-1.2961150387987497,-1.194374035462737,-0.2762041687965393,-0.1578086465597152,-0.1230569258332252
4.942540771484378,1.7626354029610751,-1.268273092149198,-1.5908137321829794,-0.1257341355085373,-0.2168776094913482,-0.042077649384737
4.952505615234383,1.7601147984422745,-1.184275250774622,-1.7683400443434714,0.0132463816553354,-0.2830627858638763,0.0164453145116567
4.962469970703129,1.800822656405717,-1.2057023619458078,-1.8789888690173624,0.1215203404426574,-0.3409286141395569,0.0574510991573333
4.972434814453127,1.81944844642058,-1.288674367403984,-1.8941613037079568,0.185062825679779,-0.3680321276187897,0.0779236182570457
4.982399902343754,1.853467182008922,-1.4098483854845163,-1.843199762755632,0.2124163657426834,-0.3485987186431885,0.0830480307340622
4.992364746093752,2.013820533311367,-1.607191451010108,-1.8490543340027328,0.2100600004196167,-0.2847917675971985,0.0926657766103744
