time,ax,ay,az,gx,gy,gz
0.0,0.6251208073828369,0.911441475456953,1.271471303668618,-0.0572936236858367,0.3280593454837799,0.7153719067573547
0.009966308593746476,0.5432407618798315,0.8967068476617336,1.2293044790685177,-0.0749123021960258,0.3697077333927154,0.6907467246055603
0.01993115234375864,0.5381901274267584,0.8505033148914575,1.214625965374708,-0.0829374119639396,0.4157297313213348,0.6839027404785156
0.02989624023437898,0.588949898729287,0.8048296512141824,1.145979130128026,-0.0886557549238205,0.4455291926860809,0.6821684837341309
0.03986132812499932,0.6564426320374012,0.7142363570973277,1.0723901623040435,-0.0898575261235237,0.4535511136054992,0.6791224479675293
0.04982641601563387,0.7019637355014682,0.5980801671788096,0.9393278457701204,-0.0805316716432571,0.4233314096927643,0.6623232364654541
0.05979223632812136,0.7395549958143383,0.4888610830470919,0.8706757498264313,-0.0678676664829254,0.3991349041461944,0.6422389149665833
0.06975732421875591,0.7206982465878129,0.3882163505151867,0.8464122461855411,-0.0609487742185592,0.3743214309215545,0.6133894324302673
0.07972216796875387,0.68619399250485,0.3262579069912433,0.8335264611274004,-0.0626245141029357,0.3622004389762878,0.5907329320907593
0.0896872558593742,0.6357457348369061,0.2657631062790751,0.8231897760301828,-0.0787811204791069,0.3665957450866699,0.5718077421188354
0.09965209960937216,0.583713203652203,0.2575400523349642,0.7543044558525085,-0.1070015728473663,0.3762784302234649,0.5510108470916748
0.10961816406249625,0.5597689950935543,0.2322299622505903,0.667034168678522,-0.129199281334877,0.3871662318706512,0.5416724681854248
0.1195832519531308,0.5497972708512098,0.1899155458733439,0.5536281542509794,-0.1421294659376144,0.3932124078273773,0.5424621105194092
0.12954833984375114,0.4990514550087973,0.2032984667986631,0.4348573979198932,-0.1569102704524994,0.3959314823150635,0.5383544564247131
0.1395131835937491,0.4044611636776477,0.1827469694182276,0.2775461907923221,-0.1595924794673919,0.3924726247787475,0.5252602100372314
0.14947851562500603,0.3173758776817471,0.1661483013167977,0.0721995592921972,-0.1541527062654495,0.3761658370494842,0.5006158351898193
0.15944433593750773,0.2277260749600827,0.1331739602148532,-0.1410749425977468,-0.1374670714139938,0.3432560563087463,0.4733261466026306
0.1694089355468833,0.2073116844953969,0.0452291347801685,-0.3618003450155257,-0.1232260763645172,0.3046466112136841,0.4504938125610351
0.17937426757812602,0.1710621759139932,-0.0395557653188705,-0.5645873551607131,-0.1010588854551315,0.2686761915683746,0.4327658116817474
0.18933935546874636,0.1039213795823976,-0.0999921138420701,-0.7967576961785554,-0.0793658420443534,0.2320286929607391,0.4198116660118103
0.19930419921875853,-0.0117929300538264,-0.1427799929499626,-1.0229524699181318,-0.0503872968256473,0.1913612633943557,0.4068773984909057
0.20927001953124602,-0.1639337305398658,-0.1617708168849349,-1.231957623925805,-0.0128263402730226,0.161245971918106,0.3884328603744507
0.21923535156250296,-0.2942989352106117,-0.2093298559173941,-1.4026497061520815,0.0281831957399845,0.1541385799646377,0.3661091923713684
0.2292001953125009,-0.40024420356974,-0.2277919798031449,-1.50118022300899,0.0794072300195694,0.1779408454895019,0.3504077196121216
0.23916528320312125,-0.5026898115111514,-0.2283285708978772,-1.6018191103219983,0.1365859806537628,0.1496821939945221,0.3343642950057983
0.2491301269531334,-0.6113589701425284,-0.2406958850398659,-1.606551399540901,0.202717587351799,0.1546495258808136,0.3178668320178985
0.2590964355468799,-0.7545261357791722,-0.2288587322518229,-1.5429665238589048,0.2627578675746918,0.1466558128595352,0.293916255235672
0.26906103515625546,-0.873925107011199,-0.2667255215704441,-1.4015566502183674,0.3143715262413025,0.1187778413295745,0.269484132528305
0.2790261230468758,-0.9281045870967208,-0.3487333581715822,-1.2027414663136005,0.3439659178256988,0.1415269076824188,0.2284653037786483
0.28899121093749613,-0.8999771015040576,-0.4885939565435052,-0.9887100085765124,0.3401677012443542,0.1560536623001098,0.1826437562704086
0.2989562988281307,-0.8342001956705003,-0.5695870631441473,-0.7660118447810411,0.2940023839473724,0.1634836941957473,0.1237861514091491
0.3089221191406324,-0.7689946599841118,-0.5648232097432017,-0.6333639542669057,0.2202085852622985,0.155179426074028,0.0673132836818695
0.31888720703125273,-0.6915732743903994,-0.5517331342846155,-0.4922445880055427,0.1230346262454986,0.148427814245224,0.014235932379961
0.32885229492187307,-0.5635148670909926,-0.5952835221976042,-0.3484340829640627,0.0181327164173126,0.1521144360303878,-0.0258592870086431
0.3388173828125076,-0.4174443446956574,-0.7170908697456121,-0.2585539055526256,-0.0799969211220741,0.1733948439359665,-0.0592411048710346
0.3487832031250093,-0.2054368122679181,-0.866670021316409,-0.2786293098539114,-0.1661611050367355,0.1713455319404602,-0.0778960138559341
0.35874462890625125,-0.0150395655585452,-1.0718608777329326,-0.4063116869151592,-0.224078357219696,0.1444738805294037,-0.0848835110664367
0.3687097167968716,0.050547096666228,-1.1515379332989453,-0.5499836602687835,-0.2639975547790527,0.0572076849639415,-0.0977188795804977
0.37867480468750614,-0.0461149229050613,-1.0371674577534198,-0.718672585979104,-0.3070548474788666,-0.0906358361244201,-0.1309465169906616
0.3886394042968817,-0.2924310224468819,-0.809759508831799,-0.8352396947860717,-0.36777064204216,-0.2786672413349151,-0.1836984157562255
0.3986057128906282,-0.6990189872864634,-0.5185264457315206,-0.904475728097558,-0.4715557396411896,-0.461407333612442,-0.2591290473937988
0.40857055664062614,-1.169188302410394,-0.1246782268092036,-0.9867729030340908,-0.6053343415260315,-0.5782159566879272,-0.3533543348312378
0.4185356445312465,-1.659595153594762,0.2417775427967309,-1.1316548366993664,-0.7175717949867249,-0.624108076095581,-0.4287142753601074
0.42850048828125864,-1.959059161684662,0.512292812038958,-1.2904782019555567,-0.7737817764282227,-0.534457802772522,-0.4898386299610138
0.43846655273438273,-2.1046397451385856,0.8218143960237503,-1.3413561562776566,-0.7594835758209229,-0.321666270494461,-0.5098273158073425
0.44843164062500307,-2.1422376543879507,1.040535472881794,-1.4764081853240727,-0.6733622550964355,-0.0505537986755371,-0.4738935530185699
0.4583967285156234,-2.028237327329069,1.166844808024168,-1.5859277137070893,-0.5194006562232971,0.1987055540084839,-0.4111915826797485
0.46836157226562136,-1.7582263543471692,1.316890408062935,-1.7677859175920485,-0.316249668598175,0.3216162919998169,-0.3465752899646759
0.4783266601562559,-1.497399389296025,1.4583821147680285,-1.8200304840922357,-0.0757529214024543,0.3692340552806854,-0.2893445789813995
0.48829272460938,-1.310574210653454,1.4201505837902426,-1.5321797569066284,0.1685609519481659,0.3530396223068237,-0.2180293947458267
0.49825732421875557,-1.102608482696116,1.4313421321511268,-1.31548171030879,0.3960191607475281,0.2309319525957107,-0.1839915663003921
0.5082226562499983,-0.9368476463269442,1.3719558772027491,-1.0806950493127108,0.6027555465698242,0.0353619195520877,-0.1829122006893158
0.5181874999999962,-0.786343050474301,1.3007120112001895,-0.748363375365734,0.7869934439659119,-0.2015333175659179,-0.2201142758131027
0.5281535644531345,-0.6417930521771311,1.202326748032868,-0.4608066626906394,0.9164054989814758,-0.4478509724140167,-0.2657821476459503
0.5381184082031325,-0.5991690218614414,1.132127714908123,0.023879472759366,0.9763695001602172,-0.6287137269973755,-0.2981170415878296
0.5480837402343752,-0.6094655941439792,1.0759691898345949,0.5086801744997501,0.9592717885971068,-0.7441726922988892,-0.3227709829807281
0.5580485839843732,-0.5919301201164722,1.0544529390752315,0.8166612510442733,0.8891143798828125,-0.8324060440063477,-0.3481737673282623
0.5680136718750077,-0.6013624767851085,1.033144193586707,0.9972907899171112,0.7930882573127747,-0.8842146396636963,-0.3702197074890136
0.5779797363281318,-0.6921113267898559,1.0077645453974604,1.1581009450763464,0.6914894580841064,-0.883606493473053,-0.3895236849784851
0.5879445800781298,-0.7937249043539166,1.033254083701968,1.352461487659812,0.578312337398529,-0.8431400656700134,-0.4102859497070312
0.5979094238281277,-0.8717226285308599,1.1099123759686946,1.4520026428639887,0.4468360245227813,-0.7731770873069763,-0.4330105185508728
0.6078745117187481,-0.9205947959885,1.1612708072841167,1.5641531042724848,0.3199302852153778,-0.662628173828125,-0.4554713666439056
0.6178405761718722,-0.9482432658925652,1.1867951246410609,1.7342495586931703,0.2038337439298629,-0.5188242197036743,-0.4715902507305145
0.6278056640625067,-0.8542961313031613,1.1987193711906672,1.8240256912082435,0.1021148413419723,-0.3715817332267761,-0.4862589538097381
0.6377705078125047,-0.7105105415072291,1.193394961297512,1.911755997109413,0.0038400734774768,-0.2409338802099228,-0.4927711486816406
0.6477358398437474,-0.5313310553122311,1.1926987957268953,2.00941382278502,-0.0782241746783256,-0.1322076767683029,-0.4934042096138
0.6577016601562491,-0.3124277172224596,1.149423717623949,2.027507113358378,-0.1335710287094116,-0.0770904272794723,-0.4857968389987945
0.667666503906247,-0.08059033448603,1.0938327633053064,1.9312533092617987,-0.1604524403810501,-0.0821736007928848,-0.475752979516983
0.6776315917968816,0.0828892956107854,0.990002970996499,1.874576897794008,-0.1637587696313858,-0.1138427928090095,-0.4752093553543091
0.6875964355468795,0.2258989325981587,0.8628893337339162,1.8934575393527744,-0.1542781889438629,-0.1773533225059509,-0.477605402469635
0.6975625000000036,0.3947429392723366,0.7293629068195819,1.8385592434734104,-0.1510667949914932,-0.277346670627594,-0.4770209193229675
0.7075273437500016,0.5176611341390759,0.6005933190435171,1.845522068223357,-0.1495940685272216,-0.385427325963974,-0.477095752954483
0.7174926757812585,0.5843364135844633,0.4472510155469179,1.8525094428926705,-0.1630024313926696,-0.4741725325584411,-0.4737789332866668
0.7274575195312565,0.6138372698895633,0.2739092955946922,1.920038672286272,-0.2002065330743789,-0.5248966813087463,-0.4708478450775146
0.7374235839843806,0.595990136096999,0.1141144549578428,1.980558315178752,-0.2708308696746826,-0.543717086315155,-0.4586458504199981
0.7473884277343785,0.5448683996142819,-0.0811380680292844,2.0157710828572517,-0.3607285320758819,-0.5217441320419312,-0.4520987272262573
0.7573537597656212,0.4675743301946669,-0.2383870235756039,1.9918156222522256,-0.4577507078647613,-0.4833214282989502,-0.4472917318344116
0.7673186035156334,0.3982943481435999,-0.3344432592734694,1.8671604840576648,-0.5578024387359619,-0.4353371262550354,-0.4442349374294281
0.7772836914062538,0.3391668537292629,-0.4039636624842881,1.640892060559988,-0.6395262479782104,-0.4121513366699219,-0.4456626176834106
0.7872497558593778,0.2642074743349105,-0.4308341337531804,1.4050363090276716,-0.700821578502655,-0.3919083774089813,-0.4425666928291321
0.7972145996093758,0.2269264124823734,-0.5000450326234102,1.1409691930115222,-0.7278334498405457,-0.3716596066951751,-0.4281965494155884
0.8071794433593737,0.2770123396439478,-0.5973886777833104,0.884462283116579,-0.7306156158447266,-0.360282301902771,-0.4166661202907562
0.8171445312500083,0.2915703687632456,-0.7242720134213566,0.6613321576446295,-0.7079501748085022,-0.3433282971382141,-0.3994636535644531
0.8271105957031324,0.3243974468816071,-0.8497223936468362,0.4547212052971124,-0.667927622795105,-0.3343638181686401,-0.3846349120140075
0.8370754394531303,0.4143558771610259,-0.9078802758440376,0.172167999997735,-0.6112905740737915,-0.3487313687801361,-0.3701100647449493
0.8470405273437507,0.446648373478651,-0.9532558333575724,-0.1479232010573148,-0.5252143144607544,-0.3750732243061065,-0.3386410772800445
0.8570058593750076,0.4320956050563603,-1.0277011257499455,-0.4064771066099405,-0.4162598550319671,-0.3965319991111755,-0.2942261695861816
0.8669716796875093,0.4448750801958143,-1.1014774328395724,-0.6560691225498915,-0.3028805553913116,-0.4130654335021972,-0.2520062625408172
0.8769365234375073,0.4376161220435053,-1.1437179071977734,-0.9378606958270072,-0.1944586187601089,-0.4220585227012634,-0.218834102153778
0.8869016113281276,0.3898792422261088,-1.2266507496893406,-1.184845744138956,-0.0959341675043106,-0.4147854149341583,-0.1778397858142852
0.8968664550781256,0.3142581840526312,-1.2927072761818763,-1.309454120582342,-0.0069884397089481,-0.3824447095394134,-0.1418112069368362
0.9068325195312497,0.2515081517595797,-1.265128656643629,-1.336289520537853,0.0565633736550807,-0.3292384743690491,-0.1177005320787429
0.9167973632812476,0.1985679311454296,-1.1907345099166036,-1.3084329608410596,0.0936196595430374,-0.2614966928958893,-0.1060231029987335
0.9267626953125045,0.2127730551738292,-1.0983341663777828,-1.251167351308465,0.104927971959114,-0.1737284809350967,-0.0920601487159729
0.9367275390625025,0.3116545774254948,-0.9462290034607052,-1.2096768185347315,0.1136753931641578,-0.080385498702526,-0.0744550600647926
0.9466936035156266,0.4791259440395981,-0.8850599567487836,-1.2318547480732205,0.1329295188188552,0.0165042988955974,-0.0403759181499481
0.9566584472656245,0.7608467901680618,-0.9593936054602265,-1.25294838950634,0.1756587475538253,0.0896516740322113,0.0077711991034448
0.9666237792968815,1.0022477547373625,-0.9941241425797342,-1.325592185434699,0.2150817811489105,0.1160587817430496,0.0495902858674526
0.9765895996093832,1.1154217139746994,-0.9511188213288784,-1.419228500509262,0.2428410947322845,0.088798776268959,0.0815635472536087
0.9865546875000035,1.171973403084278,-0.8714739144667982,-1.4534616095006463,0.2700956463813782,0.0514775067567825,0.0997478738427162
0.9965197753906239,1.1828780242625625,-0.9250210879981516,-1.4430600424736737,0.2983551025390625,0.0340890772640705,0.1232277527451515
1.0064846191406218,1.2897098479315638,-1.0455255362540483,-1.4173516007214784,0.3198729157447815,0.0418047867715358,0.1295700818300247
1.0164504394531235,1.471002819149196,-1.1889952650338411,-1.4151929613828658,0.3296875655651092,0.0509145557880401,0.1361438035964965
1.026415527343758,1.6415046395003794,-1.345626088681817,-1.3921405870974064,0.3123131096363067,0.0567157194018363,0.1469698250293731
1.0363806152343784,1.7613276813633738,-1.3792010260254144,-1.431824362710118,0.2775099873542785,0.0443975590169429,0.1395128965377807
1.0463454589843764,1.719308302409947,-1.2613605362817644,-1.4156336908876894,0.2197013050317764,0.0140087623149156,0.1260788440704345
1.0563115234375005,1.550218540813774,-1.1028311855360864,-1.4868372248798607,0.1270878762006759,-0.0355072431266307,0.1110884249210357
1.0662766113281208,1.319628016333282,-0.8559051739349961,-1.5458827035665512,-0.0111592132598161,-0.0734061524271965,0.0790793597698211
1.0762416992187553,1.0234032093603165,-0.5146016735032201,-1.6172528262972832,-0.1635749787092209,-0.0653030648827552,0.033457014709711
1.0862065429687533,0.6363046838939189,-0.0786497583448886,-1.753577359497547,-0.2799607217311859,-0.0013033060822635,-0.0139405950903892
1.0961728515624998,0.3114995329942554,0.379793390084803,-1.8431062392532824,-0.3385643661022186,0.1175343096256256,-0.0474054366350173
1.1061376953124977,0.2228996046517044,0.7717942275747657,-1.8291022638201715,-0.3318782448768616,0.3127450942993164,-0.0674917995929718
1.1161025390624957,0.1934892396416515,1.064777056951821,-1.717289656063914,-0.2495223879814148,0.5336810350418091,-0.0370644256472587
1.1260673828125078,0.3501869910459965,1.2838991158261894,-1.7095447410255669,-0.1305355429649353,0.7366895079612732,0.0289018079638481
1.136033447265632,0.5730773894779384,1.504768895150721,-1.5959499260276555,0.0101743042469024,0.8642752766609192,0.1127889975905418
1.1459985351562523,0.7392401577115059,1.6753209843844177,-1.527695304968953,0.1642509549856186,0.8867294788360596,0.1874214112758636
1.1559636230468726,0.8921257304165512,1.7820380225673318,-1.4180465972483158,0.3225174248218536,0.8261768221855164,0.2485502809286117
1.1659284667968706,1.0260694328948854,1.8033347853571176,-1.2003618777006864,0.465427428483963,0.7170470952987671,0.29278564453125
1.1758945312500089,1.1269526503577827,1.7739976317137478,-0.9234346955895424,0.5774334669113159,0.5957963466644287,0.3311382830142975
1.1858596191406292,1.1762423125751316,1.6733257189139723,-0.6366454601556062,0.6455459594726562,0.4985036253929138,0.3641425967216491
1.1958244628906272,1.199253331936896,1.517777429805696,-0.3527116141527891,0.6595816016197205,0.4311470687389374,0.3922775983810425
1.2057907714843736,1.2190427589036523,1.343778122727573,-0.0726566554099321,0.6174330711364746,0.4062768816947937,0.4335816502571106
1.2157556152343716,1.175170153298974,1.2155544783964751,0.147604052105546,0.5232775807380676,0.4039675295352936,0.481540322303772
1.2257204589843838,1.0524236982699482,1.2023574354320763,0.3014478753834962,0.3928947746753692,0.4352439343929291,0.5255128145217896
1.235685546875004,0.8770330098986625,1.2279834595978258,0.3226818020701408,0.2649639844894409,0.4845120906829834,0.5598750710487366
1.2456516113281282,0.6553235648795962,1.2900512087151408,0.2741185544312,0.1604966968297958,0.5522061586380005,0.5823857188224792
1.2556164550781261,0.4544154638161882,1.3827239394545554,0.1819786153942346,0.0969932228326797,0.6199792623519897,0.5917900204658508
1.2655815429687465,0.3438436864338815,1.4902999325543642,0.1589776790350675,0.0752927213907241,0.6742408871650696,0.5966681241989136
1.275546630859381,0.3334632717927918,1.5631448040127751,0.2015326261699199,0.0684547871351242,0.7026329040527344,0.6039012670516968
1.2855124511718827,0.3538779910510405,1.5998212145030497,0.2995399959355592,0.0847759693861007,0.7097491025924683,0.6121629476547241
1.295477539062503,0.3804319802492856,1.60687960858196,0.4348778561860322,0.1124548688530922,0.6956216096878052,0.6245526075363159
1.3054426269531234,0.3899488733962178,1.638487922027707,0.5773287633121014,0.1435805708169937,0.66783607006073,0.6350982189178467
1.315407714843758,0.3742105849837884,1.5973054322898388,0.7744429885178804,0.1708806306123733,0.6375262141227722,0.6459667682647705
1.3253735351562597,0.3467971659446135,1.5326368530243637,0.96547643250525,0.1910586059093475,0.6012744903564453,0.6514811515808105
1.3353388671875024,0.3470179690884426,1.4511059862852096,1.144530100363493,0.1967009007930755,0.5699115991592407,0.6547291278839111
1.345303466796878,0.3811680759714916,1.310966863232851,1.3397370306432246,0.1796468198299408,0.5538692474365234,0.6546383500099182
1.3552685546874983,0.4113369677312672,1.1549556327879429,1.4960317542046309,0.1428809463977813,0.549749493598938,0.6588265895843506
1.3652346191406224,0.4501856076940894,1.0039636918097734,1.5834131005376575,0.0928191170096397,0.5540587306022644,0.6573301553726196
1.375199707031257,0.4858889719011262,0.8604834416359662,1.6241314798951147,0.0426094718277454,0.5517892241477966,0.6499260663986206
1.3851645507812549,0.51008722828608,0.7374567814260721,1.6176152298688888,-0.0036746687255799,0.5463798642158508,0.6344197988510132
1.3951298828124976,0.5156825640751048,0.6415887617766857,1.547572556349635,-0.0505686737596988,0.5258296132087708,0.6163657307624817
1.4050957031249993,0.5252736915020272,0.5669114141941071,1.4580197111964226,-0.0916721671819686,0.4888777434825897,0.6009715795516968
1.4150607910156339,0.5220515876503661,0.5176549235939979,1.3389672153145074,-0.128224715590477,0.4566607475280761,0.5797982811927795
1.4250258789062542,0.514053391970694,0.4244868105530738,1.2549766804635525,-0.1499177664518356,0.4392543137073517,0.5647463202476501
1.434991699218756,0.4829219753216952,0.3748240772396325,1.1537445034325122,-0.1642626225948333,0.430298388004303,0.5467311143875122
1.4449567871093763,0.449190459176898,0.3129652946978807,1.06165483327806,-0.1777086555957794,0.4306328892707824,0.5330403447151184
1.4549216308593742,0.4306413511274382,0.2178472166329622,0.9822668237864972,-0.1916355043649673,0.4286967813968658,0.5163614153862
1.4648867187500088,0.4441559356084093,0.1627852546244859,0.8944991084843873,-0.2075340449810028,0.4174380004405975,0.5025614500045776
1.4748525390624962,0.4568450655832886,0.076729896198213,0.751843618696928,-0.2159208953380584,0.3904951810836792,0.4948315322399139
1.4848176269531308,0.4281062066266313,-0.0718415396347642,0.6033581075817346,-0.2290510684251785,0.3703196048736572,0.492097795009613
1.4947827148437511,0.3892884001934901,-0.1833256460890173,0.457047602418065,-0.2501321136951446,0.3187558948993683,0.4924574196338653
1.5047478027343715,0.2986472483469173,-0.3272030788868665,0.1268938570320606,-0.2667752802371979,0.251114010810852,0.4797235131263733
1.5147136230468732,0.1433881879761815,-0.4639218721017241,-0.1395277131557464,-0.2769480049610138,0.1782619506120681,0.4602279663085937
1.5246789550781301,-0.0498799927933141,-0.5500564332440495,-0.4661538689374923,-0.287315160036087,0.1070239841938018,0.4244776964187622
1.534643798828128,-0.2471810458080842,-0.6367918828889727,-0.7141893030852079,-0.2839384078979492,0.0596770867705345,0.3883818686008453
1.5446088867187484,-0.5045336492795497,-0.6875956029310822,-0.9441764548450708,-0.273978978395462,0.0400293469429016,0.3526997864246368
1.5545747070312501,-0.7414287537969648,-0.6899559023216366,-1.1705027460098263,-0.2519052624702453,0.0614057667553424,0.3164494335651397
1.5645397949218847,-0.989172584586963,-0.6882318550080061,-1.3304793729543685,-0.2118638157844543,0.107939712703228,0.2754428684711456
1.5745046386718826,-1.1710562882393598,-0.659755117586255,-1.4295166702896356,-0.1512850373983383,0.1893527805805206,0.2308645546436309
1.584469726562503,-1.291671503393352,-0.6079056878834963,-1.4902525862812994,-0.0816873088479042,0.248084008693695,0.1973785012960434
1.594435791015627,-1.3202594461046158,-0.5496577893152833,-1.4531862996906042,-0.0075475675985217,0.2784993946552276,0.1847153156995773
1.604400634765625,-1.2208290577985346,-0.5541521781250834,-1.35720196018517,0.0663559511303901,0.2712444067001343,0.1762352883815765
1.6143657226562595,-1.1389093378722668,-0.5262520715475082,-1.1978303133964538,0.1300105601549148,0.2337190210819244,0.1704013049602508
1.6243317871093836,-1.094028066681698,-0.5580801652237772,-1.0630360585033891,0.1858389377593994,0.1797695010900497,0.1620352417230606
1.634296875000004,-1.0262506346806883,-0.6675625764667987,-0.9323252735316752,0.2311028242111206,0.1276585906744003,0.1467689722776413
1.644261718750002,-0.9531636980947108,-0.7534925549477338,-0.8334703470259904,0.2750865221023559,0.0601224154233932,0.1237118542194366
1.6542268066406223,-0.9158293351523578,-0.7792877982005476,-0.7651438297748565,0.3062436580657959,-0.0158737748861312,0.1024974882602691
1.6641928710937464,-0.861105080665648,-0.8298992105409503,-0.699442400330305,0.3242247700691223,-0.0824935436248779,0.0875680744647979
1.6741577148437585,-0.7876696229029446,-0.929988939538598,-0.6301975991904735,0.3387587070465088,-0.1287057995796203,0.0729022920131683
1.6841225585937565,-0.7254603464230894,-1.0485708952993154,-0.6044739598691463,0.3489279747009277,-0.1779079586267471,0.0535403117537498
1.6940876464843768,-0.6216114840876311,-1.2034186349228024,-0.6283043327897787,0.3577434718608856,-0.2233642190694809,0.0135004920884966
1.704053710937501,-0.4370815037101507,-1.4080299378857015,-0.5356961917191744,0.3450801372528076,-0.2549687623977661,-0.0190334822982549
1.7140187988281212,-0.2085942716518417,-1.5777379775106906,-0.4888958620995283,0.3042489290237427,-0.2993780374526977,-0.0550446659326553
1.7239836425781334,-0.0542914799594786,-1.646934847855568,-0.4337093969285487,0.2331065833568573,-0.3683235645294189,-0.0911523401737213
1.7339489746093761,-0.0633081319666933,-1.5760516318589448,-0.3398988943308592,0.1060006991028785,-0.4618419408798218,-0.1186733096837997
1.7439147949218778,-0.2914239825624972,-1.3754928191572426,-0.3026882308334112,-0.1003812327980995,-0.5858840346336365,-0.147677794098854
1.7538796386718758,-0.6788827927086502,-1.0300859750598668,-0.3355640799969434,-0.3682717978954315,-0.7228217124938965,-0.2098621577024459
1.7638447265624961,-1.274853785713762,-0.5035092016026378,-0.5309475358873605,-0.6573757529258728,-0.8177639842033386,-0.3221080005168915
1.7738095703125083,-2.044795809550583,0.0419455830648541,-0.811896813121438,-0.8941240906715393,-0.8183507919311523,-0.460425466299057
1.7837756347656324,-2.5674276447743174,0.5010390120968222,-0.926346783643961,-1.0518221855163574,-0.6653793454170227,-0.5902523994445801
1.7937404785156303,-2.8208883188411598,1.0413555570930242,-0.976679379042983,-1.1036396026611328,-0.378792941570282,-0.6762123703956604
1.803705810546873,-2.8431425284862515,1.3289967331811785,-1.1276654748022557,-1.0196267366409302,0.0042729517444968,-0.6878085732460022
1.8136716308593748,-2.6025945274844764,1.5018378101348877,-1.24186994613111,-0.8222874999046326,0.3372466266155243,-0.6356379985809326
1.8236367187500093,-2.135481458126008,1.604259781472385,-1.4039888458013534,-0.5640066862106323,0.5423520803451538,-0.5652543902397156
1.8336018066406297,-1.7194753295399248,1.5758651693761347,-1.2717279087781903,-0.2819710075855255,0.6384900808334351,-0.489987164735794
1.84356689453125,-1.432493640273809,1.5863398016393184,-0.958689548844099,-0.0158969797194004,0.5939143896102905,-0.4203039705753326
1.8535327148437517,-1.1868463433716443,1.5777289174214004,-0.6903595146864652,0.2343504130840301,0.4349339008331299,-0.4022032022476196
1.863497802734372,-0.9925397959977388,1.5716189101085063,-0.4086094424635171,0.4666939079761505,0.1728990972042083,-0.4355129599571228
1.8734628906250066,-0.836349847985059,1.5491083876147866,-0.1810264292359352,0.6681223511695862,-0.1314925849437713,-0.4943343997001648
1.8834277343750045,-0.7695734827853739,1.4713935720324516,0.1949561703890562,0.8233931660652161,-0.4283500909805298,-0.5527862310409546
1.8933935546875063,-0.7339628748957068,1.3183265783458948,0.6161883630603552,0.9031500220298768,-0.6664910912513733,-0.6062168478965759
1.9033586425781266,-0.7217444677051157,1.1764359354510905,1.1320692627191542,0.8760305047035217,-0.8077887892723083,-0.6508386135101318
1.913323730468747,-0.7500676220003515,1.0888868313357234,1.4933844545662402,0.762350857257843,-0.9016441702842712,-0.6770924925804138
1.9232895507812486,-0.8145397288456558,1.000156116220355,1.679039128124714,0.599401593208313,-0.9390069842338562,-0.695471465587616
1.9332548828125056,-0.9570184738267212,0.90398706779778,1.8132202195554967,0.4180207848548889,-0.9200553894042968,-0.7106261253356934
1.9432197265625035,-1.1416714960619807,0.9253969355732202,1.82692258169353,0.2183042019605636,-0.8433824777603149,-0.7363203167915344
1.9531848144531239,-1.3245083357207477,0.9816326175361872,1.821890432745218,0.0215178914368152,-0.7147067189216614,-0.7685761451721191
1.9631506347656256,-1.4719396616078912,1.018086617447436,1.7356161708712576,-0.1605573743581771,-0.5398126840591431,-0.7975806593894958
1.9731159667968825,-1.518159414860606,1.0573550902575253,1.6856810503572224,-0.3116182386875152,-0.337110310792923,-0.817726731300354
1.9830808105468805,-1.4305954054370522,1.100933242960274,1.5397142440646885,-0.4297787249088287,-0.1598593592643737,-0.8232762217521667
1.9930466308593822,-1.2198380739998071,1.1219506042867895,1.3534692033976317,-0.4863938093185425,-0.0412861034274101,-0.8235818147659302
2.0030117187500025,-1.0166389028571543,1.0721350184991956,1.1451765815734862,-0.4863975346088409,0.0136059066280722,-0.8127840757369995
2.0129765625000005,-0.778454416116327,1.0305009856015444,1.1415227352410555,-0.4533112049102783,0.0510385893285274,-0.795704185962677
2.022941650390621,-0.5793634109448641,0.9176970287203788,1.1972206570655106,-0.418025404214859,0.0621042922139167,-0.7659737467765808
2.032907714843759,-0.3890391016075387,0.8398501111909746,1.2784294522434472,-0.3865610957145691,0.01881605386734,-0.7372982501983643
2.0428728027343794,-0.2282132374225184,0.7479650236979126,1.2999363506525754,-0.3556977212429046,-0.056227296590805,-0.7227481007575989
2.0528376464843774,-0.1320145336471963,0.6275929696500301,1.3649293395668267,-0.322763055562973,-0.1525727212429046,-0.7098972201347351
2.0628037109375015,-0.0959865040630567,0.4792623568356037,1.32835054423213,-0.2895901799201965,-0.2745590806007385,-0.6965388059616089
2.072768798828122,-0.0293006027589552,0.3262614141225815,1.329042618149519,-0.2603742778301239,-0.3936076760292053,-0.6914390325546265
2.0827338867187564,0.0121770796663593,0.1739391013234853,1.330922440546751,-0.2369778603315353,-0.4996356070041656,-0.6728522777557373
2.0926987304687543,0.0048793056073132,-0.0029269933626055,1.358406659799814,-0.2311013042926788,-0.5763900279998779,-0.6452947854995728
2.1026647949218784,-0.0225371365060098,-0.143799399125576,1.3585942913264035,-0.2440120428800583,-0.6345334649085999,-0.610318124294281
2.1126296386718764,-0.0675793475790647,-0.2887298481076956,1.2945745313584804,-0.2642650306224823,-0.6458703279495239,-0.5642077922821045
2.1225947265624967,-0.1378610494520049,-0.460093253724277,1.32590724273324,-0.2887051105499267,-0.6262236833572388,-0.5198978781700134
2.1325605468749984,-0.177792507082317,-0.5792722985953093,1.2784294522434472,-0.3226590752601623,-0.5974083542823792,-0.4884056150913238
2.142525634765633,-0.2046687505048699,-0.7138844749197364,1.1602636760681866,-0.3593031167984009,-0.5737928152084351,-0.4785838723182678
2.1524907226562533,-0.2273532413260079,-0.8282558272480964,0.9665694884389638,-0.385512501001358,-0.5599440336227417,-0.4766761064529419
2.162456542968755,-0.2249279869404621,-0.9288789324700832,0.7730752072960138,-0.4008166491985321,-0.5579091310501099,-0.4863103628158569
2.1724218749999977,-0.2170805796420201,-0.9246405642479658,0.4533943406075238,-0.405804693698883,-0.593720555305481,-0.5117707252502441
2.1823867187499957,-0.2085309971572831,-0.8224497713178396,0.0520598575830459,-0.3877857625484466,-0.6095088720321655,-0.536441445350647
2.1923518066406302,-0.1330085222537629,-0.8259738537907599,-0.3228483908087015,-0.3201358914375305,-0.6008706092834473,-0.5297165513038635
2.2023178710937543,0.032466117585171,-0.8699664325132965,-0.6264280175238848,-0.2325210720300674,-0.5731835961341858,-0.4902586042881012
2.2122829589843747,0.2324704199429601,-0.9436448321864008,-0.8906669829756021,-0.1424798816442489,-0.5413751602172852,-0.4370224177837372
2.2222475585937502,0.4070919505726545,-0.9844251708641648,-1.153718784469366,-0.0625099390745163,-0.5050309896469116,-0.3833738267421722
2.232213378906252,0.5157038625914603,-0.9671841132059692,-1.1894669741988182,0.0012675775215029,-0.4301029145717621,-0.3347966372966766
2.242178710937509,0.5041984259758144,-0.9088666565328836,-1.3004606667876242,0.0649235248565673,-0.3552811443805694,-0.2863614559173584
2.252143554687507,0.4541469490731135,-0.7950701814830303,-1.4203227254867552,0.1292536258697509,-0.2816715240478515,-0.2609172463417053
2.262109619140631,0.430488096794486,-0.6766603674188256,-1.3923457542806863,0.1788691133260727,-0.2025809586048126,-0.2430794090032577
2.2720747070312513,0.4955204313384369,-0.6905100290730595,-1.3794301586061717,0.2105731517076492,-0.1356129646301269,-0.2274258285760879
2.2820397949218716,0.7299905371986329,-0.8056208015918731,-1.2893459830552338,0.2265926003456115,-0.0810032561421394,-0.2096926420927047
2.2920046386718838,0.9621936114422976,-0.9193886350691318,-1.2097393623769284,0.217046707868576,-0.0514459162950515,-0.1849448829889297
2.3019709472656302,1.1531944683343172,-0.9943386621132492,-1.1730062532633545,0.1942814737558365,-0.0324927307665348,-0.1540607362985611
2.311935791015628,1.2720736534759405,-1.0794161154180764,-1.154533607983589,0.1592471003532409,-0.0375726036727428,-0.1250379979610443
2.3219008789062485,1.2752948074795305,-1.0947536775425075,-1.239527766919136,0.1344498693943023,-0.0392365455627441,-0.1062730923295021
2.3318666992187502,1.2501406386092304,-1.138819321501255,-1.3076573002934455,0.1163993552327156,-0.027512127533555,-0.0984890908002853
2.3418317871093706,1.201839549037814,-1.2099632342606783,-1.4711165086567402,0.1141109019517898,-0.0180499162524938,-0.1051371395587921
2.3517966308593827,1.2744216779068112,-1.317936409984529,-1.4926362665474413,0.1126341670751571,0.0037079355679452,-0.1242413818836212
2.3617631835937516,1.389534496252239,-1.3254492698326703,-1.550108796828985,0.1091310456395149,-0.0044935354962944,-0.1597967147827148
2.3717280273437495,1.4492716104649006,-1.2589467531383036,-1.630280065652728,0.0847907066345214,-0.0450063683092594,-0.1886748671531677
2.3816928710937475,1.4053610109373926,-1.0831064943686126,-1.7232593781232832,0.0207443386316299,-0.1169817596673965,-0.2202804684638977
2.3916589355468716,1.2537325256213545,-0.7838453153744339,-1.857652066478133,-0.0761432200670242,-0.1694321930408477,-0.2685630023479461
2.401624023437506,1.0014551430549472,-0.4690063357591629,-1.9580179820686576,-0.1793878525495529,-0.1694383174180984,-0.3058584332466125
2.4115891113281265,0.6713780431017279,-0.1045841178074479,-2.121970526906848,-0.2743132710456848,-0.1134679093956947,-0.3311123251914978
2.421554199218747,0.3854751255156472,0.3664379416882992,-2.2047458407491445,-0.3343238830566406,0.0163987427949905,-0.3509246408939361
2.4315200195312485,0.3284062441315502,0.7111442363008856,-2.173134312433004,-0.347885400056839,0.2210098356008529,-0.3278485238552093
2.441485107421883,0.3175195970013738,1.0190554624795911,-2.1689187405645844,-0.3107561469078064,0.464340478181839,-0.2639946937561035
2.451449951171881,0.4631873472820967,1.2672647918894886,-2.066819717571139,-0.2149287015199661,0.7115305662155151,-0.1558090150356292
2.4614162597656275,0.6559775718089192,1.468333892200887,-1.9876292764782904,-0.08113494515419,0.8783547282218933,-0.0223582759499549
2.4713811035156255,0.8363690641421824,1.6602672076374292,-1.9833564214646813,0.0831950530409812,0.9369733929634094,0.0949721708893776
2.4813459472656234,0.9070075115974991,1.759190815465152,-1.806715075445175,0.2600225508213043,0.9311413168907166,0.191482201218605
2.4913120117187475,0.9026733548507094,1.7910817452445624,-1.4324632451355457,0.413142055273056,0.8816385269165039,0.2668479979038238
2.501277099609382,0.928394363823533,1.790784223602712,-1.1036895559310913,0.5396491289138794,0.7889890074729919,0.3295510709285736
2.51124194335938,0.9188077664412556,1.7269465422034262,-0.7474088511198759,0.6285054683685303,0.6832547187805176,0.3813196718692779
2.521208007812504,0.8717625952150673,1.604368794804811,-0.3552887711644172,0.6678747534751892,0.6018016934394836,0.4363459050655365
2.5311730957031244,0.8222615552693605,1.4611983412325382,0.0523456887871027,0.649255096912384,0.5602694153785706,0.48564213514328
2.5411379394531224,0.7713861582305281,1.3248437051549553,0.389049586468935,0.5834395885467529,0.567404568195343,0.5345093011856079
2.551104248046883,0.7161798923805356,1.181334228886664,0.584597293010354,0.4932279884815216,0.5972080826759338,0.5790953636169434
2.561069091796881,0.672072601237148,1.1107295375704764,0.7338958740741014,0.3902248740196228,0.6465266346931458,0.6212015748023987
2.5710341796875014,0.6501170822776854,1.0718348665088415,0.7575462142527103,0.2865658700466156,0.687298595905304,0.6618839502334595
2.5810002441406255,0.6643170917395502,1.0889327163040636,0.6544149256020784,0.2087717354297638,0.6934718489646912,0.6921601295471191
2.590965332031246,0.6179683783449232,1.1139917542368174,0.5127911169499159,0.1642143726348877,0.6781597137451172,0.7184296250343323
2.6009299316406214,0.5142482569556683,1.1390534225180744,0.43646717120409,0.1446372121572494,0.6509267687797546,0.7377897500991821
2.610895751953123,0.4231243265608325,1.1784791317164898,0.3781985221087932,0.1331633925437927,0.6098693013191223,0.7513500452041626
2.62086108398438,0.3206143481463194,1.1863444582641125,0.3850251532584428,0.1446735709905624,0.5653449892997742,0.7649012804031372
2.630825927734378,0.2037889902619644,1.2115800218075514,0.4338666333168745,0.165138229727745,0.5170861482620239,0.7723423838615417
2.6407910156249983,0.0415528574202209,1.21616121211797,0.4994757083028555,0.1691300421953201,0.4709958732128143,0.7728899121284485
2.6507570800781224,-0.0848426947008818,1.225540158098936,0.6158803200244903,0.1534762531518936,0.4477660953998565,0.7611157894134521
2.660722167968757,-0.1856037470888346,1.1667147519037129,0.7804062808364629,0.130786120891571,0.4512748122215271,0.753574013710022
2.670687011718755,-0.2737506709668785,1.1438207830503582,0.8991302754163741,0.1018010824918747,0.483319342136383,0.7407388091087341
2.6806533203125014,-0.3136427190354093,1.1351698590829968,1.004185225605965,0.0617202445864677,0.535852313041687,0.7282531261444092
2.6906181640624993,-0.2948722598528489,1.1126724883317949,1.0948141755580902,0.0267940051853656,0.599112331867218,0.7110260128974915
2.700583251953134,-0.2644628373354673,1.0491633082345126,1.1594932762175798,-0.0013851667754352,0.6433844566345215,0.6951099038124084
2.7105490722656214,-0.2005629774201661,0.9866045607298612,1.2079168231248856,-0.0210007708519697,0.6553053259849548,0.680149257183075
2.720514160156256,-0.115673740163818,0.9315972515180706,1.2706634944170712,-0.0330600962042808,0.6572715044021606,0.6634403467178345
2.730479003906254,-0.0452434555664658,0.8415051849216222,1.3160896130740642,-0.0375162474811077,0.6351519227027893,0.6539058685302734
2.7404448242187556,0.0344000630561262,0.7207397476419806,1.382858379489183,-0.0216629803180694,0.6117296814918518,0.6511846780776978
2.7504101562499983,0.0771578392866998,0.618297902560234,1.4550485864311455,-0.0056479424238204,0.5684135556221008,0.6445572972297668
2.7603749999999962,0.0539605766378343,0.5308771009996534,1.514392171281576,-0.0031379130668938,0.5209493637084961,0.6318968534469604
2.7703410644531345,-0.0259029414109885,0.4295823801264166,1.6473767464041709,-0.0122261121869087,0.4942960739135742,0.6138700842857361
2.7803059082031325,-0.1159992457911372,0.3219824216291308,1.716603427365422,-0.0383730269968509,0.4803104698657989,0.5895301103591919
2.7902712402343752,-0.2633540723759681,0.2240323350086808,1.673537023577094,-0.0800669342279434,0.4644587337970733,0.560058057308197
2.800237060546877,-0.3397979181744158,0.0725078945890069,1.6009592786222695,-0.1264344304800033,0.4599574506282806,0.5259248614311218
2.8102021484374973,-0.3994369057748466,-0.0655135056570172,1.486198926976323,-0.178586333990097,0.4585115015506744,0.4881544411182403
2.820167236328132,-0.4455097979027778,-0.1736813271701335,1.2562240501761437,-0.2137363255023956,0.4449980854988098,0.4528201520442962
2.8301330566406335,-0.4707148201774805,-0.2977078120723366,0.9499082764953374,-0.2229510843753814,0.4205028414726257,0.4105241894721985
2.840098144531254,-0.4915371703885495,-0.3951318289920687,0.6279086114704608,-0.2119469046592712,0.3731265366077423,0.3668582141399383
2.850062988281252,-0.4892009825259447,-0.4873547701373696,0.3572790681988,-0.1919764280319214,0.3370014429092407,0.3321194052696228
2.8600292968749983,-0.4350536511443555,-0.5926607724785804,0.110316816240549,-0.1594176888465881,0.2875081896781921,0.3103578984737396
2.869993896484374,-0.4290932814352214,-0.7030322415158152,-0.1711076772898435,-0.1242815852165222,0.227189302444458,0.2993590831756592
2.8799589843750084,-0.4624640014436095,-0.7600307245448231,-0.3965577701419591,-0.0932448357343673,0.167336881160736,0.279424250125885
2.8899250488281325,-0.5440628188524395,-0.8415572073698043,-0.5330184969425201,-0.0646571144461631,0.1048126444220542,0.249544471502304
2.899890136718753,-0.6623999330066144,-0.8876894284695387,-0.6883171952039003,-0.0466413609683513,0.042804405093193,0.21452496945858
2.909854980468751,-0.8118969592519104,-0.9235562761425972,-0.7593734296798705,-0.0486135445535182,0.0151349259540438,0.1770413517951965
2.919821044921875,-0.9301860695458948,-0.9453536819308996,-0.7950456315636635,-0.0624321550130844,0.0043544494546949,0.1341418176889419
2.9297861328125094,-1.022570996319875,-0.9195385649338365,-0.8730313730418682,-0.0745146349072456,0.0126601736992597,0.0973026677966117
2.9397509765625074,-1.1231620259031654,-0.8606506148964166,-0.9156734139382838,-0.0858418568968772,0.0332914181053638,0.0685048401355743
2.949717285156254,-1.1872734096772968,-0.7930076959952712,-0.9761883806556464,-0.0810955017805099,0.0715278536081314,0.0574785023927688
2.959682128906252,-1.1519313895959409,-0.8149512322559952,-1.0297972212463615,-0.0529200546443462,0.1066051498055458,0.0578047409653663
2.969647216796872,-1.0213461307000369,-0.9056745824933052,-1.151032906386256,-0.0041309082880616,0.114840418100357,0.0613924711942672
2.9796132812499962,-0.8578195561889559,-1.0035238390877843,-1.2048767247766257,0.0527725890278816,0.0891526341438293,0.0603975132107734
2.9895781250000084,-0.7288334761179983,-1.0487699250027536,-1.1425813043832778,0.0946226492524147,0.0284543558955192,0.0593932718038558
2.9995429687500064,-0.5791480876937508,-1.107539217096567,-1.1083294906914234,0.1145902350544929,-0.064599685370922,0.0613317862153053
3.0095090332031305,-0.4963042386598885,-1.2056339728847143,-1.091204168367386,0.1398754715919494,-0.1707921922206878,0.0673789456486702
3.019474121093751,-0.4535116833768784,-1.302182960535586,-1.015305170035362,0.1610798239707946,-0.256862610578537,0.0711326673626899
3.0294389648437487,-0.4455052678581327,-1.3407389011621471,-0.9445037871032952,0.1664745360612869,-0.3254584074020386,0.062477171421051
3.039405029296873,-0.4741148378793149,-1.3376444422781466,-0.8927297607243061,0.1549678146839141,-0.3985051810741424,0.0389092601835727
3.0493701171875074,-0.4824070846021175,-1.3269675654411317,-0.8560632871061563,0.1268010586500167,-0.4671852886676788,0.0084721716120839
3.0593352050781277,-0.4262672642290592,-1.3319172968029975,-0.8455372169166803,0.0822224169969558,-0.5361920595169067,-0.034187939018011
3.0693010253906294,-0.4412784439433366,-1.193480886015296,-0.8805372186273336,0.0225082524120807,-0.602620542049408,-0.0771456360816955
3.079266357421872,-0.5501517468446865,-0.9315805926442146,-0.8463350892961025,-0.0640303641557693,-0.6409288048744202,-0.1208134815096855
3.089232177734374,-0.7491223039742558,-0.5402841040313243,-0.8387392273396254,-0.1773619651794433,-0.6537060737609863,-0.1764146387577057
3.099197021484372,-1.025876248410344,-0.072505848762393,-0.928668504589796,-0.2936733663082123,-0.6369694471359253,-0.2465050369501114
3.1091623535156288,-1.3215724283993244,0.4272320176079869,-1.0214964258909225,-0.4044615030288696,-0.5899405479431152,-0.3122519254684448
3.1191281738281305,-1.5619605626642703,0.932842283143103,-1.1210340739637612,-0.4907575249671936,-0.5053364038467407,-0.3747480809688568
3.1290930175781284,-1.6870517541885377,1.3567147611901162,-1.250091246509552,-0.5213825702667236,-0.372013509273529,-0.4181258380413055
3.1390578613281264,-1.682073819645494,1.6471031901597977,-1.3083756776958704,-0.4878339469432831,-0.1941468268632888,-0.4340920150279999
3.1490239257812505,-1.4991542701393366,1.849341334250569,-1.2852794642686842,-0.4129701554775238,0.007506058551371,-0.4224730730056762
3.158989013671871,-1.2686939479097723,1.952610862328112,-1.228250001579523,-0.3022566735744476,0.180757462978363,-0.3745196461677551
3.1689541015625053,-0.9766545368626712,1.9497958049073811,-1.130756426554918,-0.1694220900535583,0.2897228002548218,-0.3044892847537994
3.1789201660156294,-0.7063349363230168,2.0018553702294826,-1.0207558366566896,-0.0245003253221511,0.3127298355102539,-0.237294539809227
3.1888850097656274,-0.5151603668319061,1.9835370387285949,-0.8428302960455417,0.1388631612062454,0.2370728254318237,-0.1905646473169326
3.1988500976562477,-0.4052863624554127,1.944340169849992,-0.6421639313161372,0.3120884597301483,0.0862907692790031,-0.1702825427055359
3.208816162109372,-0.3503326831270009,1.8822864492580291,-0.5127408480674028,0.48509082198143,-0.134011909365654,-0.1836273670196533
3.2187812500000064,-0.3354558703821152,1.7711340589761733,-0.2985013005375861,0.6408713459968567,-0.3737853765487671,-0.2125836461782455
3.2287460937500043,-0.3916683175999671,1.588489380888641,0.0680424396127462,0.7466211318969727,-0.5824244022369385,-0.2508872449398041
3.2387121582031284,-0.4668394765814766,1.4205501045018434,0.5321434676736593,0.7642214298248291,-0.7322303652763367,-0.2801846861839294
3.2486770019531264,-0.5347752774819732,1.2953040146768091,0.8683055135637521,0.7093372344970703,-0.8681333661079407,-0.3186284601688385
3.258642822265628,-0.6520839984364807,1.201444119979441,1.0980921743154526,0.6071397662162781,-0.9506029486656188,-0.3673059940338135
3.268608154296871,-0.8451528207089751,1.074643201927841,1.2943436452120545,0.4778791069984436,-0.9761855602264404,-0.4133391678333282
3.278572998046883,-1.019644149087742,1.0034463899374009,1.4497837977707386,0.327367901802063,-0.9355646371841432,-0.4595213234424591
3.288539062500007,-1.150114037975669,0.9822288298636674,1.5969406906306742,0.1466672569513321,-0.8345550298690796,-0.5019116401672363
3.298503906250005,-1.2672729751959442,0.9479799387812614,1.735792696481943,-0.0291306562721729,-0.6611928343772888,-0.5294378399848938
3.3084692382812477,-1.332292121464759,0.9014040655672548,1.8263976810365916,-0.2021331489086151,-0.4505882859230041,-0.5361155867576599
3.3184350585937494,-1.3502540407434105,0.8660530584618449,1.8375480206042527,-0.3526139855384826,-0.242057979106903,-0.5362135767936707
3.328400146484384,-1.2739255649529395,0.8740931570544839,1.860747109884024,-0.4769798815250397,-0.052603043615818,-0.5419239401817322
3.338366210937508,-1.1035277894981206,0.8773813849449157,1.7607570418685674,-0.5569658279418945,0.056465920060873,-0.5536569952964783
3.348331054687506,-0.8693998116064816,0.8379930851474404,1.602858974763751,-0.5867234468460083,0.0758300796151161,-0.559253990650177
3.3582961425781264,-0.6952973364148288,0.7986284584864973,1.4791712202966212,-0.5766904950141907,0.0356706753373146,-0.563434362411499
3.3682617187500057,-0.514704914681986,0.7199412907406687,1.461056886935234,-0.5396050810813904,-0.0438921190798282,-0.5707263946533203
3.378226806640626,-0.3596251929335295,0.595586012275517,1.3706143994659186,-0.4901885390281677,-0.1634917557239532,-0.5732539892196655
3.388191650390624,-0.2381169744625687,0.4386430539384484,1.4199012852042912,-0.4258935153484344,-0.2625347971916199,-0.5733477473258972
3.398157714843748,-0.1520393311392515,0.2645467162266373,1.4843500842392443,-0.3727871477603912,-0.3730719685554504,-0.5648069977760315
3.408122558593746,-0.0892123794187791,0.1092199609145522,1.5509551845252514,-0.340899646282196,-0.4545766115188598,-0.5497047305107117
3.4180886230468843,-0.0427671833797357,-0.0573109099790453,1.6869097153693438,-0.3398889899253845,-0.5007182359695435,-0.5254560708999634
3.4280537109375047,-0.0953654404221102,-0.2334405070841312,1.6951099729597567,-0.3755398690700531,-0.526275634765625,-0.4966362118721008
3.4380185546875026,-0.1593236063959077,-0.3260989170372486,1.6134809065431357,-0.4270368814468384,-0.5300669074058533,-0.4830319583415985
3.447984863281249,-0.2239396334902383,-0.4495490633562207,1.5114444273918866,-0.4677090346813202,-0.5049006938934326,-0.4710517525672912
3.457949707031247,-0.2750385736192576,-0.5900678333759307,1.3900515058636664,-0.4950681924819946,-0.4700758457183838,-0.4688746333122253
3.4679147949218816,-0.2375574774162843,-0.6976034944653511,1.1961205868691205,-0.5202281475067139,-0.4571320712566376,-0.4728584885597229
3.4778808593750057,-0.190104456041567,-0.8069701703742146,0.9621049102455376,-0.5246636271476746,-0.4503628611564636,-0.4770324230194092
3.487845947265626,-0.199619924416393,-0.9225850930228828,0.808672005856037,-0.5196152925491333,-0.4293931722640991,-0.4682650566101074
3.4978117675781277,-0.1871341715265065,-0.9847039878055452,0.6417834075659513,-0.5111392736434937,-0.4346187710762024,-0.4602550864219665
3.5077766113281257,-0.1439448720108717,-1.0633952472046018,0.3870627965658902,-0.49203622341156,-0.4499265849590301,-0.4567245543003082
3.517741699218746,-0.1034330480761826,-1.1408660248979925,0.1933417209297418,-0.4519282281398773,-0.4619915187358856,-0.4559522271156311
3.5277077636718843,-0.0920184041496831,-1.2107508775070308,-0.0357014279782772,-0.4093801379203796,-0.4785269200801849,-0.4418419301509857
3.5376726074218823,-0.0763725615273695,-1.2697908032357692,-0.2374754616886377,-0.3452394902706146,-0.4811506569385528,-0.4240203201770782
3.5476386718750064,-0.0509853556527523,-1.3290996090337632,-0.4451210177808999,-0.2724157571792602,-0.4669966101646423,-0.4029994904994964
3.5576035156250043,-0.0365768545393599,-1.3714105182796716,-0.6404734940111637,-0.1868763715028762,-0.4413993656635284,-0.3819754123687744
3.5675686035156247,-0.017837881907029,-1.392928522604704,-0.845968594071269,-0.0962821915745735,-0.3983775377273559,-0.3631081879138946
3.5775346679687487,0.0647494898814242,-1.4311863570675254,-1.0248960052013396,0.0107361376285552,-0.3608037829399109,-0.33931764960289
3.5874997558593833,0.0766720741969067,-1.448044845148921,-1.194198678895831,0.1091717630624771,-0.3201748132705688,-0.3123378753662109
3.5974645996093813,0.0908943594226613,-1.4119114554941654,-1.2087246323764322,0.1887544691562652,-0.2845110893249511,-0.301874041557312
3.6074309082031277,0.1236586014378815,-1.3338769064381717,-1.1969430091679096,0.2391688227653503,-0.2474223971366882,-0.3009518384933471
3.6173957519531257,0.1583590356800705,-1.22606418197304,-1.134628299552202,0.2553621828556061,-0.2089082896709442,-0.3116856813430786
3.6273615722656274,0.2065053365485742,-1.0921163147762418,-1.0845143153399228,0.2600860893726349,-0.1690549403429031,-0.3270347714424133
3.6373269042968843,0.2632909257455729,-0.9589829788327217,-1.0517208837628365,0.250732809305191,-0.116803728044033,-0.3394722640514374
3.6472917480468823,0.3928425124784931,-0.8296881981387734,-1.0327250913918018,0.2466593980789184,-0.0667323023080825,-0.3446165919303894
3.6572578125000064,0.5943571280676871,-0.8150815806373953,-1.01303371797204,0.2439134120941162,-0.0144781488925218,-0.3307822644710541
3.667222412109382,0.7986319656178354,-0.8199231754496693,-1.0484458076149226,0.2438222169876098,0.0157077722251415,-0.2996581196784973
3.677188964843751,0.8903277410838752,-0.7561188117980957,-1.0646353103935715,0.2368727028369903,0.0169570613652467,-0.2752782106399536
3.6871535644531264,0.9212680921401828,-0.6705185036629439,-1.0863123046725989,0.2266711890697479,0.0082697635516524,-0.2518635988235473
3.6971186523437467,0.8795348366517574,-0.6031523558765649,-1.151661851939559,0.2305998802185058,-0.0027075204998254,-0.2380625754594802
3.707084716796871,0.8599719119172543,-0.5726566798478364,-1.147681842392683,0.236930176615715,0.0128552531823515,-0.2317162752151489
3.717049560546883,0.8640504134025424,-0.5421203795477748,-1.1890221530407667,0.2423286586999893,0.0300848390907049,-0.2365605682134628
3.727015625000007,0.9099964642804116,-0.4850999769479036,-1.2583406039386986,0.241181805729866,0.0386712923645973,-0.2369419783353805
3.7369807128906274,0.9792989138916134,-0.4266276219740509,-1.2573118454128502,0.2320527583360672,0.0496613569557666,-0.2312880903482437
3.7469458007812477,1.035512676283717,-0.4023962670370936,-1.3116875787228346,0.221062883734703,0.0604214370250701,-0.2170117348432541
3.7569116210937494,1.1312710250135511,-0.4168783813759684,-1.3592214833140372,0.2089889049530029,0.0803051367402076,-0.1977951675653457
3.7668769531250064,1.2451878385074435,-0.4437015063717961,-1.418111479178071,0.1823232173919677,0.0976940467953682,-0.1838006228208542
3.776842773437508,1.3392920633547007,-0.4267743369683623,-1.495382350385189,0.1491474211215973,0.0971246659755706,-0.1618828028440475
3.786807617187506,1.3535776322081683,-0.3901584244936704,-1.5804875684797763,0.0985959619283676,0.0734926015138626,-0.1374409794807434
3.7967729492187487,1.330599784463644,-0.2485892686381935,-1.6431722804516553,0.0257603731006383,0.058305662125349,-0.1242383643984794
3.8067387695312505,1.238545916274935,0.0072583005651831,-1.7092659240841863,-0.0542265251278877,0.0555414073169231,-0.1137523427605629
3.816703857421871,0.989344799348712,0.3661962418869137,-1.7921856148332356,-0.127402201294899,0.0837418884038925,-0.0992743372917175
3.826669921875009,0.719915060320869,0.7861445322275161,-1.769920591533184,-0.1725276112556457,0.1722075641155243,-0.0718208774924278
3.8366345214843847,0.583606784135662,1.1824062420323491,-1.7245885809004309,-0.1761021018028259,0.3002550005912781,-0.0259034503251314
3.846599609375005,0.6601770693253726,1.5085361387297511,-1.6632137824833393,-0.118794284760952,0.4313337206840515,0.0492250099778175
3.856565673828129,0.797648580603674,1.743724950785935,-1.5015233373582362,-0.0078805489465594,0.5630522966384888,0.145974189043045
3.8665307617187494,0.9669364220552146,1.9092074816703797,-1.2932774772852658,0.1190731674432754,0.6277252435684204,0.266104131937027
3.876496582031251,1.141605445088446,1.9944646754562851,-1.1105015740334987,0.2445948719978332,0.6571505069732666,0.3842302560806274
3.8864616699218715,1.3211157706730068,2.0156711296141148,-0.7552659943610429,0.3492777943611145,0.6117911338806152,0.4904418587684631
3.8964277343749956,1.371420016760379,1.9697388150006527,-0.4943032741010189,0.4222643971443176,0.5155404806137085,0.5705438852310181
3.9063925781250077,1.3577151704043149,1.8711732268303631,-0.2843383351504802,0.46059450507164,0.4255393743515014,0.6346853971481323
3.916357666015628,1.3190595687955615,1.730363364909589,0.0498825135439634,0.467622309923172,0.3637284934520721,0.672137975692749
3.926323730468752,1.282939330883324,1.5454899048566817,0.2849327939122915,0.4333005249500274,0.3555735647678375,0.6994189620018005
3.9362888183593725,1.303183662010729,1.3786355010971427,0.4700082062780857,0.3815321326255798,0.3810206055641174,0.72568279504776
3.946254638671874,1.3510536666885018,1.22533703674227,0.5920388411879539,0.3224643766880035,0.4249294698238373,0.7568871974945068
3.956219970703131,1.4335722292907536,1.129416117861867,0.619159487825632,0.2620162069797516,0.4576647877693176,0.7887271642684937
3.966185791015633,1.489924523370713,1.107925293804705,0.5950462063103914,0.2076503932476043,0.4680783152580261,0.8219724893569946
3.976150634765631,1.4785361372634769,1.1152356168180704,0.5205559057325124,0.1600221544504165,0.4463818073272705,0.8488706350326538
3.986115722656251,1.3651637328445911,1.172001460134983,0.3785340376734733,0.1370643675327301,0.3995969593524933,0.8612871766090393
3.996081542968753,1.1615512316606935,1.2377268549770115,0.2359317393779754,0.1197543442249298,0.3308530449867248,0.8588491082191467
4.006046630859373,0.9343830828443168,1.3009747537896037,0.130535428404808,0.1089053899049758,0.273907721042633,0.8378194570541382
4.016012695312497,0.6700339350163936,1.3096996197760105,0.1668576186299324,0.0997718125581741,0.2730405926704407,0.8107953071594238
4.025977539062509,0.4823440293032676,1.2889023309409615,0.2827951973617076,0.0821418166160583,0.3075425624847412,0.7871253490447998
4.03594262695313,0.3873835894854739,1.2485142064511776,0.3616846096813678,0.0568689480423927,0.3668711185455322,0.7727453708648682
4.045908691406254,0.3498273274207487,1.1776657695069908,0.5550988113254308,0.0256181396543979,0.4664299786090851,0.7651762962341309
4.055873779296874,0.3547717250203713,1.1227496457099917,0.7325292618960142,-0.0085012139752507,0.5725574493408203,0.7757847309112549
4.065839599609376,0.4330101626180112,1.0483847250774505,0.8868529776453972,-0.0415439382195472,0.652419924736023,0.7815787196159363
4.075804931640633,0.554613329363428,0.9854007378980516,1.0081336709707975,-0.0612470731139183,0.6907720565795898,0.7788695096969604
4.0857707519531345,0.6657700670268386,0.93356621350348,1.0976637197703123,-0.0762977302074432,0.6829099655151367,0.7651528716087341
4.0957355957031325,0.746651968337968,0.859312644290924,1.1915718375235795,-0.088651068508625,0.646140456199646,0.7546104788780212
4.105700683593753,0.8103289792828261,0.7764704026922583,1.254112172588706,-0.0906038507819175,0.6006289124488831,0.742782473564148
4.115666748046877,0.8548871559988707,0.659583560411632,1.3411018892556428,-0.0889484286308288,0.5573352575302124,0.7310781478881836
4.125631835937497,0.880634395391494,0.5476455727100372,1.3334732940733431,-0.0824621766805648,0.5150644183158875,0.7135047316551208
4.135597900390621,0.9141497115023434,0.3988306835100054,1.3612386683553457,-0.075829304754734,0.4938547313213348,0.7083184719085693
4.145562988281256,0.939329745466262,0.253985866984725,1.349738200175762,-0.0770602449774742,0.4782160222530365,0.7097915410995483
4.1555275878906315,0.9542470363520084,0.1490004749000072,1.3606360262870787,-0.0872231349349021,0.4719328284263611,0.7077339887619019
4.165493408203133,0.927193463601172,0.0509077649384736,1.289957392951846,-0.0963979437947273,0.454570472240448,0.7017164826393127
4.175458740234376,0.8635543735139072,-0.0777238756716251,1.2334668594449758,-0.1048257797956466,0.4536404907703399,0.6985984444618225
4.185424560546878,0.7694118624828755,-0.2048842746853828,1.1720458837985992,-0.128821313381195,0.4388990700244903,0.6865928173065186
4.195389648437498,0.6557255698092281,-0.3243494430214166,1.0616372976213693,-0.1573336571455001,0.4407289326190948,0.6648574471473694
4.205355712890622,0.5777579850422218,-0.3960676485374569,0.9191180014342069,-0.1868589967489242,0.4469780921936035,0.6281185150146484
4.215320556640634,0.5497037108162418,-0.4728431374430656,0.7273544896066189,-0.2040542215108871,0.4499752223491668,0.587429404258728
4.2252856445312545,0.5438373395334929,-0.5253849333241581,0.4443178847044706,-0.197606012225151,0.4468593597412109,0.5503214597702026
4.235251708984379,0.5278704665295779,-0.5538064334273338,0.1269365271300077,-0.1599422544240951,0.4135695993900299,0.5257229208946228
4.245216796874999,0.5681526829594746,-0.554583847540617,-0.1510194135069847,-0.1003210619091987,0.3971814513206482,0.499620109796524
4.255182617187501,0.6080967900088057,-0.5377274052858352,-0.5163631302177906,-0.0077514518052339,0.3237857818603515,0.4766391515731811
4.265147949218758,0.6397868999864905,-0.503594541798532,-0.8513356740623712,0.1126072332262992,0.2317641675472259,0.4522454440593719
4.275113769531259,0.6278158916857093,-0.5325704609140753,-1.067857779571414,0.2438150495290756,0.1297381967306137,0.4363642334938049
4.285078613281257,0.6064978303795681,-0.559231381085515,-1.1757447383165358,0.3554910719394684,0.0490243807435035,0.4177809357643127
4.2950439453125,0.5880312129817903,-0.6247571617022156,-1.189648175984621,0.4284766018390655,-0.0171093642711639,0.3972106575965881
4.305009765625002,0.4985249834492802,-0.706391488815844,-1.239665714085102,0.4521774649620056,-0.070885345339775,0.3742960691452026
4.314974609375,0.3862270398614928,-0.724674164481461,-1.2959727077186107,0.4367042183876037,-0.1132660955190658,0.3468756079673767
4.324940917968746,0.2341715613050386,-0.7401531809031963,-1.390632520622015,0.4046596884727478,-0.1332418769598007,0.3390938639640808
4.334905761718758,0.0449585376778617,-0.6427662811234593,-1.50069565436244,0.3703890740871429,-0.1424417644739151,0.3392381966114044
4.344870605468756,-0.2268520686045289,-0.5213415031522513,-1.729442450672388,0.3677371144294739,-0.1373786777257919,0.3475873172283172
4.35483666992188,-0.5248420586191117,-0.392257442599535,-1.9128443768680092,0.3890317678451538,-0.0979015752673149,0.3465819656848907
4.364801757812501,-0.7727109040282666,-0.2974082446038723,-2.072312469768524,0.4435371160507202,-0.0254828222095966,0.3577403724193573
4.374767822265625,-0.9654011753119528,-0.2619090611994266,-2.173614204904437,0.5262711048126221,0.0658044815063476,0.3523994088172912
4.384732910156259,-1.0943773915760218,-0.2285685171335935,-2.247188559681177,0.6047607660293579,0.1443030089139938,0.34783935546875
4.394698730468747,-1.185011017703265,-0.1543675548911094,-2.170950538653136,0.6657399535179138,0.1933278143405914,0.3457365334033966
4.404663818359381,-1.2381544327393172,-0.1081546697705984,-2.0214654951065776,0.6997436881065369,0.2154648602008819,0.3420512974262237
4.414628906250002,-1.2468814906828103,-0.0607663111299276,-1.8082400930553677,0.7243350148200989,0.2201168835163116,0.3193584978580475
4.424594726562503,-1.1774649862378834,-0.1080418570458889,-1.6953601483285423,0.7502449750900269,0.2159919589757919,0.2973849177360534
4.434560058593746,-1.023685168106854,-0.1181207679897546,-1.4749433734685182,0.7718914151191711,0.218878835439682,0.2727746367454529
4.444525878906248,-0.880246930443868,-0.1399801330983638,-1.254110419023037,0.7846674919128418,0.2217617630958557,0.2650257349014282
4.454490966796882,-0.7384580674231052,-0.1443634627491235,-1.0415525409698485,0.7843513488769531,0.2096430361270904,0.2705515325069427
4.4644570312500065,-0.5609824260039254,-0.1903068832784891,-0.8532739486485719,0.7753267288208008,0.1985784024000167,0.2887965440750122
4.474421875000004,-0.3913064985502511,-0.2965285391598939,-0.6245347511231899,0.7367900013923645,0.1818662583827972,0.2983812689781189
4.484386718750002,-0.326913484823145,-0.2991191401749849,-0.5296902293026446,0.6535233855247498,0.1394541561603546,0.3038069009780884
4.4943527832031265,-0.4016198758371174,-0.2161772375941276,-0.4538859235167503,0.5303593873977661,0.0755116492509841,0.2902106642723083
4.504317871093747,-0.5650941356390714,-0.0818447549939155,-0.3108218529284,0.3865472078323364,0.0350751690566539,0.2682355344295501
4.5142836914062485,-0.7874165249247104,0.1527577816069126,-0.1905593967348337,0.214146688580513,0.0093248011544346,0.231540098786354
4.524248779296883,-1.0851983520813286,0.5275345125734806,-0.1534773280531167,0.0472299009561538,0.0151944607496261,0.1760226935148239
4.534213867187503,-1.380230953595042,0.9745160635292528,-0.1359141988337039,-0.0713739767670631,0.0721674636006355,0.1148677244782447
4.544179687500005,-1.5667197398900985,1.347078625577688,-0.1342500650137662,-0.133755087852478,0.1739653050899505,0.0695337206125259
4.5541447753906255,-1.5544243219405411,1.6546160500079392,-0.1455401053130626,-0.1571267247200012,0.2821471691131592,0.0467959195375442
4.5641108398437495,-1.34343880777061,1.8811206203490491,-0.1144464633911848,-0.1305863559246063,0.368289977312088,0.0451095439493656
4.574075927734384,-1.1004141875222324,1.981667737725377,-0.1065717844933271,-0.0547230094671249,0.3944829702377319,0.0698854625225067
4.584040771484382,-0.927464170301333,1.969127405104041,-0.0510123943567275,0.0201312843710184,0.3743243515491485,0.1087746247649192
4.594006835937506,-0.8005171948425471,1.9535773692727088,0.1811737287521362,0.0848378464579582,0.3229405283927917,0.1327811479568481
4.6039719238281265,-0.6753967041585593,1.9239725046038627,0.21686288177073,0.1426605731248855,0.2116323560476303,0.140360876917839
4.613937744140628,-0.5909648187482729,1.8207354174911972,0.2511351537287235,0.2178517282009124,0.0776681751012802,0.1367275267839431
4.623903076171871,-0.5252191117705777,1.6714976267039774,0.334095176488161,0.3044144809246063,-0.0522639453411102,0.1150217279791832
4.633868896484373,-0.4382209560688584,1.4784586881130932,0.4803279402405023,0.3607422113418579,-0.1592284739017486,0.0947295054793357
4.643833740234371,-0.3780894722437485,1.272933777436614,0.6840425866246223,0.3736963868141174,-0.234599232673645,0.0761974453926086
4.653798828125005,-0.3120330918816849,1.0683096149921416,0.8995458704799413,0.3519223928451538,-0.2819308042526245,0.0586855597794055
4.663764648437507,-0.3373205682754516,0.9160381555974484,1.0534382090747356,0.2922693789005279,-0.3144736588001251,0.0414995588362216
4.673729736328127,-0.408287078641355,0.822743785828352,1.193689560329914,0.2075198590755462,-0.3370450139045715,0.0119949299842119
4.683695800781251,-0.5186809056408703,0.8092524360924959,1.2079957335799931,0.1067660674452781,-0.3668577373027801,-0.0209417529404163
4.693660888671872,-0.6344042571000754,0.727417617970705,1.2469535330057144,0.005009617190808,-0.3773822784423828,-0.0679681152105331
4.703625732421884,-0.7405883574500679,0.6954448551267385,1.280315119859576,-0.1107469350099563,-0.3648727536201477,-0.1104527041316032
4.713591796875008,-0.8657865164801478,0.6442319697618484,1.3116823180258272,-0.2409051954746246,-0.3121104836463928,-0.1483398973941803
4.723556884765628,-0.9823865046434104,0.5701420666784047,1.3674234944701191,-0.3684090971946716,-0.2078378796577453,-0.1711983382701873
4.73352270507813,-1.049995521274954,0.5306599511176348,1.348274557363987,-0.4868263006210327,-0.0828141793608665,-0.1922980397939682
4.743488037109373,-1.0315341280415653,0.4971855515390634,1.2255839972406626,-0.5693082809448242,0.020645897835493,-0.2145003825426101
4.753452880859371,-0.9848550867140292,0.4844593409568071,1.0789853227853774,-0.6100125908851624,0.0831249877810478,-0.2260025739669799
4.763418945312509,-0.9288267638914288,0.4747007480084896,0.97799046164155,-0.6145908832550049,0.1308741271495819,-0.23729108273983
4.773383789062507,-0.8518449387587607,0.4546563233673572,0.9828583599388598,-0.6029366254806519,0.1426026970148086,-0.2494731694459915
4.783349853515631,-0.7589103422127663,0.4021346934914588,0.8629425252258777,-0.58805912733078,0.1200521141290664,-0.2613455653190613
4.793314697265629,-0.6841713275708258,0.3548351821780204,0.9106243138551712,-0.567885160446167,0.0808352082967758,-0.2709113657474518
4.803281005859375,-0.6382230847358703,0.3106330523580312,0.8214718661963939,-0.5478491187095642,0.0227344017475843,-0.2876547873020172
4.813245849609373,-0.6111155898407101,0.2542214293062687,0.7468103007048368,-0.5065338611602783,-0.0199454184621572,-0.2999298274517059
4.823210693359371,-0.5493421474948526,0.1743073501139879,0.7012099945247173,-0.4581194818019867,-0.0562296025454998,-0.3009005784988403
4.8331767578125095,-0.4766553161423653,0.0713128395855426,0.6963719068437815,-0.4140966236591339,-0.0604347325861454,-0.2886388599872589
4.84314184570313,-0.3541432178584858,0.0180336693406105,0.7434826175868511,-0.375454306602478,-0.0536243878304958,-0.2647486627101898
4.853107666015632,-0.2865696378665044,-0.1277992814391851,0.7696247745811938,-0.3607411384582519,-0.0329854227602481,-0.2264880985021591
4.863072753906252,-0.2502438674448058,-0.2036304752320051,0.8361854512035847,-0.374464601278305,-0.013227860443294,-0.1926536113023758
4.873037841796872,-0.2113869345776736,-0.3000035217940807,0.8511679162800312,-0.3968822956085205,0.0026017036288976,-0.1670707613229751
4.883003906249996,-0.2422622210411354,-0.3985708635300398,0.7227209845870732,-0.4155910015106201,-0.0064301937818527,-0.1410233974456787
4.8929687500000085,-0.2886840362045914,-0.4455114784032106,0.5998001228392124,-0.40633225440979,-0.0049824994057416,-0.1237413436174392
4.902934814453133,-0.3289612476658076,-0.5218173039704561,0.4830459670275449,-0.3885975480079651,-0.0053467154502868,-0.1050057485699653
4.912899902343753,-0.3405082218682393,-0.5655401258409023,0.395301048079133,-0.368688553571701,0.0029506299179047,-0.0717820152640342
4.922864990234373,-0.3529671598164364,-0.6154840141832828,0.3247580238223075,-0.3490420877933502,0.0065187336876988,-0.0451973527669906
4.932831054687497,-0.3742828465024009,-0.6674719755738974,0.2047480810850858,-0.3204027414321899,-0.0069376863539218,-0.0332392267882823
4.942795654296873,-0.3547689850740134,-0.7158031680226326,0.0604255348682403,-0.2731464505195617,-0.0249212142080068,-0.0316454209387302
4.952761962890634,-0.3296129165075719,-0.7795131313890218,-0.083414196267724,-0.204597994685173,-0.0447103679180145,-0.0192947424948215
4.962726806640632,-0.2439185734134167,-0.842574275457859,-0.1614513756722211,-0.1258236914873123,-0.0516570620238781,0.0017466060817241
4.972692626953133,-0.1291803605340421,-0.9199223035544156,-0.2845955247819423,-0.0399793609976768,-0.0744896754622459,0.0304006207734346
4.982657714843754,-0.0346312049308791,-1.009264720827341,-0.3315326325237751,0.0361688956618309,-0.0930830091238021,0.056236732751131
