time,ax,ay,az,gx,gy,gz
0.0,1.4816396562367675,-1.5567153554871678,-2.365185409030318,0.0573879815638065,-0.2676577866077423,-0.1124968007206916
0.009964111328123693,1.534726518779993,-1.5608324354171752,-2.395420972818136,0.1891410052776336,-0.3495750725269317,-0.0614956766366958
0.019929199218751137,1.5764757024899123,-1.561016413681954,-2.465924249586463,0.2853335738182068,-0.4239110648632049,-0.0280706100165843
0.02989404296874909,1.6233248396873474,-1.5950177597440778,-2.530391168799996,0.3663903176784515,-0.4540176391601562,0.0096623934805393
0.039859130859376535,1.8107681502282615,-1.6935877318285404,-2.7062194448709485,0.4432813823223114,-0.4452856779098511,0.0599671080708503
0.04982299804687784,2.1791738848581907,-1.8340704076215624,-3.1186136665701865,0.5255831480026245,-0.4157402813434601,0.1198919638991355
0.05978808593749818,2.409943565297872,-2.032823047684133,-3.4494168157756326,0.6015537977218628,-0.4068911373615265,0.1994696110486984
0.06975317382812563,2.4149698690272867,-1.9533495518662036,-3.848686182963848,0.6112330555915833,-0.4551916122436523,0.265278160572052
0.07971679687499744,2.2041826539084317,-1.5777920457854866,-4.066165735328197,0.535114586353302,-0.5231562852859497,0.2820494174957275
0.08968188476562489,1.923622083730996,-1.0436654414705933,-4.096555612894893,0.4196591973304748,-0.5389978885650635,0.240005612373352
0.09964697265625233,1.5527876606494186,-0.4950418175086378,-4.020871718618274,0.3024412095546722,-0.4933688938617706,0.1808165907859802
0.10961206054687267,1.2128580058541147,0.0915995485499501,-3.840112415885925,0.1865230351686477,-0.3961918354034424,0.1408795416355133
0.11957617187500347,1.0655865467038006,0.5655696441963315,-3.721075702095032,0.1173969507217407,-0.2617767751216888,0.1589371114969253
0.12954101562500142,0.9687957131210714,0.8251189905270934,-3.651342240655422,0.1634078323841095,-0.088777095079422,0.2468382120132446
0.13950585937499937,0.8351201600596309,1.1082692849367857,-3.510469542631507,0.3172692954540252,0.1019137650728225,0.3625554740428924
0.14947094726562682,0.7940257869966327,1.38058926551342,-3.3722412216365334,0.5356615781784058,0.2691880464553833,0.4432423114776611
0.1594350585937505,0.8609022515699267,1.5324582815870642,-3.13242708786726,0.7639528512954712,0.3862068057060241,0.4887115061283111
0.16940014648437796,0.9909114641435444,1.5751508836269377,-2.6677187415629624,0.9429328441619872,0.464236319065094,0.5183154940605164
0.1793649902343759,1.1036380449395626,1.5037328301012516,-2.1366712524324654,1.0609357357025146,0.5087001919746399,0.5358012914657593
0.18933007812500335,1.1956229395452886,1.4201558444872495,-1.5789181272059678,1.123677134513855,0.5517640709877014,0.5542641878128052
0.19929394531249756,1.2082960317008196,1.3339824126392603,-1.0437275469213725,1.1405980587005615,0.6101477146148682,0.5696484446525574
0.209259033203125,1.2178412741594016,1.3646648434117437,-0.7269955931663513,1.109676957130432,0.6582008600234985,0.5647876262664795
0.21922412109375244,1.2996720006279647,1.3912135353803634,-0.5091548062741756,1.0614303350448608,0.7318056225776672,0.5493631362915039
0.2291889648437504,1.337165572720021,1.3852695322841404,-0.3084381726622581,1.003453254699707,0.8063662648200989,0.5581414699554443
0.2391528320312588,1.3982801127657294,1.4032964796230196,-0.2053355255842208,0.9417890906333924,0.8837153911590576,0.5742514729499817
0.24911791992187915,1.482942847789824,1.460015853449702,-0.1784171235203742,0.8936634063720703,0.9562405943870544,0.5992841124534607
0.2590830078124924,1.549917073649168,1.4845155039340256,-0.1796779372364282,0.870967447757721,1.016892433166504,0.6396893262863159
0.2690471191406232,1.5972817591533064,1.485807297310233,-0.1674684440046548,0.8653966188430786,1.049652934074402,0.6899535655975342
0.27901220703125773,1.605281525735557,1.5748001704931258,-0.1462672505438327,0.8748041987419128,1.0469186305999756,0.7292935252189636
0.2889770507812486,1.5619870122797783,1.6457660963371394,-0.1230780981361865,0.8891858458518982,1.0164530277252195,0.7581906914710999
0.29894189453125364,1.4805398783013224,1.742374412959814,-0.0146656542122364,0.9080184102058412,0.9715774655342102,0.7799422740936279
0.30890600585937733,1.3250380586832762,1.8429738450452684,0.1692278548926115,0.9128069877624512,0.9365323781967164,0.7891128659248352
0.31887109374999767,1.160273174548894,1.9201015083894133,0.401864059856534,0.9003122448921204,0.9083481431007384,0.7959582805633545
0.32883593750000273,0.9778329329922796,1.9522969740733505,0.6285749664247036,0.8640146851539612,0.9007574915885924,0.8027562499046326
0.3388007812500078,0.8136625806849449,1.9667913633719083,0.9034715194910764,0.8072720766067505,0.915010154247284,0.8096778392791748
0.348764648437502,0.7105315842952579,1.9781839872628448,1.0951385852068662,0.7336860299110413,0.9451046586036682,0.8184798359870911
0.35872973632812233,0.654270256434381,1.903734895478189,1.2294441798001527,0.6564684510231018,0.9928812384605408,0.8368759155273438
0.3686945800781274,0.6444797339778393,1.7954323416694995,1.441778185969591,0.5844752192497253,1.0793099403381348,0.8670995831489563
0.3786599121093772,0.6568874531954526,1.6964312846913934,1.6178537147998808,0.513746440410614,1.1789193153381348,0.9022567868232728
0.3886240234375009,0.6084318306494504,1.6970047006651758,1.641592902305722,0.4425798058509826,1.257251262664795,0.9374703764915466
0.3985886230468765,0.511605195100978,1.7237138438925146,1.6732289805412293,0.3837452530860901,1.3128281831741333,0.9650029540061952
0.4085537109375039,0.463634871853888,1.745464780190587,1.6463286986559629,0.3410886228084564,1.3348326683044434,0.9822642207145692
0.4185185546875019,0.4023993357770145,1.7193550641611215,1.5612164662986994,0.33655646443367,1.330018401145935,0.9996293783187866
0.42848291015624795,0.3383394264617934,1.6968097626149654,1.4950515109956264,0.3430131077766418,1.3005670309066772,1.006238579750061
0.4384479980468754,0.2477312635693699,1.6226625763863325,1.4189157812982798,0.3726439476013183,1.26344895362854,1.0027445554733276
0.44841259765625807,0.1340835128078237,1.515832140956819,1.4385194764345883,0.401149719953537,1.2329106330871582,0.9956130981445312
0.45837670898437466,0.0832461462244391,1.352142923229933,1.4364958616524934,0.4225474298000335,1.2011830806732178,0.9834927320480348
0.4683415527343726,0.0340657530678436,1.1565958012104034,1.3751310001075268,0.4358566999435425,1.15977942943573,0.9637028574943542
0.47830688476562244,-0.0588959141481667,0.9812646610066296,1.2931512205570936,0.4299008250236511,1.1297694444656372,0.932421088218689
0.488271972656257,-0.1365701054591685,0.7810217823863029,1.2102069798886774,0.4164919257164001,1.1199045181274414,0.8955397605895996
0.4982355957031288,-0.1859770373806357,0.5537400901928544,1.082189671784639,0.3892104923725128,1.1088510751724243,0.8641852736473083
0.5082006835937491,-0.2150941915977746,0.3312348186209797,0.9421984327703714,0.3319955468177795,1.0960235595703125,0.8364359140396118
0.5181655273437542,-0.2485403149299323,0.1456315829887986,0.7769517564684152,0.2608081698417663,1.07955002784729,0.8048202395439148
0.528130859375004,-0.2991511427484452,0.0504457003846764,0.6541296789199114,0.1771747469902038,1.0492476224899292,0.7656115889549255
0.5380949707031277,-0.3439496310263872,-0.036816988004744,0.4005839569181204,0.0884922817349433,0.9974746704101562,0.7236372232437134
0.5480595703125033,-0.4224976825624704,-0.122314420287311,0.1500748261332511,0.0210518352687358,0.9297181963920592,0.682346522808075
0.5580246582031236,-0.5666689106751233,-0.1504354761391878,-0.1345738901406526,-0.0168793015182018,0.8448755145072937,0.6398312449455261
0.5679895019531287,-0.7156837063614279,-0.115596802470088,-0.4672165297329425,-0.0131574161350727,0.7157840728759766,0.587674081325531
0.5779536132812524,-0.690176120943576,-0.0314753347158432,-0.6101543435931205,0.0169019475579261,0.6034050583839417,0.514607846736908
0.5879189453125022,-0.5811593544509261,-0.1108756191670894,-0.6230401286512612,0.0295707136392593,0.4371529221534729,0.4722995162010193
0.5978837890624931,-0.7124576569870114,-0.2334755783975124,-0.7192740590035915,0.0114897163584828,0.2766346037387848,0.4664789140224457
0.6078486328124981,-0.8253475385859608,-0.3487181606024503,-0.5398340221762656,-0.0203438345342874,0.1312179267406463,0.4704701900482178
0.6178127441406289,-0.9279854907616972,-0.4822860885709524,-0.4999941792190074,-0.0871316492557525,0.0406102761626243,0.4627755284309387
0.6277775878906269,-0.8182157870098948,-0.5022165314435959,-0.224533562529087,-0.1639344990253448,0.0644983425736427,0.4538491666316986
0.6377429199218767,-0.5398822452321649,-0.717926736047864,-0.0953816974371671,-0.2139979302883148,0.1494965851306915,0.4560169875621795
0.6477070312500075,-0.2784711236175149,-1.1020908885627985,-0.2926309471994638,-0.2147624045610427,0.2875846028327942,0.465693324804306
0.657671630859376,0.2110082374583929,-1.634164798131585,-0.1451321090340614,-0.1679573506116867,0.3996733129024505,0.4824909269809723
0.6676367187500034,0.6947464975990355,-2.1022879213154315,-0.323587810999155,-0.1260442733764648,0.2979941964149475,0.4716489315032959
0.6776015625000085,0.7226146016031503,-2.3063103184744715,-0.3642085752010345,-0.1278224736452102,0.0866039469838142,0.3719170093536377
0.6875656738281251,0.2899485762476921,-1.809184680429101,0.5769704513937235,-4.9909576773e-06,0.1448229402303695,0.0907710939645767
0.6975310058593749,-0.4803511749856173,-1.2229580326512457,0.5721504838913679,0.0858598500490188,-0.0650714337825775,-0.2399125397205352
0.7074956054687505,-1.346664053427428,-1.4989175387740137,-2.429765140968561,-0.056253969669342,-0.6303227543830872,-0.5215599536895752
0.7174606933593779,-2.5097896947979925,0.0877098476350307,-2.570805596774816,-0.1928525567054748,-1.0459179878234863,-0.8718032240867615
0.7274248046875016,-3.510698090690374,1.0953557350888847,-2.4306290643215176,-0.1821129024028778,-1.1683799028396606,-1.2004907131195068
0.7373896484375067,-3.6708909907341,1.203261398534477,-2.464836454349756,-0.004833985120058,-0.980491816997528,-1.4068024158477783
0.7473549804687494,-3.596624854300916,1.0550924060225486,-2.329455339479446,0.2826727330684662,-0.5772702693939209,-1.408159255981445
0.7573198242187473,-3.480551081968844,0.7586614820182322,-2.01306942268312,0.6061946153640747,-0.0781491920351982,-1.171033501625061
0.7672836914062486,-3.2530811737269163,0.41796646887362,-1.980009449124336,0.8974292874336243,0.3256805837154388,-0.7366709113121033
0.7772487792968761,-2.8310587074607607,0.2397007365226745,-2.195487598538399,1.1128660440444946,0.5888778567314148,-0.2128468304872512
0.787213623046874,-2.124636385115236,0.4161696485847234,-1.9464953020572664,1.2698544263839722,0.8190096020698547,0.2962360680103302
0.7971789550781239,-1.4090527050621806,0.509478631401062,-1.119193414533138,1.377982258796692,1.0655677318572998,0.7603592872619629
0.8071425781250028,-1.180011748111248,0.3187064686983824,-0.6063309859126806,1.3858331441879272,1.1438956260681152,1.133469820022583
0.8171076660156231,-1.3049391273759303,0.2655208219558,-0.7674749030709266,1.2658298015594482,0.9316347241401672,1.3264110088348389
0.8270727539062577,-1.558038274654001,0.4266980568617582,-1.1101444311589002,1.0460247993469238,0.5417527556419373,1.330212950706482
0.8370366210937519,-1.7348485474996267,0.3763023330986499,-1.1535825908690691,0.8578768372535706,0.1668470203876495,1.22966206073761
0.8470017089843793,-1.8206851486086844,0.4812614216983318,-0.9432815518319606,0.7569950222969055,-0.1046970039606094,1.0839203596115112
0.8569667968749926,-1.7791032842896877,0.7339753690510987,-0.8614870657205581,0.7379486560821533,-0.3021607995033264,0.9417722225189208
0.8669316406249976,-1.5883815365999936,0.9707622639536856,-0.8499246382206678,0.7833776473999023,-0.4848470389842987,0.8188915848731995
0.8768957519531284,-1.395742410981655,1.3098995262622832,-0.8751590327203274,0.85812908411026,-0.6633235812187195,0.708202064037323
0.8868605957031264,-1.149292711655423,1.6306839702785014,-0.8325836273193359,0.9319478869438172,-0.8414787650108337,0.5962877869606018
0.8968256835937538,-0.8621390268232673,2.0585405495256186,-0.541651885253191,1.0020469427108765,-0.9835304021835328,0.4603360593318939
0.9067907714843741,-0.6119591279927641,2.2612223457306624,-0.143859020358324,1.0397058725357056,-1.0843660831451416,0.3199768662452698
0.9167546386718755,-0.5548102036423981,2.0306231995522976,0.1378875447332859,1.0161476135253906,-1.1478675603866575,0.1915088891983032
0.9267197265625029,-0.6422090856321155,1.792668429914117,0.5083119257092475,0.939303696155548,-1.1361751556396484,0.0766582190990448
0.9366845703125009,-0.66850219540447,1.7165169181257485,1.1043629251480105,0.8297524452209473,-1.0257586240768433,-0.0187679026275873
0.9466496582031283,-0.6604325784564018,1.6457359934598206,1.6902666245818136,0.6884838342666626,-0.8525242805480957,-0.0707538872957229
0.9566137695312591,-0.6312487156786024,1.6011252828389406,2.106635010609031,0.5050514340400696,-0.7103469371795654,-0.1195435374975204
0.9665786132812499,-0.358211672873795,1.492629252284765,1.5461398931980133,0.3178877234458923,-0.7024387121200562,-0.1528681814670562
0.9765437011718774,-0.3181017808035016,1.1681383549660445,1.9490590150654317,0.2091226428747177,-0.5242580771446228,-0.1798417419195175
0.9865078125000082,-0.4041265248958021,1.087824462801218,2.471774144658446,0.123318113386631,-0.2783320546150207,-0.2293992042541504
0.996472656249999,-0.3233597013317048,1.2313608270764351,2.2082629089593886,0.0667608231306076,-0.0937086790800094,-0.2866726219654083
1.0064377441406265,-0.171155681150034,1.2336959920257329,2.073320770028233,0.0374518483877182,0.0721771717071533,-0.3367751836776733
1.016402832031254,0.0095576087498106,0.999813001871109,2.0840952620208264,0.0190640520304441,0.2022648751735687,-0.3783071637153625
1.0263666992187481,0.1918658762235194,0.7625783632010221,2.0378852995097634,-0.0033497824333608,0.2873298525810241,-0.4084309935569763
1.0363317871093756,0.3320236674437299,0.6292997735679149,2.108719415667653,-0.0496104881167411,0.3180419504642486,-0.4289189577102661
1.0462966308593735,0.5133173693137243,0.5019786310344935,2.083389159578085,-0.1320698708295822,0.2885510325431824,-0.4241457879543304
1.056261718750008,0.6742550598427652,0.2189507939606904,1.9994874720543625,-0.2258435040712356,0.2425894141197204,-0.3967064321041107
1.0662260742187541,0.7277975571990013,-0.0628588994950056,1.994131497979164,-0.3259206712245941,0.2202375382184982,-0.366600751876831
1.0761906738281226,0.7003659449160099,-0.2225122858345508,1.9507471142828463,-0.3982814252376556,0.2491035312414169,-0.3403118848800659
1.08615576171875,0.5732659343199804,-0.3343962052613496,1.862832683986425,-0.4732013344764709,0.3203133642673492,-0.3190934062004089
1.096120605468748,0.4951524748088792,-0.4362216720104217,1.6107418369680642,-0.5488617420196533,0.373634397983551,-0.2841274440288543
1.1060847167968788,0.5179430563529953,-0.5162555781900883,1.3330220431745052,-0.6303049921989441,0.427586555480957,-0.2524208724498749
1.1160500488281286,0.5534511902488768,-0.6473351964741945,1.0914806472212075,-0.7001245617866516,0.4781495928764343,-0.2248790115118026
1.1260146484375042,0.6129151135433465,-0.8264525772184133,0.7237333765000105,-0.7499232292175293,0.5326999425888062,-0.1908834725618362
1.135978759765628,0.6387189784940331,-0.964998878121376,0.4945201317220926,-0.7777695059776306,0.6059126257896423,-0.1520593911409378
1.1459436035156259,0.7034326390102505,-1.0451508577227593,0.2155512146502733,-0.7754735350608826,0.6513694524765015,-0.0989138931035995
1.1559086914062533,0.8178275914099067,-1.2089315531253817,-0.0596960515499115,-0.745185375213623,0.6594209671020508,-0.0258141160011291
1.1658740234375031,0.89379022956267,-1.4247463871479034,-0.3494043893009424,-0.6977528929710388,0.6258260607719421,0.0450994968414306
1.175837646484375,0.8942609888795763,-1.5395049852281808,-0.7018909625262022,-0.6396730542182922,0.5412762761116028,0.1087913885712623
1.1858027343750024,0.8083709770828486,-1.512542159500718,-0.9723188457459212,-0.5695421099662781,0.4453270137310028,0.1569860726594925
1.1957675781249932,0.713498982733488,-1.4325041616678238,-1.2492547956854103,-0.4963928163051605,0.3571846485137939,0.1918079704046249
1.2057326660156278,0.701065033096075,-1.3772031302064656,-1.4332359830737114,-0.3992223143577575,0.311562716960907,0.2186483442783355
1.2156967773437515,0.7522379517767578,-1.3481582375079393,-1.5318921721369028,-0.2858845889568329,0.2579791247844696,0.2411533892154693
1.2256616210937423,0.884977612227574,-1.2137205409675835,-1.7409733139902352,-0.1921730786561966,0.1631738543510437,0.2502726018428802
1.2356267089843769,1.018487380268052,-1.0557377181887626,-1.8668588707625864,-0.1087005585432052,0.0753225609660148,0.2574208080768585
1.2455915527343748,1.084036468695104,-0.9211030377715824,-1.8491057719290256,-0.0347393974661827,0.0452359989285469,0.283118724822998
1.2555556640624985,1.2157079884577542,-0.8533025902211666,-1.757994006896019,0.0242019519209861,0.0788293853402137,0.3315805196762085
1.265520751953126,1.3990794464498757,-0.9496838200896978,-1.530270708414912,0.07328362762928,0.1696203052997589,0.397999495267868
1.2754858398437534,1.60867964374125,-1.1076017609387636,-1.3852701168060302,0.0832909867167472,0.2619427740573883,0.4565160572528839
1.2854497070312476,1.7996102118760346,-1.247320028230548,-1.1928069322764874,0.0607649534940719,0.327416330575943,0.5009216070175171
1.295414794921875,1.878588471522927,-1.3141823181480168,-0.9863444484889506,-0.0007316949777305,0.3243654072284698,0.533130407333374
1.305379638671873,1.8220396319575607,-1.2640250793159007,-0.986148049134016,-0.1055587157607078,0.2458096593618393,0.5663110017776489
1.3153447265625005,1.604866222932935,-1.108472114032507,-0.9132476480960844,-0.223993495106697,0.1490655392408371,0.5888634324073792
1.325312744140625,1.2130602504279464,-0.7734744357466697,-0.985579309335351,-0.3640277087688446,0.0329218432307243,0.5749542713165283
1.3352778320312524,0.745580028257519,-0.240830032813549,-1.1217039360493422,-0.5059770941734314,-0.050901148468256,0.5295649170875549
1.3452429199218727,0.3375110493462532,0.2691518719345331,-1.2906038741618393,-0.6285504698753357,-0.1052964478731155,0.4766868352890014
1.3552077636718778,0.0986504899747669,0.6804658971816301,-1.3909855718433857,-0.6675929427146912,-0.1029305011034011,0.443398118019104
1.365171630859379,0.0113649321664124,1.0160463437914848,-1.343919869285822,-0.6097809672355652,-0.0273141358047723,0.4355393946170807
1.3751367187499994,0.080431965586543,1.2347218279421328,-1.2636451400876043,-0.4773129224777221,0.0873043164610862,0.4492456316947937
1.3851018066406269,0.2201397845495492,1.3682640369474888,-1.1517910312771795,-0.3269799649715423,0.1919941902160644,0.4715269804000854
1.3950668945312543,0.3821574888676404,1.411507550868392,-0.960879167842865,-0.2012737095355987,0.2706772685050964,0.5082495808601379
1.4050307617187485,0.5385729161992668,1.346557816573977,-0.7423445534676313,-0.1246635690331459,0.3201510310173034,0.5545174479484558
1.414995849609376,0.6423338079903275,1.20458855548501,-0.5376034866452217,-0.0837552845478057,0.3607011437416076,0.6063385605812073
1.424960693359374,0.6802927325718104,1.0506821883648634,-0.279195127043128,-0.0646505355834961,0.400567352771759,0.6504389643669128
1.4349257812500085,0.7643071597550064,0.9495172313511372,-0.129203887540102,-0.0523344799876213,0.4172384738922119,0.6863205432891846
1.444889892578125,0.8898198646269738,0.8088181363284588,0.0281090731531381,-0.0422884598374366,0.4312312304973602,0.7117148041725159
1.454854736328123,0.9610065205495804,0.6936749228447675,0.2443377486735582,-0.0422413200139999,0.4312440156936645,0.7336465120315552
1.4648198242187505,0.945544820588827,0.6026981823682784,0.4043155446618795,-0.0748408734798431,0.4066515564918518,0.7447616457939148
1.474784912109378,0.8749906173508614,0.5734732569277287,0.577543867367506,-0.1257245540618896,0.3626295030117035,0.7384121417999268
1.4847487792968792,0.7442974411010742,0.5661036049425602,0.7169149286568164,-0.1781189292669296,0.324101448059082,0.712395191192627
1.4947138671875067,0.5614596515942365,0.6268091257959604,0.812072169688344,-0.2370741218328476,0.284170538187027,0.6632998585700989
1.5046787109374975,0.4099602725505828,0.744780840703845,0.869848066830635,-0.2929349243640899,0.2584744989871979,0.5942190885543823
1.5146428222656283,0.2600155025377869,0.8688497034430503,0.9373018929004668,-0.339363157749176,0.2633025348186493,0.5125823020935059
1.5246076660156263,0.1725283577427268,1.0175906506240366,0.95150752838552,-0.3655094504356384,0.2650961577892303,0.4329909980297088
1.5345727539062537,0.169459544756636,1.1378320640295745,1.0267471860259771,-0.3702221810817718,0.2868238389492035,0.3709641098976135
1.544537841796874,0.2193936423573642,1.1950088262349363,1.1269938591510056,-0.3528761565685272,0.3020929396152496,0.3374341428279876
1.5545019531249977,0.3290944455914199,1.2489128503799438,1.2406909654796123,-0.3457173407077789,0.317821055650711,0.333106517791748
1.5644667968750028,0.4534919557631015,1.1986276012539865,1.2970540732145308,-0.372622400522232,0.3021252453327179,0.3619693219661712
1.5744321289062526,0.4953375125195831,1.0611731872409582,1.2341969272851945,-0.4206295907497406,0.2691073715686798,0.4145872592926025
1.5843967285156282,0.4757780218511819,0.9852847103029488,1.1207143404901028,-0.4605496525764465,0.2333986759185791,0.4631337523460388
1.5943608398437519,0.3705252840671688,0.967908043566346,1.0013263290435075,-0.4768516719341278,0.2199518382549286,0.4892772138118744
1.6043259277343793,0.2460210255853831,0.9356260686427356,0.8615770820915698,-0.4641967415809631,0.2290568351745605,0.4923241138458252
1.6142907714843773,0.1703247832838445,0.8614736217170953,0.8017191179782152,-0.4082373380661011,0.2677927911281585,0.4828355610370636
1.624256103515627,0.1103977725222706,0.7794932576447725,0.812286689221859,-0.3393712341785431,0.3062243163585663,0.4602066576480865
1.6342199707031284,0.1514980638694018,0.6994763025999069,0.7895195616185665,-0.2767634987831116,0.314990371465683,0.4319116473197937
1.6441848144531264,0.230555233971402,0.5820481930494308,0.7906266460776329,-0.2333492636680603,0.2949025332927704,0.4109664261341095
1.6541499023437538,0.2821666901998221,0.4453589181900024,0.8082417977452278,-0.2004254162311554,0.2618729174137115,0.3952463269233703
1.6641147460937518,0.2742828050822019,0.3482493740469217,0.859172943559289,-0.1855163276195526,0.2221133410930633,0.3846863508224487
1.6740788574218755,0.2739108299646526,0.2930839516639709,0.7686164743214845,-0.1936877071857452,0.1660346239805221,0.3727394044399261
1.6840441894531253,0.2334108425982296,0.264002818608284,0.7111562189996242,-0.1976201683282852,0.1297824382781982,0.3542770445346832
1.6940087890625009,0.1403587571524083,0.2359299858123064,0.7532435486227274,-0.1930808126926422,0.1273749470710754,0.3430677950382232
1.7039738769531283,0.04290902126953,0.193934426125884,0.6896820538163184,-0.1997948139905929,0.1344683766365051,0.3397340476512909
1.713937988281259,0.0105277506899088,0.1257102002054453,0.5827414360105991,-0.2010137438774109,0.1507197916507721,0.3337984085083008
1.72390283203125,0.0316316212560981,0.0047381344377994,0.4344014708459377,-0.1847491562366485,0.14011912047863,0.322921484708786
1.7338681640624927,0.0807351132515817,-0.0974175871789455,0.2277028402149677,-0.1567801088094711,0.1072780787944793,0.3096791803836822
1.7438317871093787,0.0835469923345372,-0.192028300243616,0.0145557640969753,-0.1316995471715927,0.0533596612513065,0.2805633842945099
1.753796874999999,0.0589200987413525,-0.2044178262174129,-0.21923136446774,-0.1057273373007774,-0.0118768643587827,0.2470951676368713
1.7637619628906265,0.0109809743501245,-0.2232283251494169,-0.4038298069715499,-0.0804439857602119,-0.0637890249490737,0.2089968025684356
1.7737268066406244,-0.03991462522652,-0.2425426819503307,-0.5364245059937238,-0.0508789047598838,-0.0960750579833984,0.1780277043581009
1.7836906738281257,-0.08751414239984,-0.215055540087819,-0.6830290256679058,-0.0265021696686744,-0.125032439827919,0.134396880865097
1.7936557617187532,-0.1522073811825364,-0.2168511913329362,-0.784801885446906,-0.0189009737223386,-0.150062158703804,0.0953879654407501
1.8036208496093735,-0.2261527977613732,-0.1989700822055339,-0.9547481177419423,-0.0302525367587804,-0.1804973185062408,0.0580403208732605
1.813585937500008,-0.3327382819864898,-0.1596791053026914,-1.0981202313661576,-0.0415059924125671,-0.2098940908908844,0.0231909956783056
1.8235498046875023,-0.422259818685986,-0.0904220292031764,-1.3007435753822325,-0.0398473851382732,-0.2518760859966278,-0.0049836500547826
1.8335148925781226,-0.4925805784942582,-0.0525555321455001,-1.4937088642150165,-0.0253448747098445,-0.2881483435630798,-0.0285150725394487
1.8434797363281277,-0.6033773602714761,-0.0322755451828241,-1.6124065553098916,0.0094092059880495,-0.3112077713012695,-0.0439843013882637
1.853444824218748,-0.6836467922400683,-0.0262643220692872,-1.7129601024270056,0.0596840903162956,-0.3120485246181488,-0.0584223605692386
1.8634089355468788,-0.7065906646497547,-0.1621235758453607,-1.7482786685675382,0.1260330379009246,-0.2951180636882782,-0.0689668878912925
1.8733737792968768,-0.7539796808775514,-0.3339350174903869,-1.7503981449395418,0.1898426413536071,-0.2650848031044006,-0.0841293260455131
1.8833388671875042,-0.8122837666124105,-0.2892015572726726,-1.7315151652932166,0.2368722409009933,-0.2487196922302246,-0.1136842966079711
1.8933039550781245,-0.8123286286674439,-0.1568909358888864,-1.687554443013668,0.2770891487598419,-0.2502174377441406,-0.1479551941156387
1.9032678222656259,-0.7091722055755555,-0.1808539952784776,-1.5168658679187297,0.3290608823299408,-0.2412652671337127,-0.1595892012119293
1.9132329101562533,-0.5509446873206645,-0.3241670721918344,-1.2876479469656943,0.4025071263313293,-0.2150781452655792,-0.1562791615724563
1.9231977539062584,-0.3632315833950415,-0.4657376893520355,-0.9762813196361064,0.4677331149578094,-0.1817704737186432,-0.1413500010967254
1.9331628417968787,-0.0747802782340906,-0.6853764655768871,-0.7332756963491439,0.4938768446445465,-0.1688147336244583,-0.1281300634145736
1.943126708984373,0.2525483815275132,-1.0057014753878115,-0.5980693535238504,0.4615338444709778,-0.2241927087306976,-0.1104237884283065
1.9530917968749932,0.3669846888508647,-1.1029115572959185,-0.5521072282940149,0.3684667348861694,-0.3638621866703033,-0.0907113403081893
1.9630568847656278,0.1328396136939525,-0.8733288946837187,-0.4218015169918537,0.2359885722398758,-0.5354934930801392,-0.0862801000475883
1.9730217285156257,-0.3724648007623851,-0.404126159569621,-0.3811141172945499,0.0943723246455192,-0.7286980748176575,-0.0967889279127121
1.9829858398437423,-0.8123885421611369,0.0928723449647426,-0.4881704704344272,-0.0256149154156446,-0.9058875441551208,-0.1376834064722061
1.9929509277343769,-1.1371641747053711,0.4321989923655986,-0.6607382834047079,-0.1003064587712287,-1.050517201423645,-0.2008048444986343
2.002915771484375,-1.398638716945052,0.6599257979780435,-0.9036305094450712,-0.1292036920785904,-1.168654203414917,-0.276591420173645
2.0128798828124985,-1.5749685127973556,0.9095084615677594,-1.135201131004095,-0.1138271316885948,-1.2351943254470823,-0.3664707243442535
2.022844970703126,-1.7745248704582453,1.2017618076264858,-1.13062257104218,-0.0437567755579948,-1.1929872035980225,-0.4513342380523681
2.032809814453124,-1.9847844084411856,1.4696557884544132,-1.0809364568531512,0.0772567242383956,-1.0728278160095217,-0.511043906211853
2.0427749023437514,-2.0519120712965724,1.674014577960968,-0.9415572122573852,0.216991052031517,-0.8745971322059631,-0.5437877178192139
2.0527387695312527,-1.9678025862410664,1.6629659452021122,-0.7184089666068554,0.309954822063446,-0.6441032290458679,-0.5468330383300781
2.062703857421873,-1.7468462976768613,1.472231776422262,-0.4174269551694393,0.3385777473449707,-0.3992467820644378,-0.5047509074211121
2.0726689453125005,-1.4956182049676776,1.1907143439114094,-0.0918821648836135,0.3091269135475158,-0.1694114506244659,-0.434833824634552
2.0826337890624984,-1.2396668831288813,1.0313549720823765,0.2190051544964313,0.2327718436717987,-0.0031755787786096,-0.3553898930549621
2.092597900390629,-0.9795678670261054,0.9247720816731452,0.3764806122750043,0.1312526762485504,0.0662501007318496,-0.2731280624866485
2.102562744140627,-0.8610973357506095,0.8035065859168767,0.5193061979323625,0.0337671227753162,0.0837066546082496,-0.2016610354185104
2.1125278320312475,-0.8904002948634326,0.7394932556897401,0.6700432873666287,-0.0490097813308239,0.0752724260091781,-0.1562999486923217
2.122492919921875,-1.0047498737514018,0.7465069338440895,0.7453454888492822,-0.1137324869632721,0.0501551255583763,-0.1358761638402938
2.1324567871093763,-1.1239691775675862,0.709390378370881,0.8650187469780445,-0.1585516184568405,0.0135659556835889,-0.1352705657482147
2.1424218750000037,-1.2498676668867468,0.6372188761293888,0.9643746087431908,-0.1883404850959777,-0.0365496501326561,-0.1618750095367431
2.152386962890624,-1.3706193679019807,0.637059886175394,1.0107371314674616,-0.2009872943162918,-0.0866564959287643,-0.2136109173297882
2.162351806640629,-1.4693315249361096,0.684005761745572,1.0647609825998543,-0.1978911459445953,-0.144597977399826,-0.2858802676200866
2.172315917968753,-1.5130506935447454,0.7187988427072763,1.0752736087858676,-0.2029815018177032,-0.2249548733234405,-0.3721355199813843
2.1822807617187507,-1.5225127877645193,0.6791203277915716,1.0697200663119557,-0.2148327231407165,-0.299765944480896,-0.463115781545639
2.192245849609378,-1.55639869075343,0.6261538767576217,1.129630637395382,-0.2204296290874481,-0.3321305513381958,-0.5545149445533752
2.2022109374999985,-1.577076883253455,0.6343155559033155,1.2335416782468556,-0.2297870218753814,-0.3243454396724701,-0.6459804177284241
2.212174804687507,-1.4820267558582123,0.6438263115704059,1.3457915083765983,-0.2465087473392486,-0.2919403612613678,-0.7312268614768982
2.2221398925781273,-1.2729768859259782,0.5711994667768479,1.4470201782763004,-0.2716447114944458,-0.245806023478508,-0.810368537902832
2.2321047363281252,-1.0613003938172012,0.4745540330141782,1.626333958375454,-0.3022835552692413,-0.1632626801729202,-0.8735632300376892
2.2420698242187527,-0.9157304778877644,0.4345470167964697,1.802200812891125,-0.3585206568241119,-0.0761452242732048,-0.9148896932601928
2.2520339355468764,-0.735762033272162,0.3724380588859319,1.8876690190792085,-0.4367238581180572,-0.0036827384028583,-0.935569941997528
2.2619987792968743,-0.5627223650064319,0.2426175007522106,1.9135019639939068,-0.5109954476356506,0.0725188180804252,-0.9488723874092102
2.2719638671875018,-0.4470977246813475,0.1503694251656532,1.8478221618592736,-0.5553144216537476,0.1235633641481399,-0.9637176990509032
2.281928710937507,-0.3420802569579332,0.1283949092447757,1.71711137688756,-0.5742462277412415,0.1558878719806671,-0.9905127882957458
2.2918928222656234,-0.2766155954113229,0.0784603732526302,1.6280261492460966,-0.5731365084648132,0.1718833446502685,-1.023336410522461
2.301857910156258,-0.197297564149741,0.0143207862973213,1.5558447101324795,-0.574882984161377,0.1522076874971389,-1.0615419149398804
2.3118229980468783,-0.0875764670463278,-0.0348842663764953,1.4279904836356638,-0.5951512455940247,0.1037655919790268,-1.098948955535889
2.3217868652343725,-0.062108026328776,-0.1460810803219676,1.3522428764730692,-0.6146606802940369,0.0870563760399818,-1.1244492530822754
2.331751464843748,-0.1477282630071044,-0.2394739420294761,1.31272159794569,-0.6328644156455994,0.1261289566755294,-1.1471418142318726
2.341716308593753,-0.2165217401828616,-0.250938462112844,1.2246996156215666,-0.6399129033088684,0.1934529691934585,-1.173855185508728
2.3516813964843735,-0.18758454564251,-0.2865036964908242,1.1656763487666844,-0.6416559815406799,0.2612866163253784,-1.2061339616775513
2.3616452636718748,-0.0466972345713526,-0.4189394055590033,1.0426584563851355,-0.6637890934944153,0.2825596332550049,-1.2260147333145142
2.3716101074218727,0.1613170087028294,-0.6523521478533745,0.8234837905406951,-0.6943445801734924,0.2859615385532379,-1.2348144054412842
2.3815754394531226,0.3143803491275757,-0.8436123863339423,0.6269236920863389,-0.7077274918556213,0.2895607948303222,-1.2192857265472412
2.3915402832031276,0.4409661631237715,-0.9261623669877648,0.4224240328043699,-0.6787957549095154,0.2997247576713562,-1.176924705505371
2.4015043945312584,0.5871168015506119,-1.0743170387133956,0.2253518931746482,-0.6202105283737183,0.3022207021713257,-1.1006189584732056
2.4114692382812493,0.7549735872857272,-1.3178583763122558,0.1386520993649959,-0.5466854572296143,0.3050697445869446,-0.9949299097061156
2.4214340820312543,0.9596564211148768,-1.55774615983963,-0.0058697688162326,-0.4944832921028137,0.2658828794956207,-0.8791327476501465
2.431399414062504,1.1576273362152278,-1.72772278727293,-0.2554489252746105,-0.4701443910598755,0.1843542158603668,-0.7705910801887512
2.441363525390628,1.2642467592425644,-1.784245469483733,-0.4997516026347875,-0.447510302066803,0.0918672904372215,-0.6811258792877197
2.451328369140626,1.210819193502888,-1.7610270909816026,-0.8039572522938251,-0.4045361876487732,0.0060858046635985,-0.6110131144523621
2.4612934570312532,1.143317801964283,-1.671647556568682,-1.0853583649486302,-0.3465124666690826,-0.0555449351668357,-0.5477124452590942
2.471258056640629,1.1689255598209798,-1.6104656503751873,-1.430653565365076,-0.2707106471061706,-0.0967704057693481,-0.4979059994220733
2.481222412109375,1.2626599284425375,-1.6507245955273508,-1.6372335380524397,-0.1785486191511154,-0.0861074402928352,-0.4603676497936249
2.4911875000000023,1.3631905330754817,-1.662266564761102,-1.6799895607173445,-0.0751721560955047,-0.014884659089148,-0.4320401549339294
2.5011523437500003,1.406712717807293,-1.5429264841094612,-1.6906927410393953,0.0213170759379863,0.068391814827919,-0.4105572402477264
2.5111174316406277,1.477756823454052,-1.433669406054914,-1.7726228362292051,0.0863914191722869,0.1210776641964912,-0.3944752216339111
2.521081298828129,1.6106278551995754,-1.431129366183281,-1.8049112408936023,0.1275662183761596,0.160813957452774,-0.3755989968776703
2.5310463867187494,1.7429675565473737,-1.4521341602891682,-1.7503011143058538,0.1329889446496963,0.1825956851243972,-0.3592756986618042
2.541011474609377,1.9203708268500863,-1.4342673719480632,-1.823633477020264,0.1257942914962768,0.1588886678218841,-0.3428615629673004
2.5509763183593748,2.106568521244079,-1.4280422138229012,-1.9050275656372309,0.1108611449599266,0.0885212942957878,-0.3293156623840332
2.5609404296874985,2.2176773646451533,-1.392274734871089,-2.0355261691629885,0.108146071434021,-0.0239814165979623,-0.3061259090900421
2.5709052734375035,2.186850849226862,-1.2065984340026974,-2.2275322575747967,0.1154095754027366,-0.183170273900032,-0.2835569679737091
2.580870361328124,1.9948317552030088,-0.8650362826347351,-2.482200846126676,0.1191064044833183,-0.374942809343338,-0.2727298736572265
2.5908354492187513,1.7200535678192972,-0.4513642960846424,-2.6162685403108594,0.1157782524824142,-0.5286237001419067,-0.2819041907787323
2.6007993164062526,1.437026607528329,-0.0231429751783609,-2.689081263065338,0.1112202256917953,-0.6434656381607056,-0.304380714893341
2.610764404296873,1.1578851103685797,0.3942965472117066,-2.6079016939818858,0.1429182291030883,-0.6919660568237305,-0.3180952072143554
2.6207294921875004,0.892252863927558,0.7615481433704495,-2.4469576833099125,0.2444674521684646,-0.6414318084716797,-0.3209964632987976
2.6306931152343793,0.7332721892178058,1.132176230224967,-2.148994142910838,0.4099789261817932,-0.5033109784126282,-0.3180435597896576
2.640658447265629,0.6791467043418437,1.426737268704176,-1.874133245679736,0.6004990935325623,-0.3403048813343048,-0.2921834588050842
2.650623291015627,0.7414245160132646,1.51163410474509,-1.570952262893319,0.7613572478294373,-0.1829339265823364,-0.228565365076065
2.6605883789062474,0.863002584850043,1.462453894251585,-1.23888596188426,0.861475944519043,-0.0627115964889526,-0.1455873697996139
2.6705522460937487,0.9635753481242804,1.4531953597798943,-0.8256599655359983,0.8947262763977051,0.0369771756231784,-0.0609616972506046
2.680517089843754,1.0241909256719053,1.4506065123304723,-0.4412812934875488,0.8822416067123413,0.1120074093341827,0.0220522377640008
2.6904824218750036,1.1454559099715202,1.3553338282257317,-0.1755482900857925,0.8212850689888,0.1778362244367599,0.0964907854795456
2.7004472656250016,1.266813687121123,1.1925713699549436,0.0205371765941381,0.7258251905441284,0.247837409377098,0.166252002120018
2.7104113769531253,1.3593109151631593,1.0493559081971644,0.1375344935119152,0.6008231043815613,0.3363014757633209,0.2284479886293411
2.7203764648437527,1.425476162727177,0.950114028200507,0.2191939550668001,0.4802113175392151,0.4184969663619995,0.2803269624710083
2.7303410644531283,1.4773276382565497,0.9148734957322476,0.199029703438282,0.3633070588111877,0.4594606459140777,0.3124486804008484
2.740306396484378,1.476944045766443,0.9703300100162624,0.0789408502459526,0.2654832005500793,0.4539084732532501,0.3111495077610016
2.750270507812502,1.3974698192961512,1.10733784930557,-0.0493202034860849,0.1831494569778442,0.4200053811073303,0.2817586064338684
2.7602353515624927,1.2911862040944395,1.3032993973448872,-0.1415180101901292,0.1313572525978088,0.3863154053688049,0.241897240281105
2.770200439453127,1.1866516245171428,1.4970634353399277,-0.119461076682806,0.1003716439008712,0.357843279838562,0.2173157334327697
2.780165039062503,1.0814945291273297,1.6611109649851916,-0.0280056127786636,0.0788324475288391,0.3563000559806824,0.2111971080303192
2.7901291503906265,0.9408693761236964,1.7969748949363826,0.1125982051759958,0.0806090459227562,0.3926202654838562,0.2109339833259582
2.8000944824218763,0.7549965297698974,1.9435344064250588,0.1810743600308895,0.09945959597826,0.439913272857666,0.2113798260688781
2.8100593261718743,0.6227041746951639,2.0788947707682848,0.3601467325896024,0.1121700629591941,0.4900012016296386,0.214994803071022
2.8200244140625017,0.5123651466228067,2.114769509486854,0.5835638583093882,0.0981345102190971,0.5377440452575684,0.2355144619941711
2.829988281250003,0.4999868726953864,2.103060951514542,0.8091822934657334,0.0744286552071571,0.5563669800758362,0.2860018908977508
2.839953125000008,0.5183901060007512,2.0751701972872016,1.0421516759067773,0.0293472073972225,0.5629872679710388,0.3609477579593658
2.849918457031258,0.5405920009367168,1.9591075308710333,1.234492110839486,-0.0237421095371246,0.5791305303573608,0.4495966732501983
2.8598833007812487,0.5008991652347147,1.837228287130594,1.4122791197627782,-0.0576594769954681,0.6162018179893494,0.5301963686943054
2.8698474121093724,0.4173160421408712,1.7765014312282204,1.4381576573848724,-0.0706120282411575,0.6271729469299316,0.5860527157783508
2.8798125,0.4192291822858154,1.7077829920500516,1.4668611892998218,-0.0714887231588363,0.6315053105354309,0.6121727228164673
2.8897770996093755,0.3970581208795309,1.560196475601196,1.602142935448885,-0.0681685656309127,0.6193532943725586,0.6254363656044006
2.8997424316406253,0.3767532917365431,1.43473966563493,1.6643430787742135,-0.0814402028918266,0.5652791857719421,0.6249191761016846
2.909706542968749,0.4300857996039092,1.3458449921295046,1.6486784766525029,-0.103153757750988,0.4689265191555023,0.6115034818649292
2.919671386718754,0.4476654415667057,1.2045461776480078,1.5856284384995698,-0.1220155134797096,0.364113450050354,0.5940790176391602
2.9296364746093744,0.3258293063156307,1.0930614866718649,1.5531886426657435,-0.1499179899692535,0.2667581439018249,0.5754126310348511
2.93960107421875,0.1534738209217786,1.044088196927309,1.47167648062706,-0.1878183782100677,0.1876469850540161,0.556891679763794
2.9495651855468736,-0.0082151628986001,0.9677095983847976,1.313432376563549,-0.2123905420303344,0.1324814558029174,0.541860044002533
2.9595305175781235,-0.1649200746960938,0.8572066119223832,1.1168301925331354,-0.2094781547784805,0.1102873012423515,0.51304030418396
2.9694953613281285,-0.34051746462062,0.7906541186064481,0.9093295978695154,-0.1897041946649551,0.1123911961913108,0.4762104153633117
2.979460449218749,-0.4691816923260689,0.6981734033077955,0.709250677639246,-0.1742674708366394,0.1117923930287361,0.4320325553417206
2.9894243164062573,-0.5071041573546826,0.4752861466810107,0.415139136493206,-0.1595172882080078,0.0966187641024589,0.4052587449550628
2.999389160156248,-0.6203394913904369,0.2266927863895892,0.1776262654036283,-0.1424479484558105,0.0689650699496269,0.3867271244525909
3.009354492187498,-0.7405477331787348,0.064711833885312,-0.0936351460307836,-0.1337932050228119,0.031880285590887,0.3678804636001587
3.0193183593749993,-0.8745612129576503,-0.095148765464127,-0.2991384293973446,-0.1124202385544776,-0.0189152527600526,0.3390504121780395
3.0292834472656267,-0.938073023403436,-0.2534218033611774,-0.5137117389261723,-0.0602776743471622,-0.0683720186352729,0.2942094504833221
3.039248535156254,-0.9778992762267588,-0.3389925931409001,-0.6396008028298616,0.0286409575492143,-0.0961969271302223,0.2227627038955688
3.0492131347656226,-0.9964731899239122,-0.3662660922527313,-0.7013543714314698,0.123847372829914,-0.1143239960074424,0.1235498338937759
3.0591772460937534,-0.9268560483403504,-0.4762327798813581,-0.8053291251689195,0.2121564596891403,-0.1563390791416168,0.0173996947705745
3.0691423339843737,-0.8335808216631412,-0.6064587039455771,-0.8332143264383077,0.2794079184532165,-0.2061641663312912,-0.0713951587677002
3.079107421875001,-0.7704397442258893,-0.6500125989899039,-0.7488660641908645,0.328380137681961,-0.2432937920093536,-0.1319303959608078
3.0890725097656286,-0.7643450806125998,-0.6542837004378438,-0.6308265447437763,0.3718040585517883,-0.2586807310581207,-0.1601615101099014
3.0990361328125005,-0.7898946785412728,-0.6189350314199924,-0.5311176317572593,0.4065157473087311,-0.2675004601478576,-0.1807962208986282
3.109001220703128,-0.7895037795275449,-0.5255711035460233,-0.4446569074004888,0.4313968420028686,-0.2700373828411102,-0.1986170262098312
3.1189663085937482,-0.7413900292217731,-0.5041816940367222,-0.4354939422577619,0.4464061260223388,-0.2571520805358886,-0.2255895286798477
3.1289313964843757,-0.7041063004881143,-0.6042477498978376,-0.3661871817976236,0.4590002298355102,-0.2121510654687881,-0.2455520629882812
3.1388955078124994,-0.6766825792506337,-0.6881085208892822,-0.3255132261037826,0.4400815367698669,-0.1682690680027008,-0.2675540149211883
3.148860107421875,-0.6026888300180435,-0.698804686948657,-0.3093763302952051,0.3737584352493286,-0.1344597041606903,-0.2910902500152588
3.1588251953125024,-0.5023027484223246,-0.7382172444045543,-0.290856923264265,0.2666809558868408,-0.0980237200856208,-0.309309720993042
3.1687902832031227,-0.4037159713335335,-0.7750269258856773,-0.2927782467156648,0.1569941490888595,-0.0358413010835647,-0.3223991692066192
3.1787543945312535,-0.2688781695596873,-0.7829547962754965,-0.2426467268466949,0.0590113624930381,0.0381991937756538,-0.3314542174339294
3.188719482421874,-0.0202403856046497,-0.8419248716384172,-0.2041220581412315,-0.0304500740021467,0.1099913567304611,-0.3352001905441284
3.1986840820312494,0.2707521467380225,-0.95469667981565,-0.2431424014091491,-0.0977269783616066,0.1627142280340194,-0.3498520851135254
3.208649169921877,0.3569669335097074,-0.9129963036835194,-0.1903787794709205,-0.1303238123655319,0.209969088435173,-0.3891017735004425
3.218613525390623,0.1865840633630752,-0.4649953465521335,-0.331639015507698,-0.2142780125141143,0.1248478069901466,-0.4639363288879394
3.228578369140628,0.0366628203563392,-0.0296165551066398,-0.6685925040364266,-0.3584756553173065,-0.0932083576917648,-0.5590639114379883
3.2385434570312484,-0.1874002020515501,0.1971884594857692,-0.9916957463890314,-0.5767120122909546,-0.3963217437267303,-0.6386873722076416
3.2485083007812534,-0.5252114764533937,0.5377656914696097,-1.2830787393540144,-0.8284390568733215,-0.6661481261253357,-0.6781341433525085
3.2584721679687476,-0.9678590898580848,0.8948755405813456,-1.4541256263673306,-1.0483343601226809,-0.8328934907913208,-0.6649631261825562
3.2684374999999974,-1.3076438562899828,1.1476266050741075,-1.6596417692154646,-1.1862975358963013,-0.8503018021583557,-0.6206510663032532
3.2784023437500025,-1.4174642673157154,1.3130632509902118,-1.7854086680442094,-1.2066290378570557,-0.7087650895118713,-0.5569632053375244
3.288366455078126,-1.5278675927959382,1.4372174539253115,-1.7724334511369466,-1.07075035572052,-0.4222390353679657,-0.4646125137805938
3.2983315429687536,-1.6609604505985975,1.6081243479460476,-1.7434066786170004,-0.8264557123184204,-0.0656751096248626,-0.3327988088130951
3.308296142578129,-1.6770625673547386,1.6731407177358866,-1.5606149932742115,-0.5457668304443359,0.2618643939495086,-0.1660292744636535
3.318261474609379,-1.5474518525794148,1.4360563011914491,-1.514136735215783,-0.2797798216342926,0.4667563438415527,0.0250549428164958
3.3282219238281243,-1.3544250428177416,1.071726437698305,-1.3310253163993355,-0.0609089955687522,0.544666051864624,0.1731416136026382
3.3381867675781294,-1.1031859903231265,0.8705112069144845,-1.0216583384543656,0.0966351851820945,0.4804931879043579,0.2425323873758316
3.3481518554687497,-0.8874586884535849,0.6877575154945254,-0.7937474084466696,0.2195810824632644,0.3150688111782074,0.2480544447898864
3.358116943359377,-0.793939570017904,0.3953860960140824,-0.6419213547319174,0.3255223035812378,0.0721126496791839,0.2145697325468063
3.368081054687501,-0.7221455227866769,0.2024576320603489,-0.5355272648930549,0.3939570188522339,-0.214799553155899,0.1291179358959198
3.378045898437499,-0.6695246703200042,0.1026528574839234,-0.3540355562329292,0.4192891716957092,-0.5039426684379578,-0.00255857873708
3.388010742187504,-0.7042841412730515,0.0208411279767751,-0.1411848327130079,0.4028422832489013,-0.7214065790176392,-0.1514662951231002
3.397975830078124,-0.8095774302631616,0.0157379596188664,0.1826449703484773,0.3375461399555206,-0.8212008476257324,-0.2954357266426086
3.4079396972656255,-0.944330037971586,0.0811360222026705,0.4314104723364114,0.226113885641098,-0.8224202990531921,-0.4135261476039886
3.4179050292968753,-0.9638076225101948,0.1603548126071691,0.6270359202891588,0.1103993505239486,-0.7581854462623596,-0.490271508693695
3.4278698730468733,-0.8420246787510812,0.2505655371472239,0.7829898675888777,-0.0031389277428388,-0.6528915166854858,-0.5326418280601501
3.4378347167968784,-0.7134661033771932,0.3537047168433666,0.9604209026813506,-0.0946891084313392,-0.4992489516735077,-0.5359300971031189
3.447798828125002,-0.6454669183842837,0.4142231906920671,1.1139134283035992,-0.1633328795433044,-0.3219269216060638,-0.5073152184486389
3.457763671874993,-0.5622529208637773,0.4708750522404908,1.227981706032157,-0.2247786223888397,-0.1632859855890274,-0.4592536687850952
3.467729003906257,-0.4012554264388978,0.4741743860468268,1.290703242883086,-0.2869330942630768,-0.0704575031995773,-0.3960422277450561
3.4776940917968773,-0.2072951352193951,0.4172019142419099,1.2330284680277108,-0.3250350058078766,-0.0626506879925727,-0.3276983201503753
3.487657714843749,-0.1163160566553473,0.362150473627448,1.218449323055148,-0.321193128824234,-0.0864231288433075,-0.2683867812156677
3.4976228027343765,-0.1234228199206292,0.3206818604245782,1.2419979564249517,-0.2908679842948913,-0.1186802610754966,-0.235015258193016
3.5075876464843745,-0.1113819612540304,0.2825079048529267,1.2660954558491706,-0.24058298766613,-0.1611550152301788,-0.2205345779657364
3.517551757812498,-0.0592697889618575,0.1463590204805135,1.2810142080396414,-0.1767623424530029,-0.2203574627637863,-0.2095506340265274
3.5275168457031256,-0.014178601347655,0.0025429624810814,1.2801800953030589,-0.1170092597603797,-0.3078542947769165,-0.204069584608078
3.5374816894531236,0.0073236208863556,-0.1257289049059152,1.287604107823968,-0.0730161219835281,-0.3817700743675232,-0.2087026834487915
3.547446777343751,-0.0414917018175125,-0.2492003862738609,1.3529104004710912,-0.0382048748433589,-0.4181211590766907,-0.2289086282253265
3.5574108886718747,-0.1019032081604003,-0.3503440082386135,1.4992267508536576,-0.0196791961789131,-0.4139636754989624,-0.2557599544525146
3.5673757324218727,-0.08000394943282,-0.4465492970183491,1.569003466913104,-0.0293296948075294,-0.4029134213924408,-0.2733397483825683
3.5773410644531225,-0.0164181239027529,-0.6107046709522604,1.580081910288334,-0.0526033490896225,-0.3903234601020813,-0.281291663646698
3.587305664062498,0.0170122904036194,-0.7446417244940996,1.525254341557622,-0.0949942171573638,-0.3794982433319092,-0.2761996984481811
3.597269775390629,0.0093857410479336,-0.8157692706406116,1.446371358978748,-0.1423976868391037,-0.3604662418365478,-0.2641102969646454
3.607234863281249,-0.0345161637164652,-0.879283126913011,1.278534081661701,-0.195011094212532,-0.3450345396995544,-0.253567099571228
3.6171997070312543,-0.0567567832276225,-0.9267799143642188,1.136874032652378,-0.2302351146936416,-0.3099189698696136,-0.2472791224718094
3.627165039062504,-0.1324497375935316,-0.913649506895244,1.0071323849737643,-0.2382576167583465,-0.2556725144386291,-0.2457049340009689
3.6371289062499983,-0.1944058430299163,-0.8568784028813242,0.8319833233386278,-0.2361853718757629,-0.2185405939817428,-0.2419693171977996
3.6470937500000034,-0.164654336431995,-0.8475660923957824,0.6436299122154713,-0.2173115462064743,-0.1953703016042709,-0.2453520745038986
3.6570588378906237,-0.0926665932595729,-0.8678627382323145,0.4904863461613655,-0.18277308344841,-0.1666940152645111,-0.2472791075706482
3.6670236816406288,-0.0752348353348672,-0.8511129712224006,0.3610983342260122,-0.1156198754906654,-0.1443101465702057,-0.2425807565450668
3.676988037109375,-0.0501220213882625,-0.8389569617435335,0.1659662227481603,-0.0521751902997493,-0.1304615885019302,-0.2326543480157852
3.686952880859373,0.0488647878687828,-0.8889505344465375,-0.0170417356938123,0.0130285797640681,-0.1277406364679336,-0.2176730036735534
3.696917724609378,0.1986404849249869,-0.9778758953511716,-0.1990022309094667,0.0906884148716926,-0.1268146187067031,-0.1903023719787597
3.706882812499998,0.3194734344828873,-1.0902437989026308,-0.2516846043050289,0.155406966805458,-0.1122860088944435,-0.157331645488739
3.716846923828129,0.3819333977881818,-1.1709312005549668,-0.2989706716150045,0.1929564625024795,-0.0912467762827873,-0.1177344396710395
3.7268120117187493,0.4250462710667401,-1.2092793436497449,-0.387691742119193,0.2099679410457611,-0.0906811207532882,-0.0791473686695098
3.7367770996093768,0.4373525757364928,-1.1943974163383244,-0.466671170809865,0.2195542454719543,-0.0821600034832954,-0.0481337904930114
3.7467407226562486,0.4064272761188447,-1.091613918212056,-0.5235778839021921,0.2266164124011993,-0.074822723865509,-0.0303984638303518
3.756705810546876,0.3612343086306006,-0.9565002221062778,-0.5893547166705131,0.2387926131486892,-0.0477866902947425,-0.0151742566376924
3.7666708984375035,0.3154503895118832,-0.8511705466285348,-0.5735182651132344,0.248523011803627,0.0115243019536137,-0.0064548007212579
3.776635986328124,0.3409734647598117,-0.7859221216484904,-0.516239211577177,0.2686111330986023,0.0938538089394569,0.0098381713032722
3.786599853515625,0.4844335489284246,-0.8143076736554503,-0.5235457351982593,0.2871789634227752,0.1621963828802108,0.0367941558361053
3.796564697265623,0.7117381836060435,-0.8962290010169148,-0.5497276396811008,0.2909875214099884,0.2020621746778488,0.0692935138940811
3.8065297851562576,0.8970438245311378,-0.8810741019830107,-0.5409481208980084,0.2908077538013458,0.2114578038454055,0.0902834832668304
3.816494873046878,0.9986314639363436,-0.7711457005381583,-0.5605605838626623,0.2938069701194763,0.1959397196769714,0.1031707674264907
3.8264587402343793,1.1306928597994148,-0.7254732059046626,-0.5879401736974715,0.2883661389350891,0.1660558581352234,0.1200408264994621
3.836424072265629,1.3077074230454862,-0.7757219224125146,-0.6187187583208084,0.2887621521949768,0.1496153622865677,0.1491667479276657
3.8463886718749976,1.4321335747897623,-0.7929308313667773,-0.6281114405661821,0.2929249405860901,0.1539701670408249,0.1839785277843475
3.856353759765625,1.5101732384122908,-0.7109829082593322,-0.6676280429184437,0.3076086938381195,0.166929543018341,0.2140256464481353
3.8663178710937487,1.609402989579737,-0.7136620643407106,-0.6853051539063453,0.3412444293498993,0.2233930826187133,0.2396306097507476
3.8762827148437538,1.7494059190317988,-0.8951032118573784,-0.7106015077263116,0.3623155355453491,0.2815262973308563,0.2751806378364563
3.8862480468750036,1.9835615886479612,-1.1603627525284883,-0.7946803053826094,0.3578480780124664,0.286744475364685,0.3169134259223938
3.8962128906250015,2.159070715767145,-1.3275117553204296,-0.9081143768608568,0.298068106174469,0.2237011045217514,0.3407926261425018
3.906176757812503,2.1122996122419835,-1.3057853689417245,-1.1413994011223316,0.159189835190773,0.0732183828949928,0.3296387791633606
3.916141845703123,1.867538377459347,-1.1390250732064249,-1.49898008261621,-0.0536767393350601,-0.1302658766508102,0.2813543677330017
3.9261066894531282,1.547464712060988,-0.8464034783571958,-1.731146916502714,-0.2925921380519867,-0.280929684638977,0.2024947106838226
3.936070800781259,1.1430715721182525,-0.414797775709629,-1.91584589677155,-0.4951344430446625,-0.3493856191635132,0.1253277361392974
3.9460358886718794,0.799603952455148,0.0625549481123685,-2.2019968343019483,-0.6171231865882874,-0.3544666767120361,0.055289801210165
3.9560007324218773,0.5654559546887874,0.5438187078982591,-2.1414508879244325,-0.6068797707557678,-0.1726027280092239,-0.0011593829840421
3.9659658203124977,0.2704072057578712,1.062823877057433,-2.124059023618698,-0.4862502515316009,0.0625911355018615,-0.0288570560514926
3.9759299316406285,0.2116045959163457,1.7023171278595923,-2.089729468515515,-0.3238446414470672,0.3001309931278229,-0.0218026004731655
3.9858947753906264,0.3231285229243338,1.993158269032836,-1.6524106489181518,-0.1093938499689102,0.5978633761405945,0.0509054251015186
3.9958601074218763,0.4709859652690589,1.945358114720881,-1.4091823227912186,0.0866876766085624,0.8272326588630676,0.1964767575263977
4.005824707031259,0.7706949610959738,2.025963391047716,-1.2810790899693965,0.2340265214443206,0.9452530145645142,0.3695428073406219
4.0157888183593755,1.1054903948079795,1.992799664853513,-0.95404376886487,0.3349605798721313,0.971478283405304,0.5475742816925049
4.025753906250003,1.3250564711228012,1.8798413941934704,-0.6753454854279756,0.3980210423469543,0.947505533695221,0.7106492519378662
4.035718750000008,1.4143809143476187,1.7651634601339696,-0.4108662814795971,0.4088015854358673,0.9045743346214294,0.8536847233772278
4.045684082031258,1.39737921840325,1.6178344255775212,-0.2331307104825973,0.3851737380027771,0.84123295545578,0.9678597450256348
4.055647949218752,1.343644705606252,1.4492127198845148,-0.0792909788578748,0.3325430452823639,0.7807002663612366,1.0531456470489502
4.06561279296875,1.248607583823055,1.335625795932114,-0.0649696080386638,0.256064772605896,0.7060319185256958,1.099933624267578
4.0755778808593774,1.118010488358885,1.2733239457979797,-0.0646896220535039,0.1806479692459106,0.6550674438476562,1.118372917175293
4.085542724609375,0.9440224333271384,1.2474217350393533,-0.0065934069156646,0.1189118921756744,0.6230863332748413,1.122712254524231
4.095506835937499,0.7357241124145686,1.2575427315592764,0.0249263514637947,0.0714442357420921,0.6263188719749451,1.1204200983047483
4.1054719238281265,0.5092408771224319,1.3115475857302543,0.0815688606619834,0.0361730605363845,0.6446003913879395,1.1048448085784912
4.1154367675781245,0.3438518697403371,1.4036694045886398,0.1010445455044507,0.0033157868310809,0.6533966064453125,1.0791388750076294
4.125400878906248,0.225145264686644,1.436606628550589,0.1887771894931793,-0.0253536738455295,0.6541212201118469,1.0497453212738037
4.135365966796876,0.0838346136368811,1.4710139250651002,0.3372954338341951,-0.0515192151069641,0.6566318869590759,1.0222444534301758
4.145330810546874,-0.0541796262159943,1.5369228597804905,0.5151099152863026,-0.0924117863178253,0.6675447225570679,0.993109405040741
4.155296142578123,-0.1775263121604919,1.5848983706593514,0.7371756263971329,-0.140781432390213,0.6877718567848206,0.973967432975769
4.165259765625002,-0.2622800864689052,1.560127794279158,0.9820663327783344,-0.1949373334646225,0.7266066074371338,0.9612548351287842
4.175224853515623,-0.3131622785747051,1.5439149106249213,1.2315028658956289,-0.2544885873794555,0.7797092199325562,0.9540653824806212
4.185189941406257,-0.3101106359191238,1.552593307121098,1.4498159464746714,-0.310672789812088,0.8407198190689087,0.9560230374336244
4.195154785156248,-0.2768785206638276,1.5062600104913115,1.628974243751168,-0.3699832558631897,0.8887476325035095,0.9670357704162598
4.205118896484379,-0.2354622221700847,1.4017206086084246,1.724317362743616,-0.4302985072135925,0.90507709980011,0.983754575252533
4.215083740234377,-0.1843823155350983,1.3109241931349038,1.87837804364264,-0.4973824918270111,0.9315484166145324,0.9949105978012084
4.225048828125004,-0.2314918572343886,1.2004662148579954,1.8884195451855657,-0.5653524994850159,0.922389268875122,1.015571117401123
4.235013916015625,-0.3042611792385578,1.0993208393275735,1.7845301316440103,-0.6224254965782166,0.8790847063064575,1.036409616470337
4.244977783203126,-0.3942136912338435,0.9993091440021992,1.6855016021370888,-0.6706761121749878,0.8155863881111145,1.0491759777069092
4.254943115234376,-0.5095030351899564,0.929419907478988,1.513411343550682,-0.68431156873703,0.7319745421409607,1.041920185089111
4.264907714843751,-0.6198423555232584,0.8520160575419664,1.3397048819392918,-0.669289231300354,0.6389412879943848,1.0149368047714231
4.274871826171875,-0.7166711830288172,0.747697604933381,1.1130401526004077,-0.6359586119651794,0.5187938809394836,0.9636031985282898
4.2848369140625024,-0.8806734122276305,0.6521238920554518,0.9440116196721792,-0.5703402161598206,0.4188103079795837,0.8891872763633728
4.2948017578125,-1.035002827065438,0.5878986726433039,0.7984270906955003,-0.5007305145263672,0.3318822085857391,0.8077875375747681
4.304767089843743,-1.1322789599470793,0.485171873140335,0.6535118392825127,-0.4335660934448242,0.2603004276752472,0.7245285511016846
4.314730957031259,-1.2132745507657527,0.3321551483362913,0.5197089335143565,-0.3808948099613189,0.2028020322322845,0.6438134908676147
4.3246958007812495,-1.2376650417871773,0.1935477648958563,0.3336006709694862,-0.3630223274230957,0.1459299623966217,0.5630488395690918
4.334660888671877,-1.2234648131296038,0.0787453276738524,0.1388134274065494,-0.3686736524105072,0.0964689552783966,0.4962967336177826
4.344625732421875,-1.2329691390559077,-0.0281719092562794,-0.0505336709290742,-0.3897072970867157,0.0512745827436447,0.4370637834072113
4.354589843749999,-1.299310619969666,-0.0899424289926886,-0.3198556387335062,-0.429673433303833,0.0139856850728392,0.3885715901851654
4.364554931640626,-1.3667211914196609,-0.106519762045145,-0.6391682566314936,-0.4572794735431671,0.0021378144156187,0.3394767642021179
4.374519775390624,-1.4416254796259105,-0.1067363274052739,-0.8761141414880752,-0.4474522173404693,0.0402886122465133,0.2812528908252716
4.3844848632812585,-1.518586700361967,-0.0737131787255406,-1.1256564730674028,-0.4209782779216766,0.088550679385662,0.2163796126842498
4.394448974609375,-1.5601407998912036,-0.0307180866077542,-1.3824234952032566,-0.3814323842525482,0.1396140307188034,0.1412971317768097
4.404413818359373,-1.5715408764362335,-0.0607344546869397,-1.4952233604311942,-0.3211200535297394,0.2052782624959945,0.0821358039975166
4.414379150390623,-1.5941263638623058,-0.0751920191064477,-1.5397925699979067,-0.2434592396020889,0.2631862759590149,0.0368311516940593
4.424342773437502,-1.590114497872442,-0.0178805246055126,-1.5304694458574055,-0.1371407955884933,0.2993698716163635,0.0068109347485005
4.434307861328129,-1.507950301665813,-0.0076262570947408,-1.4597294377237555,-0.018695630133152,0.297223299741745,-0.010926254093647
4.44427294921875,-1.440130564893037,-0.0617281418994069,-1.2961322821944952,0.1018110811710357,0.2624674439430237,-0.0181506108492612
4.454238037109377,-1.386135793724656,-0.140194360370934,-1.0503665465444323,0.2192237675189972,0.2165301144123077,-0.0311114229261875
4.464201904296878,-1.3128238892763853,-0.2671209506288171,-0.8128817325055598,0.3240042328834533,0.160285472869873,-0.0526761040091514
4.474166748046876,-1.2339485054820776,-0.5011880651786923,-0.5775608185023069,0.4256286323070526,0.1045411080121994,-0.0755292251706123
4.484131835937504,-1.1892637067116796,-0.7179609305784106,-0.3714116384476423,0.4877503216266632,0.0378105491399765,-0.1020441949367523
4.494096923828124,-1.1030496505923568,-0.8839429354175925,-0.2540133395135402,0.5145396590232849,-0.0456234440207481,-0.1282158643007278
4.504060791015625,-1.00673505621925,-1.1013640355929732,-0.1521867037206888,0.5237608551979065,-0.1192539930343627,-0.1513182520866394
4.514026123046875,-0.9034235886961222,-1.3822466773316264,-0.0695662881791591,0.5113187432289124,-0.1863747537136078,-0.1596297025680542
4.523990722656258,-0.7283649818234145,-1.6912813545823095,-0.045194647988677,0.4779048860073089,-0.2500405311584472,-0.1680503487586975
4.533955810546878,-0.4340174399644136,-2.100000102639198,-0.0568354014217853,0.4213132262229919,-0.294145405292511,-0.183061808347702
4.543919921875002,-0.1702607050716877,-2.503408469328284,-0.1252285541683435,0.3577589988708496,-0.3548513650894165,-0.204823300242424
4.553884765624993,-0.076164955791831,-2.6331828502327204,-0.2114928791701793,0.2515146434307098,-0.4449979364871979,-0.2645366489887237
4.563850097656257,-0.2027411251768469,-2.4696081987962124,-0.3606348083674907,0.1150766238570213,-0.5833441019058228,-0.3602376282215118
4.573813964843751,-0.5003616973571479,-2.0700743354529143,-0.4861725746154784,-0.0626884773373603,-0.7310083508491516,-0.5033727288246155
4.583778808593749,-0.9122592215806246,-1.590861370716989,-0.5979921966344117,-0.2683036625385284,-0.8609168529510498,-0.6893079280853271
4.593743896484376,-1.213869740179926,-0.9677835404038428,-0.923041896879673,-0.4693878889083862,-0.9646021127700806,-0.8966217041015625
4.603708740234374,-1.5289008813664315,-0.3366325860112905,-1.171436227467656,-0.6149266958236694,-0.9908211827278136,-1.0866868495941162
4.613672851562498,-1.7347731441758572,0.2604635385662317,-1.3516753057181834,-0.6837844848632812,-0.916683793067932,-1.2374454736709597
4.6236379394531255,-1.774425355606526,0.8158154478698968,-1.4188988301634788,-0.6781995296478271,-0.7125154733657837,-1.336401343345642
4.6336027832031235,-1.7138399540014564,1.2710451872110369,-1.2763713506698608,-0.5908952355384827,-0.3984448313713074,-1.3465420007705688
4.643567871093751,-1.5220673820845785,1.5327373907893895,-1.207063421165943,-0.4455276727676391,-0.0679026097059249,-1.246139407157898
4.653531982421875,-1.166275045312196,1.5892244171649217,-1.113806460797787,-0.2607852518558502,0.1739484369754791,-1.0580379962921145
4.6634968261718726,-0.7198676409825682,1.5666040045559406,-1.0493097309678792,-0.0764295384287834,0.2806722223758697,-0.842251718044281
4.673462158203122,-0.3635248307205736,1.5133654585823415,-0.7468319280147552,0.0909613594412803,0.3227424919605255,-0.6433116793632507
4.683426025390624,-0.2073272839233279,1.3822116060182452,-0.3461363274157047,0.2203065603971481,0.3190180659294128,-0.4750939309597015
4.693390869140629,-0.2132576968856155,1.2105372347563506,-0.0240343710601329,0.3035928606986999,0.2410808056592941,-0.3382385671138763
4.703355957031249,-0.2130259339563548,1.0155825256720186,0.146393507272005,0.3431112468242645,0.0892268270254135,-0.2573173642158508
4.713320800781254,-0.2134409444980323,0.8420306701004505,0.3182663237154484,0.3709482550621032,-0.1142927408218383,-0.2429837435483932
4.723284667968748,-0.3197257287435233,0.7976791949376464,0.3314315102368593,0.3894822597503662,-0.3687056005001068,-0.2872262895107269
4.733249999999998,-0.4877089904025197,0.848165519593656,0.3647065878510475,0.3851610422134399,-0.6161566376686096,-0.3712921738624573
4.743214843750003,-0.7094372862525283,0.8702323899731039,0.521630841487646,0.3571091592311859,-0.7944115996360779,-0.4666594266891479
4.753179931640624,-0.970519102847576,0.8473632633000612,0.5721802945077419,0.3023063242435455,-0.9184480905532836,-0.5575568675994873
4.763144042968754,-1.1195862132430077,0.8417705578595399,0.5103425547540188,0.2404048889875412,-1.0047177076339722,-0.6407225728034973
4.773108886718752,-1.1798489587649703,0.873085733577609,0.4829360769122838,0.2107805758714676,-1.017419457435608,-0.7271602749824524
4.783073974609373,-1.259707216116786,0.9589508301287888,0.5207014516830444,0.1986299008131027,-0.9739550352096558,-0.8166185021400452
4.793038818359378,-1.272593001174927,1.044675641426444,0.5774760628283023,0.1809299141168594,-0.8800510764122009,-0.8916458487510681
4.803002929687501,-1.2620960109494626,1.053118475601077,0.7454623932272195,0.1424933075904846,-0.7429632544517517,-0.9182785749435424
4.812968017578129,-1.220038345812261,0.9781251939371228,0.839013952627778,0.0812948495149612,-0.5992833971977234,-0.899641215801239
4.822932861328127,-1.078437625774741,0.8954793516933918,0.9712965169608592,0.0020663412287831,-0.4550444781780243,-0.8605998158454895
4.832896728515628,-0.933997444527596,0.7948489399477839,1.129928743559122,-0.0778323858976364,-0.3143951594829559,-0.8081568479537964
4.8428618164062485,-0.8352161677800118,0.7075771914690733,1.247899873945117,-0.1449701488018036,-0.1956706494092941,-0.7620900273323059
4.852826904296876,-0.683057521110028,0.6357400357484817,1.3363339442014694,-0.1995886713266372,-0.1215771064162254,-0.721971333026886
4.862791992187503,-0.4981245859548449,0.5199199459165335,1.3497615810513497,-0.2229557782411575,-0.1010958030819892,-0.6894482970237732
4.8727558593749976,-0.3211319422796368,0.365343424449861,1.3633587292492388,-0.2105694413185119,-0.1361775398254394,-0.6649501323699951
4.882720703125003,-0.1515060279801487,0.2159925286769866,1.3937754948228598,-0.1719892919063568,-0.2044085264205932,-0.6478859186172485
4.892685791015623,0.0058928574308753,0.0748012662231922,1.4161825569421052,-0.1258792579174041,-0.2953804731369018,-0.6338981986045837
4.9026508789062575,0.1151795999713242,-0.1053121398210525,1.5523235502690076,-0.0900405719876289,-0.3764958381652832,-0.6159921884536743
4.912614990234374,0.1454080033659935,-0.3253776170253753,1.6383371153801678,-0.0741252899169921,-0.4477701187133789,-0.5887603163719177
4.922579833984379,0.1927851099602878,-0.5095739084690809,1.6394541367113589,-0.0820764228701591,-0.5224978923797607,-0.5583094358444214
4.932544921874992,0.2208031438291072,-0.6834414058610796,1.6266174514919518,-0.1167363747954368,-0.5847669839859009,-0.5363152027130127
4.942509765624997,0.2142513840980827,-0.8113976314276456,1.5478268233716488,-0.1500663757324218,-0.6353811621665955,-0.5161851644515991
4.952473876953128,0.2170234791599214,-0.9356509108230472,1.448600725466013,-0.1771513521671295,-0.6737986207008362,-0.5090343356132507
4.962438964843749,0.3250370599593967,-1.028351114091277,1.185489302739501,-0.1950288712978363,-0.727165699005127,-0.5080063343048096
4.972403808593754,0.4664253062900155,-1.139682660332322,1.0845528937846425,-0.207052856683731,-0.7290690541267395,-0.510807454586029
4.982367675781248,0.5313018292177468,-1.2083964233353732,1.0403718067526817,-0.2068110406398773,-0.6815920472145081,-0.4993795752525329
4.992333007812498,0.6782514360025524,-1.2175307469055057,0.9329670785665511,-0.2122606933116912,-0.6330241560935974,-0.4695335030555725
